,timestamp,accel_x,accel_y,accel_z,gyro_x,gyro_y,gyro_z,ind
0,1695742075775,0.08618164,-0.71051025,-0.10675049,2.609375,-23.65625,5.375,0
1,1695742075815,0.07495117,-1.0586548,0.007751465,4.296875,0.765625,3.875,1
2,1695742075855,0.32348633,-1.4277954,0.2555542,-9.65625,0.890625,-5.921875,2
3,1695742075895,0.18286133,-1.0327759,-0.0049438477,13.390625,-22.578125,-17.546875,3
4,1695742075935,0.2133789,-0.7732544,-0.12872314,-10.46875,2.5625,-9.171875,4
5,1695742075975,0.044433594,-0.68341064,0.03778076,1.59375,9.53125,1.515625,5
6,1695742076015,0.1027832,-1.1607056,-0.11871338,-4.796875,-4.546875,8.703125,6
7,1695742076055,0.30566406,-1.2005005,0.04119873,-43.375,31.71875,-10.734375,7
8,1695742076095,0.21777344,-0.9404907,0.3451538,-13.84375,22.90625,-29.5625,8
9,1695742076135,0.11401367,-0.95758057,0.18841553,41.4375,8.625,-5.90625,9
10,1695742076175,0.06201172,-1.0894165,-0.016906738,36.765625,-11.921875,3.828125,10
11,1695742076215,-0.0041503906,-0.7307739,0.08441162,16.25,8.890625,-9.15625,11
12,1695742076255,0.05883789,-1.1484985,-0.31622314,67.625,7.984375,8.140625,12
13,1695742076295,0.3293457,-0.81378174,-0.034729004,-30.625,19.921875,-3.734375,13
14,1695742076335,0.021484375,-0.98687744,-0.34649658,1.46875,15.9375,-2.578125,14
15,1695742076375,-0.007080078,-0.880188,-0.2029419,-34.75,-4.8125,-10.125,15
16,1695742076415,-0.06298828,-0.7112427,-0.23736572,-20.828125,-14.578125,1.546875,16
17,1695742076455,0.29882812,-0.8936157,0.001159668,-28.140625,15.125,22.59375,17
18,1695742076495,0.15454102,-1.3286743,0.291687,47.8125,7.84375,5.984375,18
19,1695742076535,-0.111816406,-1.098938,-0.13702393,-10.671875,-18.125,7.46875,19
20,1695742076575,0.022949219,-0.8245239,-0.11651611,-10.109375,-11.015625,3.390625,20
21,1695742076615,0.18725586,-0.8323364,-0.06304932,9.8125,-12.59375,4.21875,21
22,1695742076655,0.26879883,-1.0845337,0.101257324,-10.6875,-5.203125,15.09375,22
23,1695742076695,0.23486328,-1.0811157,0.11785889,-16.71875,-18.765625,-3.9375,23
24,1695742076735,0.16455078,-1.2288208,0.010437012,10.390625,-19.21875,5.125,24
25,1695742076775,0.28979492,-0.8831177,0.062683105,-7.578125,-18.34375,15.65625,25
26,1695742076815,0.21142578,-0.7329712,0.08905029,13.890625,-37.953125,9.75,26
27,1695742076855,-0.029541016,-0.82159424,-0.08892822,33.90625,-30.8125,-22.25,27
28,1695742076895,-0.15698242,-0.9866333,-0.29180908,15.921875,-9.421875,-15.171875,28
29,1695742076935,0.38842773,-1.3552856,-0.08453369,-87.375,10.8125,27.078125,29
30,1695742076975,0.49072266,-1.0962524,0.7211304,-21.59375,17.484375,-0.015625,30
31,1695742077015,0.20410156,-0.8599243,0.074645996,23.6875,-11.625,-20.09375,31
32,1695742077055,-0.03857422,-0.7564087,-0.1362915,11.234375,10.75,-16.6875,32
33,1695742077095,0.032470703,-0.88067627,0.05218506,-43.453125,30.171875,8.890625,33
34,1695742077135,0.40478516,-0.9780884,0.37591553,-63.21875,38.8125,9.953125,34
35,1695742077175,0.4465332,-0.9348755,0.36663818,4.96875,-2.15625,-2.578125,35
36,1695742077215,0.2980957,-0.80426025,0.12835693,3.796875,-2.671875,-7.046875,36
37,1695742077255,0.171875,-0.93048096,0.23797607,-12.328125,23.28125,0.28125,37
38,1695742077295,0.14624023,-1.1021118,0.24847412,3.0625,15.1875,-0.84375,38
39,1695742077335,0.05102539,-1.0960083,0.22015381,10.53125,29.859375,16.125,39
40,1695742077375,0.8996582,-0.8418579,0.2230835,7.375,25.078125,-19.25,40
41,1695742077415,0.032958984,-0.3718872,0.30023193,28.484375,38.75,-28.375,41
42,1695742077455,0.07373047,-0.7476196,0.16497803,44.703125,13.8125,23.34375,42
43,1695742077495,0.09814453,-0.8345337,0.053894043,-2.15625,7.25,22.359375,43
44,1695742077535,0.3269043,-1.2791138,0.2008667,-27.359375,23.96875,0.828125,44
45,1695742077575,0.2998047,-0.98272705,0.35247803,-8.78125,27.484375,-26.15625,45
46,1695742077615,0.35986328,-0.8098755,0.2662964,19.546875,-21.53125,-14.0,46
47,1695742077655,0.49682617,-1.0908813,0.035827637,48.625,-33.640625,2.78125,47
48,1695742077695,0.3395996,-1.3682251,-0.269104,77.859375,-21.0,-1.328125,48
49,1695742077735,0.08959961,-0.9746704,-0.23101807,-4.0,18.890625,-12.328125,49
50,1695742077775,0.080566406,-0.6958618,0.015075684,-60.8125,33.984375,-11.328125,50
51,1695742077815,0.07495117,-0.67633057,0.03314209,27.109375,-21.484375,-0.71875,51
52,1695742077855,0.22509766,-1.3018188,-0.39361572,95.25,-40.71875,15.53125,52
53,1695742077895,0.21289062,-1.2630005,-0.55718994,-16.734375,19.328125,-13.453125,53
54,1695742077935,0.2290039,-0.70098877,-0.2432251,-51.8125,11.328125,-20.140625,54
55,1695742077975,0.20410156,-0.6921997,-0.0051879883,14.1875,-11.5625,-10.828125,55
56,1695742078015,0.11303711,-0.91485596,-0.2539673,35.734375,-27.421875,4.78125,56
57,1695742078055,-0.018310547,-1.0681763,-0.4373169,-20.546875,-18.703125,-7.59375,57
58,1695742078095,0.118652344,-0.9277954,-0.19000244,-6.78125,-16.90625,-15.578125,58
59,1695742078135,0.024658203,-0.93951416,-0.20611572,6.65625,-20.828125,-15.671875,59
60,1695742078175,0.14208984,-0.86724854,-0.22003174,-24.125,-14.9375,-2.234375,60
61,1695742078215,0.15161133,-0.9902954,-0.17730713,-18.078125,-27.359375,-2.265625,61
62,1695742078255,0.052246094,-0.93341064,-0.085998535,-11.84375,-7.296875,-12.71875,62
63,1695742078295,-0.031982422,-1.0161743,-0.10797119,-4.359375,-2.328125,-10.5625,63
64,1695742078335,-0.038085938,-0.9463501,-0.054016113,16.703125,-7.0,-1.171875,64
65,1695742078375,0.10205078,-0.9031372,-0.101135254,22.609375,-27.765625,3.921875,65
66,1695742078415,0.041748047,-0.9788208,-0.15484619,-8.15625,-20.671875,-4.984375,66
67,1695742078455,0.09423828,-0.94781494,-0.13189697,-0.84375,-18.203125,-3.671875,67
68,1695742078495,0.032226562,-1.0213013,-0.039855957,-6.0,-28.546875,1.65625,68
69,1695742078535,-0.032226562,-1.0349731,-0.09112549,8.046875,-26.15625,-6.46875,69
70,1695742078575,-0.060546875,-0.93756104,-0.18267822,-1.96875,-27.328125,-2.5625,70
71,1695742078615,0.0041503906,-0.9085083,-0.13018799,-6.796875,-28.03125,-4.953125,71
72,1695742078655,0.06665039,-1.0332642,-0.07965088,-9.25,-21.5625,0.890625,72
73,1695742078695,0.17529297,-1.0239868,0.014343262,-14.453125,-24.609375,6.03125,73
74,1695742078735,0.079589844,-1.0083618,-0.09918213,-11.625,-25.921875,5.265625,74
75,1695742078775,-0.096191406,-1.0801392,-0.037902832,5.109375,-18.28125,10.171875,75
76,1695742078815,-0.28833008,-1.1401978,-0.026916504,-13.609375,-23.96875,-1.078125,76
77,1695742078855,0.07788086,-0.8049927,-0.035949707,-5.140625,-20.15625,9.625,77
78,1695742078895,0.54174805,-1.0151978,0.06048584,-7.515625,-15.96875,11.84375,78
79,1695742078935,0.43164062,-0.99713135,0.27044678,-18.03125,-6.984375,-5.21875,79
80,1695742078975,-0.08959961,-0.8587036,-0.04840088,3.265625,-24.078125,-5.3125,80
81,1695742079015,-0.05029297,-0.9949341,-0.10406494,26.09375,-17.109375,5.140625,81
82,1695742079055,0.1953125,-1.3291626,0.23944092,0.46875,19.09375,27.546875,82
83,1695742079095,0.28442383,-0.8115845,-0.09698486,-11.71875,-0.4375,0.03125,83
84,1695742079135,0.32104492,-0.7979126,0.06341553,-5.453125,4.21875,-1.09375,84
85,1695742079175,0.234375,-0.91119385,0.06121826,-3.234375,-22.671875,0.484375,85
86,1695742079215,0.08544922,-0.8953247,0.0036010742,-20.328125,-27.984375,-3.34375,86
87,1695742079255,0.19116211,-0.9151001,0.14788818,-29.3125,-17.359375,-7.265625,87
88,1695742079295,0.26049805,-1.0210571,0.37713623,7.0,11.265625,-1.046875,88
89,1695742079335,0.3083496,-1.0261841,0.20526123,-0.515625,-15.96875,5.40625,89
90,1695742079375,0.21923828,-0.88531494,0.16937256,-9.546875,-20.046875,2.921875,90
91,1695742079415,0.24121094,-0.97662354,0.10614014,-1.8125,-6.28125,4.40625,91
92,1695742079455,0.19262695,-0.9500122,0.17230225,-12.296875,3.359375,4.109375,92
93,1695742079495,0.21728516,-1.0210571,0.3908081,-9.328125,1.5625,2.890625,93
94,1695742079535,0.13427734,-0.9385376,0.14471436,2.625,-4.1875,-0.15625,94
95,1695742079575,0.2607422,-0.7966919,0.322937,-6.609375,17.421875,-6.5625,95
96,1695742079615,0.087890625,-0.9204712,0.33148193,20.859375,9.59375,3.34375,96
97,1695742079655,0.22583008,-0.9614868,0.13079834,24.25,-17.703125,3.375,97
98,1695742079695,0.053466797,-0.94610596,0.05682373,0.046875,5.453125,-9.328125,98
99,1695742079735,0.11450195,-0.9194946,0.23138428,-18.84375,14.734375,-11.875,99
100,1695742079775,0.040039062,-1.0176392,0.18817139,10.359375,5.375,-13.15625,100
101,1695742079815,0.26220703,-1.2896118,0.082458496,-9.21875,9.078125,5.125,101
102,1695742079855,0.51904297,-1.0950317,0.30389404,-11.765625,10.90625,-2.59375,102
103,1695742079895,0.27539062,-0.8110962,0.24578857,16.1875,0.15625,-16.296875,103
104,1695742079935,0.020751953,-0.7024536,-0.011779785,26.09375,-8.0625,-19.328125,104
105,1695742079975,-0.0146484375,-0.87457275,-0.175354,16.65625,-5.421875,2.625,105
106,1695742080015,0.26757812,-1.1499634,-0.005432129,-27.65625,7.71875,16.25,106
107,1695742080055,0.44018555,-1.197815,0.17132568,-29.65625,14.984375,6.203125,107
108,1695742080095,0.23510742,-0.94854736,0.18255615,10.4375,-1.046875,-7.5,108
109,1695742080135,0.21728516,-0.7234497,0.054626465,0.5625,-5.5625,-9.453125,109
110,1695742080175,0.045898438,-0.8897095,0.13543701,11.734375,-18.921875,-5.734375,110
111,1695742080215,-0.07739258,-1.1199341,-0.007385254,48.828125,-11.734375,0.375,111
112,1695742080255,0.15942383,-1.0349731,-0.17803955,9.8125,-22.484375,-1.1875,112
113,1695742080295,0.2475586,-0.89312744,-0.046447754,-22.28125,-8.90625,-7.265625,113
114,1695742080335,0.118896484,-1.1370239,0.08392334,-16.625,7.640625,4.484375,114
115,1695742080375,0.059814453,-0.97613525,0.20037842,-1.859375,-25.453125,-9.609375,115
116,1695742080415,0.036132812,-0.95147705,-0.07281494,-9.765625,-20.0,2.234375,116
117,1695742080455,0.076416016,-0.99420166,0.010437012,2.84375,-22.109375,1.703125,117
118,1695742080495,0.09716797,-0.960022,0.046569824,-8.78125,-13.21875,-3.640625,118
119,1695742080535,0.096191406,-0.98760986,0.097839355,-12.484375,-13.46875,-2.1875,119
120,1695742080575,0.033935547,-1.0874634,0.059020996,5.140625,-23.328125,4.625,120
121,1695742080615,0.060546875,-1.000061,0.06536865,0.9375,-23.5,3.1875,121
122,1695742080655,0.079833984,-0.9446411,0.028503418,7.6875,-18.40625,3.296875,122
123,1695742080695,0.20898438,-0.925354,0.024108887,12.765625,-29.328125,-5.0625,123
124,1695742080735,-0.025390625,-1.0108032,-0.02520752,7.375,-32.25,5.203125,124
125,1695742080775,-0.1850586,-1.0562134,0.06512451,-25.484375,-22.5625,-7.671875,125
126,1695742080815,0.10107422,-1.0530396,0.1293335,-24.65625,-18.359375,-8.40625,126
127,1695742080855,0.20507812,-1.0200806,0.41619873,8.6875,4.28125,2.15625,127
128,1695742080895,0.19921875,-0.82769775,0.15985107,17.578125,-48.578125,0.5,128
129,1695742080935,0.14135742,-0.84454346,-0.016662598,26.71875,-32.484375,3.34375,129
130,1695742080975,0.01977539,-1.005188,0.018737793,-26.171875,-3.265625,7.421875,130
131,1695742081015,0.18969727,-0.9783325,0.50335693,-11.6875,-19.265625,8.0,131
132,1695742081055,0.07885742,-1.053772,0.12615967,-1.546875,-30.3125,9.1875,132
133,1695742081095,0.15405273,-1.0029907,0.2904663,-9.875,-17.390625,11.03125,133
134,1695742081135,0.16699219,-0.9573364,0.24432373,-2.5,-18.015625,6.25,134
135,1695742081175,0.21313477,-0.9314575,0.30706787,1.078125,-15.65625,5.1875,135
136,1695742081215,0.19604492,-0.9500122,0.22528076,0.65625,-20.625,6.078125,136
137,1695742081255,0.15014648,-0.960022,0.23284912,-6.328125,-22.609375,9.078125,137
138,1695742081295,0.18237305,-0.9685669,0.21942139,6.59375,-27.84375,8.34375,138
139,1695742081335,0.20703125,-0.90631104,0.13397217,7.984375,-28.96875,6.15625,139
140,1695742081375,0.15454102,-0.99664307,0.33026123,10.109375,-15.125,8.5625,140
141,1695742081415,0.18920898,-0.9627075,0.21917725,2.515625,-28.96875,7.984375,141
142,1695742081455,0.15454102,-0.9072876,0.21575928,-10.296875,-7.578125,9.953125,142
143,1695742081495,0.28149414,-0.9859009,0.3439331,4.890625,-4.390625,-3.390625,143
144,1695742081535,0.18530273,-1.0159302,0.38909912,24.578125,-8.25,-3.234375,144
145,1695742081575,0.10058594,-0.90509033,0.2086792,25.359375,-27.125,-0.828125,145
146,1695742081615,0.037841797,-0.90093994,0.19525146,-42.8125,0.0625,7.625,146
147,1695742081655,0.30688477,-0.927063,0.39520264,5.84375,-6.6875,-7.65625,147
148,1695742081695,0.19335938,-0.97540283,0.27264404,4.703125,-15.53125,-9.296875,148
149,1695742081735,0.20361328,-0.9451294,0.24920654,-4.625,-9.59375,-3.09375,149
150,1695742081775,0.26391602,-0.94366455,0.2929077,2.03125,-8.28125,-0.28125,150
151,1695742081815,0.20288086,-0.92926025,0.29852295,-1.921875,-9.359375,-1.53125,151
152,1695742081855,0.14770508,-0.97784424,0.230896,3.84375,-16.15625,-4.5,152
153,1695742081895,0.17578125,-1.0588989,0.12054443,10.1875,-23.859375,-1.765625,153
154,1695742081935,0.21020508,-0.95269775,0.15667725,18.78125,-15.953125,2.796875,154
155,1695742081975,0.24853516,-0.897522,0.22015381,8.0,-7.625,4.515625,155
156,1695742082015,0.061279297,-0.90216064,0.16815186,6.5,-22.8125,5.328125,156
157,1695742082055,-0.029052734,-0.91241455,0.2033081,-9.234375,-0.578125,11.5625,157
158,1695742082095,0.2175293,-1.050354,0.26385498,-5.34375,-6.921875,-2.484375,158
159,1695742082135,0.20043945,-1.1409302,0.3234253,15.296875,2.171875,-9.46875,159
160,1695742082175,0.07446289,-0.9470825,0.1486206,26.015625,-12.953125,-6.875,160
161,1695742082215,0.011230469,-0.89971924,-0.01739502,7.015625,-15.140625,-0.515625,161
162,1695742082255,0.18457031,-0.87579346,0.13470459,-14.046875,5.390625,2.96875,162
163,1695742082295,0.17529297,-0.9932251,0.26654053,5.359375,-8.625,-7.765625,163
164,1695742082335,0.087402344,-1.0349731,0.12176514,1.921875,-18.25,-3.90625,164
165,1695742082375,0.057373047,-0.991272,0.11834717,-2.390625,-6.8125,-4.421875,165
166,1695742082415,0.1171875,-0.9717407,0.1437378,0.5,-3.1875,-10.84375,166
167,1695742082455,0.052001953,-1.008606,0.105163574,13.984375,-11.90625,-3.65625,167
168,1695742082495,0.043945312,-1.00177,0.039978027,1.484375,-6.59375,-2.328125,168
169,1695742082535,0.1315918,-0.9780884,0.1473999,-4.234375,4.125,-0.09375,169
170,1695742082575,0.06225586,-0.95025635,0.06097412,9.515625,-1.53125,0.40625,170
171,1695742082615,0.109375,-1.0303345,0.10369873,5.28125,-0.703125,3.34375,171
172,1695742082655,-0.06982422,-0.9673462,0.074157715,-8.609375,-8.640625,1.265625,172
173,1695742082695,0.076416016,-0.95391846,0.09637451,-7.21875,4.96875,-1.8125,173
174,1695742082735,0.13574219,-1.029602,0.13909912,0.21875,9.109375,-11.125,174
175,1695742082775,0.07446289,-1.048645,0.20062256,16.125,7.4375,-3.171875,175
176,1695742082815,0.026855469,-1.0029907,0.0016479492,20.515625,-12.28125,1.328125,176
177,1695742082855,-0.043945312,-0.9924927,-0.0256958,-4.390625,-2.625,-2.5,177
178,1695742082895,0.03466797,-0.94195557,0.10491943,-1.703125,7.140625,-4.140625,178
179,1695742082935,0.032470703,-1.0037231,0.09051514,9.3125,-11.359375,-4.25,179
180,1695742082975,0.028320312,-1.0210571,-0.022277832,0.0625,-8.828125,2.84375,180
181,1695742083015,0.08618164,-1.0029907,0.10321045,-14.34375,1.609375,-1.1875,181
182,1695742083055,0.025878906,-0.9902954,0.1071167,12.140625,-12.828125,-5.421875,182
183,1695742083095,-0.041259766,-0.9866333,-0.05230713,11.15625,-10.28125,-3.890625,183
184,1695742083135,0.026367188,-0.972229,-0.041809082,-15.6875,0.828125,4.859375,184
185,1695742083175,0.08984375,-1.0098267,0.16448975,-8.25,-3.859375,4.515625,185
186,1695742083215,0.041503906,-1.02594,0.0048217773,-0.1875,-19.65625,-1.15625,186
187,1695742083255,0.033691406,-0.9668579,0.024841309,-23.984375,1.515625,1.3125,187
188,1695742083295,0.032958984,-0.9951782,0.16546631,-5.828125,2.171875,-4.640625,188
189,1695742083335,0.017089844,-1.0640259,0.21038818,8.28125,-3.75,1.5625,189
190,1695742083375,-0.012207031,-1.0032349,0.06121826,19.0625,-12.96875,0.921875,190
191,1695742083415,-0.041503906,-0.99298096,-0.018859863,9.703125,-13.421875,-1.59375,191
192,1695742083455,0.056396484,-0.91363525,0.031188965,-17.828125,1.203125,1.90625,192
193,1695742083495,0.07446289,-0.9841919,0.21673584,-10.234375,-4.953125,-1.53125,193
194,1695742083535,0.0126953125,-1.041565,0.097839355,6.875,-13.390625,-3.046875,194
195,1695742083575,-0.0073242188,-1.0166626,0.04827881,-8.96875,-4.453125,0.765625,195
196,1695742083615,0.08642578,-0.93218994,0.15203857,-11.0,-2.046875,0.34375,196
197,1695742083655,0.068603516,-0.9951782,0.16400146,3.5,-7.515625,-0.578125,197
198,1695742083695,0.025878906,-1.0230103,0.059020996,3.296875,-4.0,-0.078125,198
199,1695742083735,0.06518555,-1.000061,0.09222412,-10.03125,-3.40625,-1.109375,199
200,1695742083775,0.056152344,-0.8987427,0.0848999,-7.234375,11.3125,21.875,200
201,1695742083815,0.19873047,-0.9656372,0.4244995,-11.0,19.078125,7.84375,201
202,1695742083855,0.10571289,-1.1738892,0.28167725,22.515625,-15.203125,-5.484375,202
203,1695742083895,-0.0031738281,-0.9963989,0.054870605,47.5625,3.953125,-2.859375,203
204,1695742083935,0.07128906,-0.80963135,-0.013244629,5.125,-18.046875,8.75,204
205,1695742083975,0.115722656,-0.84698486,0.054870605,-19.96875,-2.34375,6.734375,205
206,1695742084015,0.25952148,-1.0691528,0.25653076,-18.578125,24.609375,11.78125,206
207,1695742084055,0.2548828,-1.4717407,0.57806396,64.765625,36.0,25.265625,207
208,1695742084095,0.14624023,-1.000061,-0.3418579,0.25,-0.953125,-4.296875,208
209,1695742084135,-0.08154297,-0.35162354,-0.20123291,-26.4375,-3.71875,-20.4375,209
210,1695742084175,0.13208008,-0.8257446,0.08782959,-6.046875,9.578125,11.296875,210
211,1695742084215,0.16088867,-1.1228638,0.054626465,-27.359375,-24.265625,-5.234375,211
212,1695742084255,0.2290039,-1.0076294,0.055603027,-29.875,-22.28125,0.109375,212
213,1695742084295,0.0871582,-0.98443604,0.24041748,3.859375,6.59375,3.6875,213
214,1695742084335,0.2253418,-1.0745239,0.21234131,-2.4375,-14.96875,-0.34375,214
215,1695742084375,-0.033447266,-0.9314575,0.030944824,11.96875,-16.078125,-0.890625,215
216,1695742084415,0.13671875,-0.87384033,0.058044434,-29.921875,19.453125,11.78125,216
217,1695742084455,0.38549805,-0.9702759,0.42523193,-25.078125,13.015625,4.484375,217
218,1695742084495,0.059326172,-1.1013794,0.3143921,38.03125,-4.796875,-7.875,218
219,1695742084535,-0.021484375,-1.0435181,-0.013977051,42.046875,-25.578125,-3.40625,219
220,1695742084575,0.032714844,-0.79473877,-0.1404419,0.984375,-15.375,-2.765625,220
221,1695742084615,0.23583984,-0.8987427,0.044128418,-64.578125,27.34375,13.78125,221
222,1695742084655,0.2319336,-1.1091919,0.46136475,3.34375,-10.75,-8.21875,222
223,1695742084695,0.039794922,-1.06427,0.12176514,25.3125,-24.125,-8.09375,223
224,1695742084735,0.052246094,-1.0039673,-0.062561035,-3.453125,-5.203125,-6.015625,224
225,1695742084775,0.1015625,-0.8843384,0.11883545,-35.59375,15.609375,-7.078125,225
226,1695742084815,0.12182617,-0.92022705,0.31195068,4.6875,-1.796875,-8.84375,226
227,1695742084855,0.052978516,-1.078186,0.10223389,1.734375,-5.46875,-1.03125,227
228,1695742084895,0.15356445,-0.9812622,0.1461792,-13.921875,11.625,-1.484375,228
229,1695742084935,0.029541016,-0.98809814,0.25335693,-0.03125,4.921875,-0.875,229
230,1695742084975,0.1352539,-0.8977661,0.14813232,-6.125,-0.375,-19.5625,230
231,1695742085015,0.0078125,-1.0007935,0.30950928,7.328125,7.5625,-10.46875,231
232,1695742085055,-0.025390625,-1.0493774,0.18060303,13.78125,-3.484375,-4.34375,232
233,1695742085095,0.08325195,-0.97979736,0.11004639,0.90625,-7.65625,0.203125,233
234,1695742085135,0.09277344,-0.92022705,0.22039795,-11.90625,3.234375,-9.203125,234
235,1695742085175,0.029785156,-1.0066528,0.2506714,-0.828125,-0.484375,0.15625,235
236,1695742085215,-0.008544922,-1.0298462,0.15863037,-9.890625,-4.3125,2.75,236
237,1695742085255,0.10424805,-1.060852,0.21258545,-9.875,15.71875,-2.34375,237
238,1695742085295,0.13476562,-0.98394775,0.25701904,8.171875,0.15625,-5.234375,238
239,1695742085335,0.049560547,-0.9158325,0.16400146,5.9375,1.25,-1.03125,239
240,1695742085375,0.053222656,-0.93927,0.17401123,-5.703125,1.5,5.421875,240
241,1695742085415,0.08105469,-1.0078735,0.17156982,4.015625,-1.203125,0.9375,241
242,1695742085455,0.06616211,-1.005188,0.1383667,-0.546875,6.46875,2.125,242
243,1695742085495,0.07128906,-0.93829346,0.1864624,-7.34375,8.046875,0.0625,243
244,1695742085535,0.063964844,-0.9585571,0.15838623,0.578125,1.421875,8.078125,244
245,1695742085575,0.079833984,-1.0291138,0.21502686,-13.953125,16.28125,6.8125,245
246,1695742085615,0.14526367,-0.9607544,0.2999878,1.0625,-1.171875,-14.890625,246
247,1695742085655,0.026123047,-1.0042114,0.1876831,19.609375,10.109375,-2.0625,247
248,1695742085695,0.00048828125,-0.96539307,0.18231201,11.390625,6.515625,5.953125,248
249,1695742085735,0.029785156,-1.003479,0.117614746,10.828125,-10.890625,2.828125,249
250,1695742085775,0.024902344,-1.0095825,0.11126709,-5.203125,5.1875,-5.078125,250
251,1695742085815,0.047607422,-0.95098877,0.19866943,-13.4375,0.3125,-0.03125,251
252,1695742085855,0.08154297,-0.95977783,0.17523193,-3.0,-9.28125,4.890625,252
253,1695742085895,0.10522461,-1.0071411,0.09124756,-3.8125,1.53125,2.265625,253
254,1695742085935,0.12207031,-1.0474243,0.20599365,-2.859375,7.703125,2.53125,254
255,1695742085975,0.07446289,-0.98321533,0.16448975,11.890625,-3.75,-4.125,255
256,1695742086015,0.076416016,-0.9248657,0.074401855,0.546875,0.390625,4.03125,256
257,1695742086055,0.1081543,-0.92974854,0.07269287,10.359375,5.265625,2.234375,257
258,1695742086095,0.123046875,-0.99884033,0.14031982,-21.0625,13.578125,17.28125,258
259,1695742086135,0.064208984,-1.0298462,0.28094482,-10.671875,10.671875,4.671875,259
260,1695742086175,0.1262207,-0.9639282,0.18743896,8.1875,-10.796875,-12.84375,260
261,1695742086215,0.052490234,-1.0278931,0.21795654,16.5,9.15625,-9.515625,261
262,1695742086255,0.041015625,-0.8977661,0.13104248,17.21875,-7.90625,1.359375,262
263,1695742086295,0.012939453,-1.0183716,0.050964355,15.359375,-19.4375,-0.203125,263
264,1695742086335,0.014892578,-1.03302,0.028259277,-15.828125,7.953125,-5.140625,264
265,1695742086375,0.07128906,-0.93878174,0.18865967,-35.0,8.390625,-1.421875,265
266,1695742086415,0.05126953,-0.9607544,0.2098999,8.4375,-14.9375,-0.59375,266
267,1695742086455,0.084228516,-1.013977,0.09710693,6.46875,-4.90625,2.75,267
268,1695742086495,0.099609375,-1.0396118,0.16693115,-12.015625,1.125,-3.53125,268
269,1695742086535,0.04663086,-0.98272705,0.15814209,-2.8125,2.09375,-5.296875,269
270,1695742086575,0.08178711,-0.9890747,0.13787842,3.046875,2.671875,0.5625,270
271,1695742086615,0.08666992,-0.9199829,0.08758545,4.953125,-0.515625,1.640625,271
272,1695742086655,0.11767578,-0.94976807,0.05999756,15.734375,3.921875,2.484375,272
273,1695742086695,0.076660156,-1.0889282,0.19598389,-20.859375,10.375,12.9375,273
274,1695742086735,-0.010253906,-0.87872314,0.26800537,4.203125,-6.625,4.3125,274
275,1695742086775,0.09326172,-0.991272,0.019470215,7.78125,-3.9375,-0.8125,275
276,1695742086815,0.18798828,-1.0110474,0.27142334,-20.140625,26.296875,-6.21875,276
277,1695742086855,0.084472656,-1.013977,0.27581787,23.3125,-19.171875,-5.453125,277
278,1695742086895,-0.0234375,-0.99835205,-0.010314941,30.09375,-17.875,-2.65625,278
279,1695742086935,0.039794922,-1.0054321,-0.01739502,-19.140625,4.09375,-3.453125,279
280,1695742086975,0.11791992,-0.8609009,0.24139404,-26.265625,11.984375,-3.421875,280
281,1695742087015,0.07446289,-1.0171509,0.19598389,3.015625,-8.03125,-0.046875,281
282,1695742087055,0.06689453,-1.024231,0.08294678,-7.78125,-6.640625,-0.1875,282
283,1695742087095,0.13549805,-1.0132446,0.22625732,-3.21875,0.65625,1.078125,283
284,1695742087135,0.060058594,-0.98638916,0.15203857,-0.828125,2.84375,-4.65625,284
285,1695742087175,0.056152344,-0.9536743,0.11248779,-5.71875,-1.84375,-0.71875,285
286,1695742087215,0.08227539,-0.96466064,0.14447021,1.0,-1.109375,0.125,286
287,1695742087255,0.10058594,-0.99713135,0.09710693,7.59375,-8.6875,2.40625,287
288,1695742087295,0.1850586,-0.9446411,0.19915771,-2.3125,-0.71875,7.5,288
289,1695742087335,-0.034179688,-0.9800415,0.22357178,-7.859375,-11.625,-1.09375,289
290,1695742087375,-0.0126953125,-0.9932251,0.062683105,1.484375,-10.0,0.609375,290
291,1695742087415,0.1809082,-1.0230103,0.15545654,-17.03125,20.375,2.15625,291
292,1695742087455,0.14282227,-1.0149536,0.36639404,13.375,1.28125,-8.0625,292
293,1695742087495,-0.010253906,-0.9998169,0.109802246,26.828125,-12.359375,0.9375,293
294,1695742087535,-0.021484375,-0.9763794,0.0028686523,1.296875,-2.3125,-1.59375,294
295,1695742087575,0.12670898,-0.93707275,0.1918335,-23.125,5.984375,-0.03125,295
296,1695742087615,0.11254883,-0.9685669,0.22576904,-0.65625,-5.140625,-2.546875,296
297,1695742087655,0.052001953,-1.020813,0.10003662,-3.546875,-3.296875,-0.421875,297
298,1695742087695,0.080322266,-0.9829712,0.19256592,-1.984375,0.28125,1.125,298
299,1695742087735,0.06225586,-0.99713135,0.19598389,7.671875,-5.921875,-1.65625,299
300,1695742087775,0.049072266,-0.9734497,0.070739746,-3.578125,-2.890625,-0.65625,300
301,1695742087815,0.09765625,-0.9717407,0.16986084,-4.984375,5.296875,1.125,301
302,1695742087855,0.11694336,-0.9783325,0.07537842,12.8125,-5.671875,0.28125,302
303,1695742087895,0.0637207,-1.0325317,0.055847168,-11.96875,10.796875,10.0,303
304,1695742087935,0.08251953,-0.8640747,0.3595581,-26.09375,17.359375,8.09375,304
305,1695742087975,0.051513672,-1.031311,0.14642334,8.546875,-14.71875,-0.28125,305
306,1695742088015,0.15112305,-1.0737915,0.20941162,-8.453125,24.296875,-4.859375,306
307,1695742088055,0.076660156,-1.0252075,0.30706787,19.015625,-5.15625,-7.46875,307
308,1695742088095,0.010253906,-0.9043579,0.047790527,31.59375,-15.28125,-2.109375,308
309,1695742088135,0.083496094,-0.9624634,-0.04034424,-12.59375,8.875,2.984375,309
310,1695742088175,0.14160156,-0.94659424,0.31365967,-27.796875,17.9375,-0.140625,310
311,1695742088215,0.052246094,-1.0586548,0.19647217,14.03125,-14.1875,-0.515625,311
312,1695742088255,0.05810547,-1.0134888,0.044128418,6.25,-7.625,-0.328125,312
313,1695742088295,0.12036133,-0.9492798,0.17840576,-18.421875,11.9375,1.609375,313
314,1695742088335,0.107421875,-1.0073853,0.2453003,9.09375,-9.796875,-6.453125,314
315,1695742088375,0.07055664,-0.97320557,0.13006592,-12.734375,2.203125,-0.4375,315
316,1695742088415,0.10595703,-0.9522095,0.06512451,5.671875,-2.765625,-0.375,316
317,1695742088455,0.08618164,-0.99664307,0.12225342,7.71875,-1.78125,5.5625,317
318,1695742088495,0.15014648,-0.93878174,0.2098999,-13.078125,8.125,9.203125,318
319,1695742088535,0.056396484,-1.0454712,0.16546631,3.96875,-2.671875,5.078125,319
320,1695742088575,0.13647461,-0.94122314,0.12542725,-5.859375,8.71875,-4.140625,320
321,1695742088615,0.15600586,-1.0518188,0.31878662,-2.53125,16.78125,-6.78125,321
322,1695742088655,0.008300781,-0.9348755,0.15667725,27.234375,-16.265625,-2.59375,322
323,1695742088695,0.020507812,-1.0293579,-0.035461426,5.65625,-2.796875,-1.828125,323
324,1695742088735,0.13110352,-0.9487915,0.15057373,-22.640625,13.6875,-0.25,324
325,1695742088775,0.15112305,-0.94610596,0.23699951,4.5625,-5.09375,-1.484375,325
326,1695742088815,0.06616211,-1.0105591,0.057556152,7.859375,-4.890625,-1.828125,326
327,1695742088855,0.076416016,-0.97906494,0.15423584,-12.40625,4.546875,-0.296875,327
328,1695742088895,0.06982422,-1.0122681,0.21160889,5.75,-4.96875,-1.953125,328
329,1695742088935,0.051513672,-1.024231,0.058532715,-1.234375,-2.953125,-3.796875,329
330,1695742088975,0.09082031,-0.94537354,0.109558105,-5.890625,-5.203125,-2.4375,330
331,1695742089015,0.122558594,-0.98638916,0.109802246,-0.9375,7.078125,1.59375,331
332,1695742089055,0.13134766,-1.0088501,0.22235107,-11.46875,3.46875,-1.25,332
333,1695742089095,-0.060546875,-0.9800415,0.1395874,1.453125,-15.390625,-3.609375,333
334,1695742089135,0.063964844,-0.9163208,0.1449585,-13.390625,1.875,-1.203125,334
335,1695742089175,0.1809082,-1.0029907,0.22479248,-8.453125,2.578125,-1.484375,335
336,1695742089215,0.07788086,-1.022522,0.21697998,3.96875,-6.96875,-2.03125,336
337,1695742089255,0.01953125,-0.9939575,0.11419678,-0.015625,-0.0625,-0.71875,337
338,1695742089295,0.075683594,-0.9529419,0.20404053,-1.796875,2.46875,-1.453125,338
339,1695742089335,0.048828125,-0.9661255,0.15765381,6.375,-3.71875,-0.96875,339
340,1695742089375,0.06982422,-0.99176025,0.16571045,-4.140625,-0.5625,1.875,340
341,1695742089415,0.06982422,-0.9949341,0.19329834,-0.015625,0.578125,1.5,341
342,1695742089455,0.06665039,-0.9907837,0.18865967,0.75,-3.53125,-0.765625,342
343,1695742089495,0.045166016,-0.97320557,0.1383667,0.125,-0.984375,-0.078125,343
344,1695742089535,0.0034179688,-0.8965454,0.25726318,23.21875,6.1875,6.015625,344
345,1695742089575,0.3491211,-1.5564575,0.2699585,29.984375,39.859375,21.359375,345
346,1695742089615,0.01586914,-0.725647,-0.07354736,-11.296875,-22.640625,-11.578125,346
347,1695742089655,0.076171875,-0.93536377,0.0602417,5.125,3.671875,-7.90625,347
348,1695742089695,0.13671875,-0.92803955,0.18157959,-12.8125,-0.375,4.765625,348
349,1695742089735,0.13867188,-1.0054321,0.046081543,-21.828125,-10.890625,-5.171875,349
350,1695742089775,0.09423828,-0.97076416,0.15057373,-12.453125,-2.40625,-2.328125,350
351,1695742089815,0.04638672,-1.0025024,0.2374878,-5.4375,2.8125,1.625,351
352,1695742089855,0.072265625,-0.99713135,0.1930542,-9.890625,-10.03125,2.25,352
353,1695742089895,0.091552734,-0.95880127,0.15106201,-12.3125,9.1875,-1.3125,353
354,1695742089935,0.1550293,-0.98321533,0.32196045,3.1875,16.53125,0.046875,354
355,1695742089975,0.096191406,-1.0183716,0.25823975,17.453125,-10.78125,3.46875,355
356,1695742090015,-0.0024414062,-1.0491333,0.08465576,10.015625,-12.328125,3.28125,356
357,1695742090055,0.06567383,-0.87579346,0.11395264,-11.6875,1.109375,-1.984375,357
358,1695742090095,0.20507812,-0.93951416,0.28167725,-10.21875,7.765625,-0.3125,358
359,1695742090135,0.09399414,-1.0584106,0.1473999,0.796875,-11.5,-0.484375,359
360,1695742090175,0.1315918,-1.0310669,0.11810303,-15.84375,2.53125,-0.328125,360
361,1695742090215,0.15576172,-0.8779907,0.29364014,-9.6875,6.40625,2.890625,361
362,1695742090255,-0.00390625,-1.0703735,0.18231201,10.4375,9.96875,6.53125,362
363,1695742090295,0.1508789,-0.86798096,0.25701904,-14.40625,7.078125,4.46875,363
364,1695742090335,0.21972656,-1.0408325,0.3703003,15.78125,-2.96875,-7.1875,364
365,1695742090375,0.044921875,-0.99224854,0.17376709,24.03125,-10.859375,-4.84375,365
366,1695742090415,-0.010986328,-0.98101807,0.06976318,3.390625,-17.546875,-4.390625,366
367,1695742090455,0.06225586,-0.85235596,0.045837402,-12.921875,4.875,0.390625,367
368,1695742090495,0.24926758,-1.0703735,0.35614014,-24.4375,22.140625,3.125,368
369,1695742090535,0.13671875,-1.0029907,0.24725342,7.359375,-21.890625,-5.875,369
370,1695742090575,0.05419922,-1.0154419,0.117370605,-3.515625,-3.390625,-0.265625,370
371,1695742090615,0.0847168,-0.8994751,0.19500732,-9.921875,0.609375,-3.265625,371
372,1695742090655,0.088378906,-0.95440674,0.19940186,-2.9375,-0.140625,-1.890625,372
373,1695742090695,-0.0034179688,-1.0271606,0.13226318,-4.234375,6.359375,6.578125,373
374,1695742090735,0.2121582,-0.96417236,0.4315796,-10.734375,19.0625,9.3125,374
375,1695742090775,0.14086914,-0.9898071,0.23553467,13.453125,-16.8125,-10.15625,375
376,1695742090815,0.09692383,-0.8965454,0.15985107,3.859375,7.03125,-8.3125,376
377,1695742090855,-0.0146484375,-1.0088501,0.27508545,12.53125,1.203125,-0.5625,377
378,1695742090895,0.029785156,-1.0256958,0.08416748,14.34375,-8.890625,5.171875,378
379,1695742090935,0.1105957,-0.93756104,0.13861084,-14.578125,6.484375,-2.796875,379
380,1695742090975,0.1381836,-0.96466064,0.3204956,-1.53125,9.625,-1.765625,380
381,1695742091015,0.0715332,-0.9697876,0.20184326,1.734375,-8.6875,1.421875,381
382,1695742091055,0.091552734,-1.0213013,0.1552124,-6.0625,-1.484375,-0.453125,382
383,1695742091095,0.119628906,-0.96466064,0.17156982,-7.40625,1.578125,-1.71875,383
384,1695742091135,0.036865234,-0.99224854,0.1005249,-1.96875,-1.265625,-2.1875,384
385,1695742091175,0.18334961,-0.81256104,0.29534912,-19.3125,26.03125,9.65625,385
386,1695742091215,0.2529297,-1.1152954,0.32781982,10.953125,-2.390625,3.265625,386
387,1695742091255,0.00390625,-1.0046997,0.23577881,28.125,-6.078125,-13.625,387
388,1695742091295,-0.03930664,-0.9883423,0.032409668,13.140625,-7.328125,-6.578125,388
389,1695742091335,0.03564453,-0.8257446,0.07733154,-14.171875,1.609375,9.28125,389
390,1695742091375,0.22998047,-1.0430298,0.24822998,-14.796875,14.59375,7.1875,390
391,1695742091415,0.16748047,-1.0361938,0.29266357,6.734375,-10.1875,-4.75,391
392,1695742091455,0.06762695,-0.9807739,0.12347412,11.375,-8.703125,-4.875,392
393,1695742091495,0.032226562,-0.93707275,0.08319092,-6.890625,0.859375,-0.953125,393
394,1695742091535,0.10180664,-0.954895,0.19744873,-2.421875,5.1875,1.484375,394
395,1695742091575,0.1315918,-1.0542603,0.16448975,0.03125,-1.0,2.34375,395
396,1695742091615,0.12719727,-0.91241455,0.1605835,-4.59375,-1.421875,-4.8125,396
397,1695742091655,0.05517578,-1.06427,0.15570068,-11.5625,9.265625,10.140625,397
398,1695742091695,0.10986328,-0.93096924,0.27752686,-4.984375,5.8125,-2.4375,398
399,1695742091735,0.16210938,-0.97613525,0.21258545,8.90625,-2.546875,-13.796875,399
400,1695742091775,-0.057128906,-0.9614868,0.16131592,16.09375,3.796875,-4.75,400
401,1695742091815,0.055908203,-1.0374146,0.12298584,1.5,0.125,11.625,401
402,1695742091855,0.12670898,-0.9155884,0.15814209,-3.921875,-7.75,-2.265625,402
403,1695742091895,0.11767578,-0.98883057,0.17376709,-3.8125,7.5625,-4.9375,403
404,1695742091935,0.052734375,-0.9819946,0.23651123,-0.1875,-5.625,-0.421875,404
405,1695742091975,0.01977539,-0.9793091,0.11663818,8.921875,-15.28125,1.421875,405
406,1695742092015,0.14550781,-1.0613403,0.14251709,-9.28125,4.671875,2.5625,406
407,1695742092055,0.119384766,-0.9644165,0.22723389,0.515625,3.5625,-4.21875,407
408,1695742092095,0.072021484,-0.9661255,0.16473389,9.03125,-7.125,-3.4375,408
409,1695742092135,0.05493164,-0.96759033,0.09222412,-2.75,-7.0625,2.640625,409
410,1695742092175,0.104003906,-0.9612427,0.13543701,-11.078125,2.40625,0.296875,410
411,1695742092215,0.15942383,-1.0332642,0.20550537,3.609375,5.328125,2.078125,411
412,1695742092255,0.08154297,-0.9768677,0.1329956,8.015625,-5.609375,-1.0,412
413,1695742092295,0.020751953,-0.9456177,0.024353027,-8.03125,14.75,0.90625,413
414,1695742092335,0.08862305,-1.0054321,0.2477417,-31.25,31.546875,24.953125,414
415,1695742092375,0.22851562,-0.913147,0.3920288,-2.21875,-16.546875,-7.578125,415
416,1695742092415,0.07080078,-1.1123657,0.20428467,33.390625,-13.328125,-21.453125,416
417,1695742092455,-0.049072266,-0.9624634,0.101745605,10.671875,3.71875,-0.9375,417
418,1695742092495,0.013671875,-0.8706665,0.1317749,4.859375,-16.0625,10.140625,418
419,1695742092535,0.1706543,-0.93536377,0.013122559,1.921875,2.15625,-2.15625,419
420,1695742092575,0.09350586,-1.0610962,0.22723389,-20.09375,21.90625,0.15625,420
421,1695742092615,0.17041016,-1.2962036,0.5355835,57.71875,25.265625,24.109375,421
422,1695742092655,0.0546875,-0.89801025,-0.4981079,36.515625,29.453125,-13.015625,422
423,1695742092695,-0.084472656,-0.41314697,-0.14898682,-7.0625,-16.359375,-21.75,423
424,1695742092735,0.06274414,-0.8640747,0.013366699,0.421875,11.484375,4.828125,424
425,1695742092775,0.2368164,-1.1746216,0.10028076,-34.1875,-4.375,2.65625,425
426,1695742092815,0.12011719,-0.9546509,-0.0022583008,-26.765625,-19.3125,-1.53125,426
427,1695742092855,0.027832031,-0.9343872,0.17523193,-4.796875,-0.359375,0.640625,427
428,1695742092895,0.16333008,-1.1836548,0.32122803,-10.109375,6.40625,4.390625,428
429,1695742092935,0.010498047,-0.9475708,0.12054443,2.734375,-30.75,-8.59375,429
430,1695742092975,0.041259766,-0.88360596,-0.058898926,-16.921875,3.828125,2.9375,430
431,1695742093015,0.22094727,-1.0667114,0.18939209,-35.15625,15.390625,11.0625,431
432,1695742093055,0.18603516,-0.9434204,0.37786865,-0.03125,3.625,3.375,432
433,1695742093095,0.11279297,-1.1184692,0.18206787,21.140625,-9.875,-10.40625,433
434,1695742093135,-0.049560547,-0.8135376,0.105651855,16.953125,-6.09375,-2.734375,434
435,1695742093175,0.071777344,-1.0071411,0.10491943,-5.359375,-3.609375,7.796875,435
436,1695742093215,0.078125,-0.99591064,0.15545654,-14.25,-2.84375,0.03125,436
437,1695742093255,0.22460938,-1.006897,0.24383545,-18.328125,5.09375,-1.109375,437
438,1695742093295,0.11254883,-0.97198486,0.22772217,4.953125,-11.5625,-4.5,438
439,1695742093335,0.020996094,-0.9927368,0.15350342,2.09375,-2.234375,1.328125,439
440,1695742093375,0.06323242,-1.005188,0.16693115,-9.265625,1.078125,1.078125,440
441,1695742093415,0.15698242,-0.9627075,0.21331787,1.828125,0.171875,-0.609375,441
442,1695742093455,0.15405273,-0.95269775,0.22625732,-2.390625,-3.21875,-1.09375,442
443,1695742093495,0.107177734,-0.99468994,0.19866943,-2.359375,-6.671875,-0.109375,443
444,1695742093535,0.07104492,-0.9846802,0.17034912,-1.6875,-7.421875,0.796875,444
445,1695742093575,0.100097656,-1.0291138,0.15032959,-8.078125,-1.0,-2.6875,445
446,1695742093615,0.029541016,-0.95098877,0.2164917,-12.546875,15.453125,11.09375,446
447,1695742093655,0.23901367,-0.8623657,0.4562378,-9.484375,5.34375,6.0625,447
448,1695742093695,0.125,-1.1018677,0.29779053,24.703125,-27.578125,-13.9375,448
449,1695742093735,-0.025146484,-0.9939575,0.08929443,25.53125,-8.234375,-8.921875,449
450,1695742093775,-0.01586914,-0.80303955,0.14251709,-15.15625,-8.234375,3.34375,450
451,1695742093815,0.18139648,-0.95562744,0.1708374,-8.828125,-5.765625,8.125,451
452,1695742093855,0.115722656,-1.123352,0.31488037,-6.625,6.15625,-5.734375,452
453,1695742093895,0.095703125,-0.9644165,0.2526245,6.078125,-16.515625,-2.3125,453
454,1695742093935,0.08081055,-0.9338989,0.18304443,-2.53125,-5.765625,-1.0625,454
455,1695742093975,0.059326172,-0.9439087,0.21624756,-3.6875,-0.703125,-3.21875,455
456,1695742094015,0.037353516,-1.0010376,0.21868896,-2.359375,-3.046875,2.09375,456
457,1695742094055,0.15795898,-1.0276489,0.26116943,-7.53125,-4.90625,2.21875,457
458,1695742094095,0.09033203,-0.87042236,0.19329834,-1.25,-0.1875,-3.578125,458
459,1695742094135,0.07763672,-1.036438,0.2592163,-3.265625,14.9375,11.765625,459
460,1695742094175,0.15625,-0.9668579,0.3805542,-0.78125,-6.203125,-2.78125,460
461,1695742094215,0.04321289,-1.008606,0.21136475,14.09375,-11.3125,-10.375,461
462,1695742094255,-0.01586914,-0.9812622,0.18841553,6.53125,1.875,2.0,462
463,1695742094295,0.0715332,-0.9385376,0.1930542,-0.015625,-9.65625,-1.78125,463
464,1695742094335,0.09106445,-0.9155884,0.1798706,-4.25,2.5,-3.296875,464
465,1695742094375,0.07714844,-1.017395,0.26605225,-5.328125,-0.078125,0.0625,465
466,1695742094415,0.061279297,-1.0186157,0.24383545,1.5,-5.28125,1.046875,466
467,1695742094455,0.076171875,-0.96051025,0.24261475,0.8125,1.78125,-3.671875,467
468,1695742094495,0.026855469,-0.9727173,0.17010498,3.390625,1.015625,-1.96875,468
469,1695742094535,0.04711914,-0.9800415,0.2218628,-6.21875,7.390625,2.8125,469
470,1695742094575,0.11743164,-0.9763794,0.21868896,-4.984375,-0.125,-2.640625,470
471,1695742094615,0.107421875,-0.9841919,0.23040771,-4.515625,12.09375,-0.40625,471
472,1695742094655,0.01586914,-1.0405884,0.29925537,-2.15625,12.09375,7.78125,472
473,1695742094695,0.15429688,-0.84210205,0.2597046,-1.359375,-2.828125,-3.765625,473
474,1695742094735,0.06591797,-1.0012817,0.2904663,13.796875,7.15625,-12.296875,474
475,1695742094775,-0.032470703,-1.0457153,0.16595459,15.359375,1.78125,1.125,475
476,1695742094815,0.044189453,-0.9578247,0.16571045,-0.4375,-6.5625,-0.75,476
477,1695742094855,0.045166016,-0.92633057,0.13616943,-2.578125,5.25,0.25,477
478,1695742094895,0.064941406,-1.0132446,0.26409912,-7.546875,11.28125,-0.015625,478
479,1695742094935,0.076660156,-1.0154419,0.2411499,-0.4375,-5.53125,-1.8125,479
480,1695742094975,0.05834961,-1.0220337,0.21697998,-3.09375,3.828125,-0.4375,480
481,1695742095015,0.026123047,-0.96343994,0.17962646,7.5625,2.890625,-1.59375,481
482,1695742095055,0.045654297,-0.96759033,0.16497803,-0.703125,2.46875,-2.765625,482
483,1695742095095,0.07788086,-0.9854126,0.19354248,-6.1875,7.8125,-1.34375,483
484,1695742095135,0.1003418,-1.0015259,0.20501709,4.234375,2.359375,-3.109375,484
485,1695742095175,0.061035156,-0.9573364,0.17230225,2.640625,5.0,-3.0625,485
486,1695742095215,0.02319336,-0.97198486,0.17645264,1.71875,4.75,-0.046875,486
487,1695742095255,0.06201172,-1.0003052,0.16375732,5.28125,1.28125,-0.34375,487
488,1695742095295,0.059814453,-0.99053955,0.08416748,9.25,4.25,2.390625,488
489,1695742095335,0.09765625,-1.0039673,0.10491943,-3.78125,14.171875,3.03125,489
490,1695742095375,0.15625,-0.9241333,0.17791748,-13.046875,12.09375,9.015625,490
491,1695742095415,0.0068359375,-0.9595337,0.21160889,-3.390625,12.046875,12.8125,491
492,1695742095455,0.13012695,-1.0776978,0.23065186,-1.40625,-0.546875,-10.828125,492
493,1695742095495,0.12011719,-0.9302368,0.168396,11.34375,4.796875,-8.96875,493
494,1695742095535,0.115234375,-0.9024048,0.15106201,0.78125,-1.65625,0.765625,494
495,1695742095575,0.063964844,-1.0239868,0.13006592,13.03125,-1.90625,6.96875,495
496,1695742095615,0.06616211,-1.0667114,0.10760498,0.890625,5.03125,-4.375,496
497,1695742095655,0.06518555,-0.94659424,0.19476318,-0.34375,-3.03125,-7.40625,497
498,1695742095695,0.059326172,-0.95928955,0.13616943,3.453125,-3.90625,-0.953125,498
499,1695742095735,0.056396484,-0.97198486,0.11468506,-8.59375,-1.125,-0.65625,499
500,1695742095775,0.052001953,-1.0222778,0.15789795,-4.40625,-6.96875,2.875,500
501,1695742095815,0.13623047,-1.0576782,0.17523193,0.875,-3.53125,-0.59375,501
502,1695742095855,0.068359375,-0.91290283,0.07244873,4.046875,-4.421875,-3.6875,502
503,1695742095895,0.095458984,-0.95147705,0.11199951,2.78125,-0.171875,1.203125,503
504,1695742095935,0.001953125,-0.9360962,0.10638428,-13.28125,6.484375,5.140625,504
505,1695742095975,0.17358398,-1.0889282,0.22454834,-19.078125,2.609375,0.640625,505
506,1695742096015,-0.007080078,-1.0427856,0.21136475,0.671875,3.546875,-3.0,506
507,1695742096055,0.08227539,-0.8921509,0.21990967,-2.09375,2.28125,-7.03125,507
508,1695742096095,0.02758789,-0.94903564,0.21868896,12.609375,-0.84375,5.203125,508
509,1695742096135,0.056396484,-0.96466064,0.11199951,9.125,-5.546875,3.65625,509
510,1695742096175,0.01977539,-1.0747681,0.16497803,5.734375,-3.1875,2.75,510
511,1695742096215,0.09033203,-1.0283813,0.16815186,-3.046875,-1.25,-9.59375,511
512,1695742096255,0.0390625,-0.9048462,0.13983154,-8.671875,-2.765625,-8.140625,512
513,1695742096295,0.111572266,-1.0188599,0.18743896,-4.078125,3.53125,5.359375,513
514,1695742096335,0.088378906,-1.0015259,0.21356201,7.453125,-8.640625,-3.265625,514
515,1695742096375,0.010498047,-0.9612427,0.020690918,-12.03125,-0.5,-0.390625,515
516,1695742096415,0.08203125,-0.9302368,0.16619873,1.78125,-0.375,-0.78125,516
517,1695742096455,0.1015625,-0.9351196,0.12371826,3.1875,-3.03125,2.5,517
518,1695742096495,0.075683594,-0.97076416,0.10076904,-11.40625,3.546875,13.109375,518
519,1695742096535,0.092041016,-1.053772,0.34783936,-19.40625,14.03125,7.703125,519
520,1695742096575,0.033203125,-1.0054321,0.20819092,11.703125,-6.875,-9.453125,520
521,1695742096615,0.030029297,-0.96881104,0.18963623,7.5625,7.09375,-6.515625,521
522,1695742096655,-0.00024414062,-0.9854126,0.14593506,8.453125,1.84375,3.0,522
523,1695742096695,0.05493164,-0.9768677,0.15765381,4.265625,-6.609375,3.609375,523
524,1695742096735,0.15039062,-0.9981079,0.15960693,-9.046875,4.0,-3.078125,524
525,1695742096775,0.10546875,-0.9338989,0.26776123,-8.40625,1.359375,-8.578125,525
526,1695742096815,0.0012207031,-0.98883057,0.09686279,8.828125,-10.609375,-2.78125,526
527,1695742096855,0.020751953,-1.005188,0.13397217,-9.953125,-2.390625,1.96875,527
528,1695742096895,0.15283203,-1.0110474,0.20770264,-3.734375,6.984375,-1.59375,528
529,1695742096935,0.067871094,-0.90338135,0.1671753,-1.078125,0.40625,0.6875,529
530,1695742096975,0.040039062,-1.0081177,0.054382324,4.609375,-1.296875,2.78125,530
531,1695742097015,0.044433594,-0.93341064,0.1720581,-28.171875,30.609375,23.140625,531
532,1695742097055,0.15917969,-0.95098877,0.47943115,-5.734375,11.484375,-2.765625,532
533,1695742097095,0.024902344,-1.0950317,0.26068115,30.046875,-20.09375,-17.9375,533
534,1695742097135,-0.12890625,-1.0459595,0.08905029,33.09375,0.8125,-2.96875,534
535,1695742097175,0.008056641,-0.7971802,0.044128418,-7.96875,-14.6875,2.859375,535
536,1695742097215,0.19067383,-1.0071411,0.113220215,-20.75,7.796875,0.359375,536
537,1695742097255,0.12231445,-1.0142212,0.32635498,-20.859375,11.25,-5.40625,537
538,1695742097295,0.047851562,-1.0557251,0.20111084,12.03125,-14.484375,-4.28125,538
539,1695742097335,-0.018554688,-0.958313,0.07757568,0.234375,-0.171875,-0.953125,539
540,1695742097375,0.057128906,-0.9651489,0.121520996,-15.953125,5.15625,-0.5625,540
541,1695742097415,0.092041016,-0.95147705,0.22161865,-1.703125,2.953125,0.53125,541
542,1695742097455,0.10229492,-0.9783325,0.12054443,0.328125,1.421875,4.25,542
543,1695742097495,0.15209961,-1.0310669,0.23309326,-15.125,9.15625,11.0625,543
544,1695742097535,0.041015625,-0.866272,0.3126831,6.765625,-2.921875,-4.25,544
545,1695742097575,0.048583984,-1.017395,0.17352295,6.34375,1.546875,-7.40625,545
546,1695742097615,-0.017822266,-1.0027466,0.23016357,9.3125,12.234375,3.84375,546
547,1695742097655,0.06567383,-1.0025024,0.16009521,16.09375,-17.796875,-0.765625,547
548,1695742097695,0.07836914,-0.96051025,0.04071045,2.546875,0.5625,0.640625,548
549,1695742097735,0.14086914,-0.9170532,0.2670288,-24.234375,14.78125,-1.0,549
550,1695742097775,0.05419922,-0.9939575,0.23602295,3.484375,-18.203125,-2.546875,550
551,1695742097815,-0.009521484,-1.0286255,0.08050537,2.734375,-3.65625,0.03125,551
552,1695742097855,0.02709961,-1.0115356,0.13470459,-17.6875,5.03125,1.828125,552
553,1695742097895,0.14990234,-0.9680786,0.33221436,-4.984375,6.421875,-2.203125,553
554,1695742097935,0.079833984,-0.9517212,0.18206787,5.671875,-5.59375,-4.1875,554
555,1695742097975,0.057373047,-0.97198486,0.16571045,-9.421875,3.640625,0.4375,555
556,1695742098015,0.05883789,-0.9924927,0.2333374,0.203125,-1.96875,-1.734375,556
557,1695742098055,0.038330078,-1.0071411,0.16204834,-0.890625,-1.578125,-2.234375,557
558,1695742098095,0.087890625,-0.9973755,0.12371826,-11.5625,-0.3125,-4.71875,558
559,1695742098135,0.014160156,-0.9944458,0.26263428,-17.921875,19.625,11.0625,559
560,1695742098175,0.13549805,-0.8584595,0.4039917,6.6875,0.234375,-5.359375,560
561,1695742098215,0.013427734,-1.1030884,0.26507568,10.625,-7.109375,-10.453125,561
562,1695742098255,-0.10107422,-0.956604,0.12176514,19.21875,1.09375,2.75,562
563,1695742098295,0.044677734,-0.94854736,0.17596436,-11.34375,-2.203125,3.03125,563
564,1695742098335,0.11230469,-0.95318604,0.21673584,2.0625,5.671875,-0.5625,564
565,1695742098375,0.08691406,-1.0515747,0.28460693,-4.0,3.609375,-5.25,565
566,1695742098415,0.004638672,-0.97979736,0.18035889,10.734375,-7.859375,-3.03125,566
567,1695742098455,0.023925781,-0.97491455,0.15203857,-4.546875,1.625,6.1875,567
568,1695742098495,0.06713867,-0.9561157,0.2321167,2.46875,-6.625,0.34375,568
569,1695742098535,0.064941406,-0.96099854,0.16766357,5.859375,-7.78125,-1.0,569
570,1695742098575,0.037841797,-1.0154419,0.11248779,-1.75,-2.390625,2.25,570
571,1695742098615,0.14648438,-1.0071411,0.16912842,-7.34375,0.140625,-0.015625,571
572,1695742098655,0.013183594,-0.86309814,0.14984131,-6.109375,8.40625,5.734375,572
573,1695742098695,0.118652344,-1.0784302,0.33636475,-11.203125,7.859375,7.578125,573
574,1695742098735,-0.0012207031,-0.97076416,0.2514038,4.390625,-7.625,-9.796875,574
575,1695742098775,0.091552734,-1.0339966,0.23284912,8.46875,5.703125,-7.609375,575
576,1695742098815,0.04711914,-0.94537354,0.1786499,10.203125,-6.6875,4.28125,576
577,1695742098855,0.044921875,-0.9265747,0.15863037,-5.15625,-4.03125,4.109375,577
578,1695742098895,0.040527344,-1.0427856,0.1954956,-6.125,4.4375,-2.984375,578
579,1695742098935,0.034179688,-1.0195923,0.2609253,0.328125,0.5,-5.84375,579
580,1695742098975,0.03149414,-0.9475708,0.20794678,-0.640625,-6.28125,-3.90625,580
581,1695742099015,0.032958984,-0.9697876,0.16766357,-3.3125,-0.140625,1.125,581
582,1695742099055,0.046142578,-1.0012817,0.25872803,1.78125,-4.359375,6.0,582
583,1695742099095,0.04663086,-0.98883057,0.21917725,0.171875,-10.84375,-2.9375,583
584,1695742099135,0.08203125,-0.97491455,0.07684326,1.796875,-3.34375,-3.28125,584
585,1695742099175,0.14550781,-0.98760986,0.14202881,-11.140625,5.515625,1.734375,585
586,1695742099215,0.021972656,-0.9421997,0.25701904,-8.09375,14.015625,7.71875,586
587,1695742099255,0.018798828,-1.0872192,0.3114624,-5.109375,-0.921875,0.234375,587
588,1695742099295,0.009033203,-0.8557739,0.19647217,-0.015625,-1.625,-7.671875,588
589,1695742099335,0.07397461,-1.0588989,0.31365967,6.234375,13.765625,-4.046875,589
590,1695742099375,0.036865234,-0.98516846,0.16644287,16.8125,-4.453125,3.609375,590
591,1695742099415,0.09057617,-0.9690552,0.14813232,-3.0625,-4.0,1.765625,591
592,1695742099455,0.083496094,-0.9607544,0.18988037,-2.1875,3.984375,-2.59375,592
593,1695742099495,0.041015625,-0.99224854,0.2526245,0.84375,2.296875,-3.765625,593
594,1695742099535,0.030517578,-0.9956665,0.16229248,4.484375,-7.984375,0.640625,594
595,1695742099575,0.07910156,-0.98809814,0.1359253,-7.234375,0.390625,1.9375,595
596,1695742099615,0.09057617,-0.9717407,0.21307373,-7.234375,2.546875,-1.578125,596
597,1695742099655,0.026367188,-0.9819946,0.21502686,0.203125,-1.9375,-2.390625,597
598,1695742099695,0.007080078,-1.0654907,0.11639404,-11.375,-3.171875,0.0625,598
599,1695742099735,0.044189453,-0.9031372,0.26019287,-26.0,11.390625,9.375,599
600,1695742099775,0.13085938,-0.8970337,0.35101318,5.546875,0.96875,-2.3125,600
601,1695742099815,0.068847656,-1.1062622,0.31732178,10.765625,-2.921875,-5.25,601
602,1695742099855,0.013427734,-0.98223877,0.17572021,21.203125,-4.1875,7.0625,602
603,1695742099895,0.0036621094,-0.954895,0.1317749,-0.4375,-13.828125,0.671875,603
604,1695742099935,0.08691406,-0.9312134,0.12200928,-2.09375,6.390625,1.5625,604
605,1695742099975,0.12768555,-1.0215454,0.3480835,-7.796875,3.9375,-0.140625,605
606,1695742100015,0.064941406,-0.9780884,0.21575928,2.34375,-21.28125,0.5625,606
607,1695742100055,0.035888672,-1.0100708,0.13934326,-5.578125,-8.1875,5.78125,607
608,1695742100095,0.06591797,-0.97247314,0.25091553,-5.5625,-7.9375,1.34375,608
609,1695742100135,0.07006836,-0.9446411,0.19720459,0.421875,-15.53125,-0.375,609
610,1695742100175,0.078125,-0.9819946,0.19622803,-6.875,-13.578125,3.609375,610
611,1695742100215,0.09448242,-0.98101807,0.23626709,2.875,-16.015625,5.65625,611
612,1695742100255,0.038330078,-1.0176392,0.13470459,-1.765625,-18.6875,2.890625,612
613,1695742100295,0.080566406,-0.91851807,0.32757568,-14.28125,1.96875,15.875,613
614,1695742100335,0.15209961,-0.9649048,0.2658081,12.0625,-15.8125,-0.421875,614
615,1695742100375,0.06347656,-1.0271606,0.3060913,10.65625,-16.546875,-3.703125,615
616,1695742100415,0.022216797,-0.99298096,0.14251709,26.640625,-26.296875,8.828125,616
617,1695742100455,0.075683594,-0.8689575,0.16815186,-3.4375,-35.9375,2.46875,617
618,1695742100495,0.068603516,-0.98516846,0.18011475,-2.390625,-26.921875,6.96875,618
619,1695742100535,0.19458008,-1.0586548,0.33026123,-26.640625,-13.5625,6.234375,619
620,1695742100575,0.15161133,-0.9475708,0.30706787,13.640625,-36.9375,2.046875,620
621,1695742100615,0.07788086,-0.96881104,0.17596436,18.4375,-28.15625,0.96875,621
622,1695742100655,-0.0146484375,-0.9612427,0.12860107,-3.578125,-21.359375,-0.03125,622
623,1695742100695,0.055908203,-0.940979,0.27679443,-20.15625,-7.890625,4.671875,623
624,1695742100735,0.08496094,-1.0401001,0.262146,1.0625,-11.46875,-1.421875,624
625,1695742100775,0.061523438,-0.9812622,0.246521,-7.828125,-8.71875,-0.875,625
626,1695742100815,0.0012207031,-0.9805298,0.30340576,-4.84375,-12.84375,3.25,626
627,1695742100855,0.072021484,-0.8994751,0.27996826,-6.140625,11.03125,0.890625,627
628,1695742100895,0.114990234,-1.0984497,0.20941162,2.78125,9.453125,1.9375,628
629,1695742100935,0.41455078,-1.0459595,0.4225464,1.328125,31.109375,-8.859375,629
630,1695742100975,-0.04638672,-0.75128174,0.3649292,14.875,11.703125,-26.15625,630
631,1695742101015,-0.35986328,-0.8796997,0.12591553,19.96875,21.5625,9.421875,631
632,1695742101055,0.03857422,-0.94537354,0.3258667,-16.359375,25.609375,31.546875,632
633,1695742101095,0.14379883,-1.367981,0.55755615,55.96875,-2.984375,18.1875,633
634,1695742101135,0.15576172,-0.7449341,-0.6589966,32.765625,35.34375,-19.515625,634
635,1695742101175,0.61035156,-0.5418091,0.28070068,-70.65625,61.671875,-14.921875,635
636,1695742101215,-0.14672852,-0.925354,0.03314209,16.765625,-7.75,-5.21875,636
637,1695742101255,-0.043945312,-0.9595337,-0.04937744,4.265625,-10.140625,11.453125,637
638,1695742101295,0.12719727,-0.98150635,0.050231934,-50.390625,12.0,11.234375,638
639,1695742101335,0.32202148,-1.1931763,0.6679077,8.71875,34.6875,-13.0625,639
640,1695742101375,0.09741211,-1.0845337,0.18255615,6.71875,6.09375,-7.9375,640
641,1695742101415,0.08178711,-0.8953247,0.012878418,-23.25,16.21875,-6.546875,641
642,1695742101455,0.34838867,-0.8933716,0.32904053,-29.15625,45.546875,10.4375,642
643,1695742101495,0.32055664,-0.90875244,0.47528076,-1.6875,-10.09375,-3.765625,643
644,1695742101535,0.04272461,-1.097229,0.2531128,18.015625,8.59375,-14.703125,644
645,1695742101575,-0.0053710938,-0.9258423,0.14202881,2.40625,8.109375,1.265625,645
646,1695742101615,0.10644531,-0.7185669,0.17279053,-6.625,-1.0625,14.859375,646
647,1695742101655,0.23852539,-1.1052856,0.2982788,-17.21875,25.640625,6.78125,647
648,1695742101695,0.23339844,-1.0715942,0.41033936,4.3125,-5.109375,-8.109375,648
649,1695742101735,0.1508789,-0.83258057,0.26287842,8.875,-11.484375,-1.34375,649
650,1695742101775,0.12866211,-0.9089966,0.18719482,2.921875,3.359375,10.046875,650
651,1695742101815,0.20947266,-0.9536743,0.2741089,-11.546875,4.390625,-1.375,651
652,1695742101855,0.18945312,-0.91192627,0.38226318,2.46875,3.28125,-2.828125,652
653,1695742101895,0.21704102,-0.9529419,0.27288818,19.953125,-5.65625,1.46875,653
654,1695742101935,0.26660156,-0.97662354,0.19134521,-1.640625,-11.8125,-6.234375,654
655,1695742101975,0.13891602,-0.9434204,0.2831421,-6.90625,14.859375,-7.375,655
656,1695742102015,0.13623047,-1.0252075,0.3143921,0.5625,-10.6875,-6.984375,656
657,1695742102055,-0.0068359375,-1.053772,0.25701904,15.421875,-3.546875,2.984375,657
658,1695742102095,0.034423828,-0.87628174,0.1774292,6.21875,5.109375,7.90625,658
659,1695742102135,0.024169922,-0.9085083,0.16229248,4.578125,-8.734375,0.109375,659
660,1695742102175,0.21704102,-0.9529419,0.15570068,-11.203125,5.5,-0.171875,660
661,1695742102215,0.32958984,-1.0567017,0.34051514,-1.1875,-7.890625,-4.09375,661
662,1695742102255,0.123046875,-0.9951782,0.11883545,7.96875,-16.78125,-12.53125,662
663,1695742102295,-0.076416016,-0.9036255,0.04510498,7.15625,-1.21875,-9.625,663
664,1695742102335,0.0036621094,-0.9602661,0.10418701,-12.296875,10.71875,-1.953125,664
665,1695742102375,0.16967773,-1.0054321,0.22625732,-5.828125,4.0,-5.75,665
666,1695742102415,0.18701172,-0.98687744,0.14910889,14.484375,-0.34375,-6.4375,666
667,1695742102455,-0.028808594,-1.0232544,-0.0335083,17.84375,16.8125,6.53125,667
668,1695742102495,0.28735352,-0.9204712,0.30462646,-24.390625,35.625,3.125,668
669,1695742102535,0.0087890625,-1.0715942,0.22332764,12.15625,-23.46875,-16.0,669
670,1695742102575,-0.09350586,-0.98638916,0.0289917,20.28125,-1.234375,-16.25,670
671,1695742102615,0.026123047,-1.0046997,0.026794434,6.484375,12.96875,9.921875,671
672,1695742102655,0.14868164,-0.86846924,0.06390381,3.296875,-9.046875,-1.921875,672
673,1695742102695,0.08569336,-1.0105591,0.04949951,0.609375,6.5,-7.515625,673
674,1695742102735,-0.046875,-1.0418091,0.13690186,-10.4375,5.078125,-7.421875,674
675,1695742102775,-0.03955078,-1.0071411,0.117126465,-8.78125,-12.5625,-2.796875,675
676,1695742102815,0.026855469,-1.0078735,0.034851074,-10.5,-0.71875,2.078125,676
677,1695742102855,0.091308594,-1.0476685,0.16229248,1.15625,12.171875,1.6875,677
678,1695742102895,0.05834961,-0.92388916,0.13201904,20.671875,-2.171875,-8.171875,678
679,1695742102935,-0.08300781,-0.9348755,-0.05206299,19.5,2.625,-6.15625,679
680,1695742102975,-0.040771484,-0.99176025,-0.054748535,-12.484375,16.359375,0.140625,680
681,1695742103015,0.076416016,-1.065979,0.09222412,-3.40625,19.375,3.9375,681
682,1695742103055,0.064697266,-1.0095825,-0.045959473,25.765625,3.390625,6.078125,682
683,1695742103095,0.29956055,-0.9727173,0.1449585,-16.546875,32.796875,10.09375,683
684,1695742103135,-0.025878906,-0.8921509,0.23846436,7.703125,-8.71875,-24.34375,684
685,1695742103175,-0.19726562,-0.95440674,-0.028381348,31.359375,-9.921875,-13.984375,685
686,1695742103215,-0.13867188,-0.8699341,-0.07183838,-14.484375,18.25,30.75,686
687,1695742103255,0.2548828,-1.0994263,0.13421631,-20.421875,12.625,7.8125,687
688,1695742103295,0.10180664,-1.0588989,0.07684326,6.65625,-5.75,-12.5,688
689,1695742103335,0.013671875,-0.9968872,0.0018920898,-0.9375,2.09375,-1.296875,689
690,1695742103375,0.013183594,-0.9378052,0.105407715,-3.828125,-3.375,5.359375,690
691,1695742103415,0.033447266,-1.0440063,-0.0044555664,11.375,-4.59375,1.421875,691
692,1695742103455,0.0063476562,-1.0213013,-0.055725098,-6.390625,3.03125,-6.21875,692
693,1695742103495,0.020263672,-1.0027466,0.061462402,-14.421875,5.0,-0.015625,693
694,1695742103535,-0.012939453,-0.9763794,0.036315918,-1.796875,1.46875,-0.671875,694
695,1695742103575,0.046875,-0.9873657,0.01776123,-9.046875,1.515625,2.96875,695
696,1695742103615,0.027832031,-1.0254517,0.04119873,3.53125,-5.3125,4.90625,696
697,1695742103655,0.022705078,-1.0808716,0.10662842,-25.984375,14.609375,8.078125,697
698,1695742103695,0.060791016,-0.94537354,0.24359131,-19.015625,-10.546875,-13.109375,698
699,1695742103735,0.0007324219,-0.9751587,0.15130615,9.484375,-11.71875,-18.296875,699
700,1695742103775,-0.068359375,-0.97735596,0.13641357,5.5625,1.390625,9.421875,700
701,1695742103815,-0.042236328,-0.9807739,0.06561279,0.53125,-15.84375,5.9375,701
702,1695742103855,0.061279297,-0.9998169,0.054138184,-9.640625,-6.203125,-14.484375,702
703,1695742103895,-0.041503906,-0.9624634,0.16497803,-6.921875,10.203125,2.390625,703
704,1695742103935,0.010009766,-0.92315674,0.22991943,-0.953125,-16.53125,6.0,704
705,1695742103975,0.09643555,-1.0298462,0.09613037,7.953125,-9.984375,2.625,705
706,1695742104015,0.0056152344,-1.0371704,0.06732178,1.375,3.203125,-4.0,706
707,1695742104055,-0.020019531,-0.9763794,0.1359253,4.953125,-8.3125,-1.484375,707
708,1695742104095,0.043701172,-1.0022583,0.109802246,0.46875,-4.28125,-0.109375,708
709,1695742104135,0.07861328,-0.9356079,0.1798706,-18.03125,9.15625,0.0625,709
710,1695742104175,0.07495117,-0.9710083,0.13543701,3.625,-4.015625,0.015625,710
711,1695742104215,0.014160156,-1.0188599,0.11907959,-1.703125,-1.296875,1.0,711
712,1695742104255,0.06689453,-0.9163208,0.17669678,-2.859375,-1.34375,-0.78125,712
713,1695742104295,0.05419922,-0.9837036,0.1864624,-0.125,-1.6875,-1.1875,713
714,1695742104335,0.033691406,-0.98394775,0.1774292,-1.65625,-4.0,1.328125,714
715,1695742104375,0.059570312,-0.9968872,0.14007568,-4.671875,-4.203125,-0.4375,715
716,1695742104415,0.02734375,-0.97857666,0.15447998,-1.109375,-0.828125,0.09375,716
717,1695742104455,0.111083984,-1.0093384,0.046081543,0.75,-7.0625,3.890625,717
718,1695742104495,0.09448242,-0.9109497,0.26971436,-34.09375,24.921875,6.453125,718
719,1695742104535,0.045166016,-1.0256958,0.25628662,8.140625,-13.625,-8.5,719
720,1695742104575,-0.03173828,-1.0994263,0.116882324,15.71875,11.015625,-0.109375,720
721,1695742104615,0.09790039,-0.87677,0.23626709,-0.046875,1.4375,5.265625,721
722,1695742104655,0.052001953,-0.9915161,0.1473999,2.765625,-9.515625,0.640625,722
723,1695742104695,0.14038086,-1.031311,0.15863037,8.96875,6.65625,-2.53125,723
724,1695742104735,0.06298828,-0.95806885,0.1642456,-7.28125,-2.109375,-1.90625,724
725,1695742104775,0.05908203,-0.96417236,0.15008545,-9.03125,-6.484375,2.234375,725
726,1695742104815,0.08642578,-0.9829712,0.19207764,-4.921875,-5.25,1.53125,726
727,1695742104855,0.103759766,-1.0003052,0.18426514,-5.375,-4.046875,1.5625,727
728,1695742104895,0.11230469,-0.96710205,0.14227295,-5.046875,-3.203125,2.296875,728
729,1695742104935,0.0390625,-1.0137329,0.18109131,-7.265625,-1.796875,6.859375,729
730,1695742104975,0.11328125,-0.9138794,0.16595459,-5.125,-3.796875,7.5,730
731,1695742105015,0.11010742,-1.0025024,0.32562256,-8.5625,-2.25,3.5625,731
732,1695742105055,0.103759766,-0.98443604,0.24725342,4.484375,-8.609375,-5.90625,732
733,1695742105095,0.01953125,-1.0491333,0.24310303,11.84375,8.109375,5.328125,733
734,1695742105135,0.05126953,-0.95684814,0.109313965,9.890625,-4.0,4.84375,734
735,1695742105175,0.091552734,-1.0308228,0.2333374,-3.453125,-9.84375,3.328125,735
736,1695742105215,0.1171875,-0.95147705,0.21160889,4.515625,1.96875,-2.453125,736
737,1695742105255,0.10888672,-0.9053345,0.22918701,-5.78125,-1.828125,-1.265625,737
738,1695742105295,0.071777344,-0.96881104,0.18963623,-14.59375,-5.421875,-0.78125,738
739,1695742105335,0.056640625,-1.0286255,0.22991943,-4.296875,-5.25,3.875,739
740,1695742105375,0.08935547,-1.008606,0.215271,-5.859375,-5.578125,1.59375,740
741,1695742105415,0.11816406,-0.9429321,0.22015381,-3.03125,-3.828125,-0.921875,741
742,1695742105455,0.099121094,-0.95098877,0.18353271,-3.234375,0.625,1.078125,742
743,1695742105495,0.05834961,-0.9883423,0.1984253,7.09375,-3.5625,3.328125,743
744,1695742105535,0.0925293,-0.9673462,0.18353271,3.328125,-5.21875,1.828125,744
745,1695742105575,0.04345703,-1.0371704,0.22698975,0.203125,-3.859375,4.578125,745
746,1695742105615,0.09106445,-0.8904419,0.23822021,-3.8125,-1.421875,5.171875,746
747,1695742105655,0.088378906,-0.97198486,0.246521,-9.140625,-2.734375,-1.265625,747
748,1695742105695,0.07861328,-1.0535278,0.27752686,2.890625,6.25,-5.0625,748
749,1695742105735,0.033447266,-1.0271606,0.2164917,17.328125,-5.109375,-4.28125,749
750,1695742105775,0.053710938,-0.93048096,0.1395874,-10.4375,-1.796875,3.125,750
751,1695742105815,0.1274414,-0.97906494,0.22991943,3.703125,0.953125,-2.59375,751
752,1695742105855,0.12963867,-0.93096924,0.230896,-2.578125,-2.96875,-2.828125,752
753,1695742105895,0.044677734,-0.97491455,0.22015381,-3.359375,-7.265625,-0.25,753
754,1695742105935,0.072021484,-1.015686,0.21575928,0.1875,-9.359375,-0.1875,754
755,1695742105975,0.029785156,-0.9468384,0.3217163,12.71875,1.109375,1.75,755
756,1695742106015,0.0036621094,-1.4695435,0.4081421,56.84375,30.765625,27.71875,756
757,1695742106055,0.4230957,-0.77593994,-0.17047119,-25.0,-20.890625,-8.203125,757
758,1695742106095,0.14355469,-0.5042114,0.06317139,8.109375,12.28125,-20.546875,758
759,1695742106135,0.016845703,-0.95635986,0.06829834,1.71875,-18.703125,1.3125,759
