,timestamp,accel_x,accel_y,accel_z,gyro_x,gyro_y,gyro_z,ind
0,1695774159483,-0.28125,-1.6924438,0.31951904,18.125,92.25,-10.03125,0
1,1695774159523,-0.68725586,-1.4373169,0.27093506,16.984375,95.265625,17.015625,1
2,1695774159563,-0.5986328,-0.89141846,0.06976318,-20.53125,13.421875,-12.3125,2
3,1695774159603,0.044189453,-1.0828247,0.27947998,-30.0625,-6.375,8.203125,3
4,1695774159643,0.09082031,-0.7180786,0.47332764,16.453125,40.96875,49.5,4
5,1695774159683,0.032470703,-0.035949707,-0.20123291,8.4375,-26.84375,46.6875,5
6,1695774159723,-0.15966797,0.2411499,0.012145996,-6.65625,-34.046875,4.109375,6
7,1695774159763,0.30932617,-0.06427002,-0.4138794,-50.25,-45.125,-4.09375,7
8,1695774159803,-0.39135742,-1.0171509,0.19720459,32.5625,23.734375,-23.953125,8
9,1695774159843,-0.38061523,-1.9871216,1.3656616,-12.25,-84.890625,44.578125,9
10,1695774159883,-0.33984375,-1.7774048,-0.3291626,-42.390625,-41.4375,23.296875,10
11,1695774159923,-0.71875,-0.94195557,0.2970581,30.875,-52.546875,7.609375,11
12,1695774159963,-0.23925781,-0.9849243,0.2736206,25.03125,-9.125,-58.234375,12
13,1695774160003,-0.040039062,-0.69659424,0.3287964,-20.78125,-69.890625,-28.125,13
14,1695774160043,0.053222656,-0.24517822,0.19744873,9.21875,41.328125,-22.03125,14
15,1695774160083,0.016601562,0.31170654,-0.19415283,1.8125,17.234375,-15.125,15
16,1695774160123,-0.38598633,0.6100464,-0.13555908,31.0,-7.9375,-8.109375,16
17,1695774160163,-0.31445312,-0.29473877,-0.2695923,-39.703125,55.546875,-33.859375,17
18,1695774160203,-2.0,-2.0,0.034606934,-207.34375,19.921875,7.0625,18
19,1695774160243,1.1489258,-2.0,0.5890503,73.859375,169.65625,5.703125,19
20,1695774160283,-0.9650879,-1.4265747,0.69158936,-25.125,85.671875,16.453125,20
21,1695774160323,-0.7512207,-0.8921509,0.0028686523,10.21875,-13.78125,29.640625,21
22,1695774160363,0.018798828,-1.458313,0.20477295,-34.421875,29.015625,-26.265625,22
23,1695774160403,0.18579102,-1.1348267,0.5582886,-2.21875,15.59375,41.390625,23
24,1695774160443,0.23461914,0.08050537,-0.2498169,37.6875,-13.921875,58.875,24
25,1695774160483,-0.27270508,0.3287964,-0.09063721,-5.53125,-32.109375,4.1875,25
26,1695774160523,-0.19873047,0.26312256,-0.05206299,-32.0625,-30.4375,-7.96875,26
27,1695774160563,0.06958008,-0.16339111,-0.29864502,-70.296875,-42.65625,-22.75,27
28,1695774160603,1.999939,-2.0,0.17449951,143.54688,-211.46875,-19.390625,28
29,1695774160643,0.41796875,-1.9102173,0.14471436,-6.1875,2.765625,7.21875,29
30,1695774160683,-0.7766113,-1.5918579,-0.10430908,-16.375,-49.078125,73.328125,30
31,1695774160723,-0.92163086,-0.4492798,0.9125366,61.390625,-47.46875,-26.6875,31
32,1695774160763,0.031982422,-1.7161255,0.14398193,-86.234375,-116.6875,-74.875,32
33,1695774160803,-0.5097656,-0.50567627,0.39422607,-26.0625,-7.859375,-38.828125,33
34,1695774160843,0.12402344,-0.2720337,0.022888184,26.515625,84.984375,-36.6875,34
35,1695774160883,0.1459961,0.48797607,-0.27764893,22.625,2.234375,-4.5625,35
36,1695774160923,-0.2241211,0.88690186,-0.144104,-8.421875,-17.03125,-5.046875,36
37,1695774160963,-0.26049805,-0.47833252,-0.10699463,-49.75,15.078125,-2.96875,37
38,1695774161003,-2.0,-2.0,0.75042725,-56.34375,30.359375,8.078125,38
39,1695774161043,0.2277832,-2.0,0.22601318,57.265625,114.421875,29.515625,39
40,1695774161083,-0.9904785,-1.5457153,0.98187256,25.859375,109.96875,21.34375,40
41,1695774161123,-0.60375977,-0.67193604,0.12713623,-6.984375,27.578125,3.75,41
42,1695774161163,0.09008789,-1.0691528,0.005554199,-50.875,-19.984375,-22.140625,42
43,1695774161203,0.23510742,-0.9649048,0.96551514,5.421875,-14.546875,47.46875,43
44,1695774161243,0.40185547,0.15618896,-0.7295532,24.1875,-47.28125,66.9375,44
45,1695774161283,-0.43603516,0.27703857,-0.18292236,5.890625,-38.25,-8.828125,45
46,1695774161323,-0.26635742,0.4179077,-0.3040161,-22.171875,-42.8125,-20.25,46
47,1695774161363,0.0061035156,-0.003967285,0.1227417,-40.109375,-35.078125,-36.859375,47
48,1695774161403,0.47631836,-2.0,1.999939,-42.328125,-276.73438,72.609375,48
49,1695774161443,0.09375,-2.0,0.0119018555,-33.171875,8.609375,34.375,49
50,1695774161483,-1.1088867,-1.1218872,0.31170654,22.109375,-125.90625,49.6875,50
51,1695774161523,-0.51953125,-1.0930786,0.36688232,28.90625,-5.640625,-86.171875,51
52,1695774161563,-0.27294922,-0.92388916,0.75286865,-28.15625,-93.515625,-31.84375,52
53,1695774161603,-0.27929688,-0.78912354,0.5162964,-10.8125,19.1875,-38.03125,53
54,1695774161643,-0.037841797,0.1618042,-0.3057251,4.34375,82.40625,3.25,54
55,1695774161683,-0.3203125,1.1488647,-0.7439575,40.59375,-39.609375,-9.140625,55
56,1695774161723,-0.14355469,-0.31134033,-0.31280518,-80.75,-14.25,-58.671875,56
57,1695774161763,0.10083008,-2.0,-0.7234497,-38.5,-6.578125,60.234375,57
58,1695774161803,0.099853516,-1.6853638,1.9291382,13.0,89.265625,48.140625,58
59,1695774161843,-1.1860352,-1.517395,0.016784668,-35.859375,62.375,16.59375,59
60,1695774161883,-0.6640625,-1.0442505,-0.059387207,19.484375,29.5625,-14.953125,60
61,1695774161923,-0.052978516,-1.3618774,-0.033996582,7.515625,41.046875,-21.40625,61
62,1695774161963,0.71972656,-1.519104,0.7106323,-5.09375,-4.9375,38.953125,62
63,1695774162003,0.22265625,-0.63116455,-0.13458252,10.984375,28.078125,81.125,63
64,1695774162043,-0.4609375,0.3270874,0.25286865,-3.78125,-85.546875,26.3125,64
65,1695774162083,-0.20825195,0.41644287,-0.17486572,4.015625,-33.75,-17.84375,65
66,1695774162123,0.030517578,0.2897339,-0.4019165,-65.171875,-25.640625,-32.828125,66
67,1695774162163,0.1262207,-1.4771118,0.17059326,11.671875,-27.015625,-27.578125,67
68,1695774162203,-0.71899414,-1.6399536,1.0297241,-28.6875,-118.25,95.546875,68
69,1695774162243,-0.32495117,-1.8584595,-0.13702393,-24.953125,23.453125,25.46875,69
70,1695774162283,-0.9008789,-0.73101807,0.42279053,17.640625,-77.203125,-29.84375,70
71,1695774162323,0.26513672,-2.0,0.046081543,-19.375,-37.921875,-66.515625,71
72,1695774162363,-0.30444336,-0.66778564,0.84124756,-38.578125,-24.140625,-23.40625,72
73,1695774162403,-0.12890625,-0.39263916,0.20941162,28.78125,65.4375,-8.375,73
74,1695774162443,-0.057373047,0.34173584,-0.5161743,16.203125,43.28125,-7.375,74
75,1695774162483,-0.14160156,1.043396,-0.22515869,19.75,-57.140625,-32.78125,75
76,1695774162523,-0.08520508,-0.7156372,-0.31329346,-21.28125,30.6875,-9.125,76
77,1695774162563,-0.7163086,-2.0,-1.3206177,-95.84375,10.265625,67.859375,77
78,1695774162603,0.23022461,-1.477356,1.7035522,52.296875,124.046875,50.09375,78
79,1695774162643,-0.7463379,-1.6436157,-0.03717041,-14.0,109.171875,21.046875,79
80,1695774162683,-0.6044922,-1.0420532,0.003112793,11.765625,-7.109375,9.078125,80
81,1695774162723,0.09814453,-1.538147,-0.06011963,-11.875,22.265625,-28.90625,81
82,1695774162763,0.47387695,-1.2839966,0.838562,-22.9375,2.21875,23.28125,82
83,1695774162803,0.4482422,-0.3579712,-0.10284424,24.4375,31.296875,71.53125,83
84,1695774162843,-0.48632812,0.5084839,0.019958496,-12.109375,-39.421875,0.90625,84
85,1695774162883,-0.32421875,0.42279053,-0.18927002,-10.515625,-47.265625,-27.5625,85
86,1695774162923,0.024902344,0.14324951,-0.31011963,-66.90625,-12.234375,-37.609375,86
87,1695774162963,-1.2329102,-2.0,0.7394409,-57.125,86.890625,-104.078125,87
88,1695774163003,-0.5358887,-1.147522,1.2389526,4.59375,33.40625,37.328125,88
89,1695774163043,-0.6064453,-1.8269653,-0.023986816,-39.671875,-49.234375,26.21875,89
90,1695774163083,-0.7114258,-0.7632446,0.6508179,53.3125,-8.78125,-66.328125,90
91,1695774163123,0.12524414,-1.7166138,0.3390503,-65.234375,-133.82812,-41.171875,91
92,1695774163163,-0.41088867,-0.5198364,0.5704956,-23.921875,33.46875,-23.5625,92
93,1695774163203,0.030273438,-0.16070557,-0.0051879883,17.78125,60.171875,-10.875,93
94,1695774163243,-0.099365234,0.45550537,-0.4817505,21.875,15.859375,-8.875,94
95,1695774163283,-0.092041016,0.9279175,-0.24615479,20.75,7.015625,-45.984375,95
96,1695774163323,0.013183594,-0.75201416,-0.116760254,-21.5,13.53125,0.421875,96
97,1695774163363,-0.60009766,-2.0,0.5739136,316.95312,-204.39062,116.78125,97
98,1695774163403,-0.43139648,-2.0,-0.3015747,3.640625,171.75,28.28125,98
99,1695774163443,-0.7973633,-1.0552368,0.3932495,49.234375,73.28125,15.625,99
100,1695774163483,-0.33862305,-1.1643677,0.07220459,-2.375,38.078125,-40.296875,100
101,1695774163523,0.053955078,-0.87384033,0.39959717,-45.6875,-40.71875,-0.515625,101
102,1695774163563,0.30908203,-1.0562134,0.51116943,40.984375,97.65625,34.421875,102
103,1695774163603,0.1772461,0.16986084,-0.6055298,-5.109375,-33.453125,60.03125,103
104,1695774163643,-0.43554688,0.4393921,0.03753662,-6.8125,-45.296875,-13.28125,104
105,1695774163683,-0.052490234,0.43084717,-0.12188721,-15.390625,-11.671875,-24.859375,105
106,1695774163723,0.009765625,-0.08770752,-0.23638916,-27.0,-2.859375,-53.359375,106
107,1695774163763,1.999939,-2.0,0.18865967,113.21875,-294.35938,75.234375,107
108,1695774163803,0.052978516,-2.0,0.22918701,-4.6875,51.359375,25.203125,108
109,1695774163843,-0.67211914,-1.4060669,0.31707764,11.671875,-79.78125,37.8125,109
110,1695774163883,-0.3852539,-1.1543579,0.3378296,27.984375,-6.453125,-65.390625,110
111,1695774163923,-0.29370117,-1.2520142,0.40594482,-48.125,-102.5,-28.859375,111
112,1695774163963,-0.6220703,-0.39752197,0.5297241,0.5,59.703125,-34.484375,112
113,1695774164003,0.09399414,0.19671631,-0.36065674,39.640625,75.515625,-16.296875,113
114,1695774164043,0.10522461,0.95111084,-0.5664673,23.25,-3.90625,-6.40625,114
115,1695774164083,0.1940918,-0.1638794,-0.3670044,-50.421875,-18.78125,-51.421875,115
116,1695774164123,-0.10424805,-1.0320435,-0.3838501,-4.203125,-6.0,28.921875,116
117,1695774164163,-0.47802734,-2.0,1.999939,31.515625,-150.48438,68.1875,117
118,1695774164203,-0.8405762,-1.7879028,0.030944824,5.671875,123.125,-6.859375,118
119,1695774164243,-0.34472656,-1.4439087,-0.12188721,21.203125,60.546875,13.5,119
120,1695774164283,-0.59521484,-1.1192017,0.059509277,-26.71875,-20.28125,-23.96875,120
121,1695774164323,0.12890625,-1.1851196,0.3793335,-24.53125,-3.546875,-4.140625,121
122,1695774164363,0.28979492,-0.8128052,0.447937,48.34375,81.0,43.421875,122
123,1695774164403,0.24072266,0.13934326,-0.34454346,-10.03125,-21.640625,46.96875,123
124,1695774164443,-0.42138672,0.44622803,-0.058166504,-34.25,-68.0625,-7.921875,124
125,1695774164483,0.028076172,0.27166748,-0.33624268,-25.40625,-22.796875,-11.515625,125
126,1695774164523,0.006591797,-0.20025635,0.3258667,-8.84375,-10.3125,-28.640625,126
127,1695774164563,0.5505371,-2.0,0.545105,-39.640625,-275.25,90.59375,127
128,1695774164603,-0.19238281,-2.0,0.3546753,-14.90625,39.109375,8.03125,128
129,1695774164643,-1.1669922,-1.0122681,0.31732178,8.890625,-72.25,30.953125,129
130,1695774164683,-0.32861328,-0.89508057,0.21746826,67.734375,-2.109375,-76.9375,130
131,1695774164723,-0.24584961,-0.79644775,0.6642456,-66.546875,-120.421875,-38.828125,131
132,1695774164763,-0.17578125,-0.37139893,0.45892334,0.796875,27.34375,-28.40625,132
133,1695774164803,0.030273438,0.07659912,-0.24346924,1.359375,45.640625,-9.671875,133
134,1695774164843,0.14575195,0.7650757,-0.64556885,25.984375,-26.65625,-17.015625,134
135,1695774164883,-0.25,-0.14581299,-0.22711182,-7.109375,11.40625,-19.890625,135
136,1695774164923,-1.5739746,-2.0,-1.4951782,-137.4375,-9.390625,56.390625,136
137,1695774164963,0.19311523,-1.555481,1.3231812,12.21875,135.17188,-1.171875,137
138,1695774165003,-1.1281738,-1.5076294,0.59661865,-22.21875,94.75,6.78125,138
139,1695774165043,-0.38476562,-1.256897,-0.113342285,-1.46875,-10.578125,-2.5625,139
140,1695774165083,-0.2277832,-1.1506958,0.2843628,-6.703125,9.953125,-1.515625,140
141,1695774165123,0.42260742,-0.9819946,0.4569702,-10.0625,20.453125,38.75,141
142,1695774165163,0.2319336,-0.21929932,-0.105285645,17.265625,-6.0,50.65625,142
143,1695774165203,-0.18017578,0.016052246,0.054626465,4.890625,-39.203125,13.859375,143
144,1695774165243,-0.15820312,0.21307373,-0.13922119,-6.5,-51.8125,-1.796875,144
145,1695774165283,0.03955078,-0.04156494,-0.24346924,-41.125,-37.53125,-16.34375,145
146,1695774165323,-0.2475586,-2.0,0.46185303,18.09375,20.984375,-64.5,146
147,1695774165363,-0.33203125,-1.5769653,1.0546265,9.78125,-62.765625,46.21875,147
148,1695774165403,-0.24365234,-1.8452759,-0.1326294,-47.046875,-31.75,37.03125,148
149,1695774165443,-0.40063477,-1.038147,0.5565796,43.734375,-69.140625,-14.515625,149
150,1695774165483,-0.10253906,-1.2544556,0.3685913,0.046875,-85.0625,-57.4375,150
151,1695774165523,-0.41967773,-0.63653564,0.7050171,-7.703125,-46.390625,-17.828125,151
152,1695774165563,-0.12866211,-0.27056885,0.03265381,-5.375,14.734375,-10.015625,152
153,1695774165603,-0.045654297,0.28948975,-0.21734619,7.734375,24.734375,-13.65625,153
154,1695774165643,-0.21875,0.9008179,-0.42071533,27.8125,-43.453125,-31.828125,154
155,1695774165683,-0.0026855469,-0.65753174,-0.2300415,-36.6875,-8.296875,-33.6875,155
156,1695774165723,-0.8652344,-2.0,-1.2822876,-135.73438,-43.5,58.828125,156
157,1695774165763,-0.33007812,-1.5786743,1.4118042,-7.5625,68.640625,44.203125,157
158,1695774165803,-0.69799805,-1.5935669,-0.0015258789,-27.0625,76.328125,7.71875,158
159,1695774165843,-0.4272461,-1.3369751,-0.05279541,10.671875,-31.9375,6.984375,159
160,1695774165883,-0.1730957,-0.8977661,0.40374756,-6.890625,16.390625,-22.46875,160
161,1695774165923,0.39819336,-0.7078247,0.4874878,-11.140625,-10.6875,50.84375,161
162,1695774165963,0.11621094,-0.07647705,-0.5918579,-4.96875,-34.0,52.859375,162
163,1695774166003,-0.02709961,-0.009094238,-0.024475098,16.1875,-38.25,22.28125,163
164,1695774166043,0.018798828,0.05340576,0.029968262,3.84375,-58.875,3.328125,164
165,1695774166083,0.14526367,-0.20318604,-0.222229,-86.90625,-55.59375,-30.640625,165
166,1695774166123,0.15917969,-2.0,0.7103882,73.546875,55.53125,-114.8125,166
167,1695774166163,-0.3894043,-1.6160278,1.2443237,20.109375,-64.0,20.9375,167
168,1695774166203,-0.45922852,-1.6587524,-0.17681885,-50.65625,-64.0625,38.390625,168
169,1695774166243,-0.5998535,-0.85284424,0.57562256,75.765625,-63.640625,-16.21875,169
170,1695774166283,-0.17871094,-0.99957275,0.4274292,-37.375,-86.96875,-60.484375,170
171,1695774166323,-0.20483398,-0.49884033,0.6178589,7.3125,-39.53125,-25.9375,171
172,1695774166363,0.1665039,-0.11920166,-0.11138916,-15.671875,22.515625,-8.0,172
173,1695774166403,-0.06958008,0.33221436,-0.30670166,-4.34375,24.8125,9.15625,173
174,1695774166443,-0.3791504,0.7728882,-0.16802979,28.46875,-27.28125,-30.453125,174
175,1695774166483,-0.078125,-0.6921997,-0.21759033,-65.46875,-31.234375,-15.671875,175
176,1695774166523,-2.0,-2.0,0.8410034,198.54688,-119.046875,91.265625,176
177,1695774166563,0.13085938,-1.9592896,0.37713623,0.578125,93.1875,56.5,177
178,1695774166603,-0.8828125,-1.3513794,0.20404053,28.734375,52.65625,29.96875,178
179,1695774166643,-0.69873047,-1.0161743,0.1071167,-0.1875,2.34375,-17.125,179
180,1695774166683,-0.22583008,-0.73687744,0.22039795,-35.78125,-18.296875,-16.046875,180
181,1695774166723,0.31079102,-0.9680786,0.3493042,-1.6875,54.75,18.328125,181
182,1695774166763,0.31713867,-0.20196533,-0.2263794,14.40625,0.546875,51.8125,182
183,1695774166803,-0.26049805,0.21746826,-0.011047363,-1.140625,-47.78125,17.703125,183
184,1695774166843,-0.01977539,0.24041748,-0.105041504,-16.75,-48.296875,-4.09375,184
185,1695774166883,-0.13647461,-0.058654785,0.097595215,-66.8125,-30.046875,-32.421875,185
186,1695774166923,1.999939,-2.0,0.11981201,124.03125,-61.390625,-105.75,186
187,1695774166963,-0.14355469,-1.6060181,1.1491089,15.546875,-6.484375,18.859375,187
188,1695774167003,-0.76782227,-1.6218872,-0.13092041,-47.6875,-62.09375,32.140625,188
189,1695774167043,-0.63378906,-0.8196411,0.49505615,66.515625,-18.359375,-44.75,189
190,1695774167083,-0.140625,-1.3460083,0.30218506,-57.765625,-111.46875,-45.28125,190
191,1695774167123,-0.28710938,-0.56451416,0.63983154,8.265625,12.59375,-23.125,191
192,1695774167163,-0.061767578,-0.09576416,-0.0256958,23.46875,54.21875,-14.40625,192
193,1695774167203,-0.061279297,0.4118042,-0.394104,12.390625,21.0,-11.5,193
194,1695774167243,-0.0146484375,0.7514038,-0.31671143,1.828125,-0.578125,-48.75,194
195,1695774167283,0.050048828,-0.94537354,-0.08868408,-46.421875,-21.125,-1.5625,195
196,1695774167323,-2.0,-2.0,1.2272339,254.39062,-118.859375,111.96875,196
197,1695774167363,-0.68359375,-1.8013306,0.7015991,27.578125,158.20312,36.203125,197
198,1695774167403,-0.8027344,-1.1072388,-0.14923096,48.421875,60.375,21.59375,198
199,1695774167443,-0.61938477,-1.2549438,0.101501465,-17.390625,0.84375,-21.390625,199
200,1695774167483,-0.06982422,-1.3150024,0.42767334,0.03125,-24.953125,4.15625,200
201,1695774167523,0.22729492,-0.9451294,0.27825928,28.125,79.125,51.703125,201
202,1695774167563,0.15356445,-0.2852173,0.07171631,21.515625,21.734375,78.1875,202
203,1695774167603,-0.42114258,0.23260498,-0.14215088,-64.03125,-93.296875,17.53125,203
204,1695774167643,-0.09472656,0.355896,-0.44976807,-32.53125,-30.015625,-16.78125,204
205,1695774167683,-0.14477539,-0.17608643,0.10418701,-3.046875,33.78125,-48.4375,205
206,1695774167723,1.999939,-2.0,1.1222534,-5.5,-66.34375,-69.625,206
207,1695774167763,-0.67211914,-1.3582153,1.0790405,0.984375,9.921875,26.578125,207
208,1695774167803,-0.59277344,-1.3674927,-0.18218994,-9.875,-38.65625,15.734375,208
209,1695774167843,-0.45703125,-1.0852661,0.4550171,50.65625,-8.046875,-61.65625,209
210,1695774167883,0.10986328,-1.0679321,0.7189331,-11.421875,-85.515625,-32.015625,210
211,1695774167923,-0.25097656,-0.395813,0.33026123,17.578125,28.84375,-12.5,211
212,1695774167963,-0.15429688,0.29803467,-0.13702393,27.03125,85.359375,3.734375,212
213,1695774168003,-0.26342773,0.8829956,-0.56817627,-12.328125,-2.640625,-22.765625,213
214,1695774168043,0.17333984,-0.02545166,-0.43951416,-50.890625,-15.6875,-88.234375,214
215,1695774168083,-0.1459961,-1.7224731,-1.1668091,-28.921875,10.703125,62.5,215
216,1695774168123,-0.103759766,-1.623352,1.999939,25.234375,126.484375,72.5,216
217,1695774168163,-0.9904785,-1.3899536,-0.53790283,-31.0625,67.46875,-2.640625,217
218,1695774168203,-0.6088867,-1.2976685,-0.37408447,-7.0625,29.71875,-32.09375,218
219,1695774168243,-0.30517578,-1.2732544,0.09686279,-2.703125,5.1875,-12.40625,219
220,1695774168283,0.2861328,-1.1626587,0.54241943,-5.9375,47.90625,15.640625,220
221,1695774168323,0.34472656,-0.3274536,0.046081543,40.59375,68.765625,71.28125,221
222,1695774168363,-0.21679688,0.24798584,-0.06451416,-34.8125,-50.796875,28.140625,222
223,1695774168403,-0.06567383,0.26483154,-0.22833252,-31.765625,-53.03125,-3.15625,223
224,1695774168443,-0.08251953,-0.06060791,-0.21270752,-35.703125,-12.984375,-22.78125,224
225,1695774168483,-0.32128906,-2.0,0.113708496,-24.765625,55.265625,-93.796875,225
226,1695774168523,-0.30249023,-1.381897,1.4994507,18.65625,-43.78125,40.140625,226
227,1695774168563,-0.31835938,-1.7039185,-0.40509033,-40.9375,-14.296875,4.71875,227
228,1695774168603,-0.7141113,-0.98028564,0.5331421,30.4375,-41.859375,-31.859375,228
229,1695774168643,-0.30322266,-0.7424927,0.46136475,-25.484375,-70.890625,-36.40625,229
230,1695774168683,-0.37231445,-0.3760376,0.38861084,8.28125,21.0625,-27.421875,230
231,1695774168723,-0.08935547,0.081970215,-0.022766113,25.53125,61.921875,-14.015625,231
232,1695774168763,-0.12060547,0.635437,-0.35064697,20.125,35.859375,-20.078125,232
233,1695774168803,0.17504883,0.31072998,-0.28961182,-4.34375,-7.03125,-62.375,233
234,1695774168843,-0.1003418,-0.94537354,-0.5261841,-35.5,4.34375,26.296875,234
235,1695774168883,-0.2626953,-2.0,1.999939,53.453125,-105.5625,42.4375,235
236,1695774168923,-0.33544922,-1.7263794,-0.17071533,-31.96875,83.828125,31.296875,236
237,1695774168963,-0.94677734,-1.232727,-0.16119385,27.84375,31.890625,22.359375,237
238,1695774169003,-0.7297363,-1.0125122,0.019226074,-18.75,43.984375,-42.90625,238
239,1695774169043,-0.1328125,-0.7761841,0.55511475,-30.84375,12.265625,-25.625,239
240,1695774169083,0.8347168,-1.0579224,0.1383667,42.03125,56.71875,50.203125,240
241,1695774169123,0.17236328,0.1461792,-0.24346924,8.1875,3.3125,82.6875,241
242,1695774169163,-0.27490234,0.46453857,0.0006713867,-34.765625,-76.953125,16.578125,242
243,1695774169203,-0.0769043,0.23406982,-0.33477783,-23.765625,-48.84375,-9.9375,243
244,1695774169243,-0.2536621,-0.26837158,0.12225342,-30.0625,8.703125,-49.671875,244
245,1695774169283,-0.5637207,-2.0,1.999939,-68.75,-190.5625,14.78125,245
246,1695774169323,0.07006836,-2.0,0.034606934,-32.390625,23.734375,5.84375,246
247,1695774169363,-1.0043945,-1.2747192,0.3336792,36.484375,-55.546875,27.25,247
248,1695774169403,-0.32226562,-1.0820923,0.35321045,35.015625,-15.625,-59.984375,248
249,1695774169443,-0.32080078,-0.7373657,0.5685425,-22.8125,-59.3125,-35.484375,249
250,1695774169483,-0.23632812,-0.28082275,0.2999878,18.546875,42.78125,-28.09375,250
251,1695774169523,-0.09790039,0.21795654,-0.33135986,30.9375,72.546875,-13.296875,251
252,1695774169563,0.111328125,0.8517456,-0.5015259,16.359375,29.203125,-26.34375,252
253,1695774169603,0.17407227,0.11126709,0.05682373,-3.046875,-7.0625,-32.71875,253
254,1695774169643,-0.26831055,-1.0803833,-0.4805298,-52.0625,0.25,33.90625,254
255,1695774169683,0.22314453,-2.0,1.999939,55.453125,27.5,26.25,255
256,1695774169723,-0.8095703,-1.7442017,0.3312378,-57.328125,95.046875,-2.765625,256
257,1695774169763,-0.8684082,-1.227356,-0.20684814,34.15625,40.171875,20.859375,257
258,1695774169803,-0.52490234,-0.92852783,-0.101623535,-28.265625,-6.046875,-31.90625,258
259,1695774169843,0.4086914,-1.5906372,0.7260132,-15.390625,29.34375,16.53125,259
260,1695774169883,0.6574707,-0.82818604,0.10809326,30.328125,50.015625,66.171875,260
261,1695774169923,-0.27441406,0.24969482,0.33026123,18.0625,-31.375,40.671875,261
262,1695774169963,-0.36450195,0.2477417,-0.12213135,-11.734375,-38.796875,-8.375,262
263,1695774170003,-0.13793945,0.054870605,-0.3513794,-50.640625,-26.828125,-21.875,263
264,1695774170043,-0.17993164,-1.0012817,-0.12823486,1.4375,22.265625,-39.125,264
265,1695774170083,-0.44213867,-2.0,1.9349976,14.59375,-39.375,40.859375,265
266,1695774170123,-0.28759766,-2.0,-0.29693604,-59.984375,-29.0,33.46875,266
267,1695774170163,-0.90185547,-0.7359009,0.6637573,44.578125,-40.453125,-0.28125,267
268,1695774170203,-0.1899414,-1.1760864,0.19940186,-32.09375,-83.484375,-64.328125,268
269,1695774170243,-0.2902832,-0.53302,0.6017456,4.671875,-17.28125,-21.1875,269
270,1695774170283,-0.014404297,-0.2966919,0.19720459,6.921875,21.6875,-17.71875,270
271,1695774170323,-0.02758789,0.22528076,-0.17095947,10.796875,41.484375,-18.515625,271
272,1695774170363,-0.1430664,0.49261475,-0.3880005,32.296875,-20.15625,-32.0625,272
273,1695774170403,-0.104003906,-0.3616333,-0.5684204,-30.390625,23.609375,-23.53125,273
274,1695774170443,-2.0,-2.0,1.0275269,-151.10938,51.0625,97.59375,274
275,1695774170483,-0.0625,-1.9876099,0.75164795,-6.15625,195.14062,3.59375,275
276,1695774170523,-1.1972656,-1.373352,0.24749756,19.609375,102.5625,11.625,276
277,1695774170563,-0.6203613,-1.1331177,0.06903076,-3.8125,0.390625,-8.59375,277
278,1695774170603,-0.14379883,-0.9612427,0.022399902,-17.796875,21.453125,-7.671875,278
279,1695774170643,0.5263672,-0.8850708,0.48797607,15.875,43.40625,38.53125,279
280,1695774170683,0.2927246,-0.2781372,-0.04937744,44.859375,36.84375,68.265625,280
281,1695774170723,-0.25561523,0.15740967,0.04876709,-16.65625,-67.609375,23.390625,281
282,1695774170763,-0.053955078,0.1593628,-0.3718872,-17.546875,-42.484375,-15.078125,282
283,1695774170803,-0.26293945,-0.28546143,0.04925537,-14.4375,20.21875,-54.234375,283
284,1695774170843,1.999939,-2.0,0.4833374,25.0625,-203.75,25.15625,284
285,1695774170883,-0.11352539,-1.8479614,0.6845093,6.609375,13.53125,20.4375,285
286,1695774170923,-0.82836914,-1.1912231,0.11932373,2.34375,-74.40625,31.015625,286
287,1695774170963,-0.4885254,-0.93170166,0.014343262,36.046875,-18.71875,-61.625,287
288,1695774171003,-0.05859375,-0.75982666,0.463562,-16.34375,-58.6875,-55.453125,288
289,1695774171043,-0.34765625,-0.4649048,0.4232788,22.046875,-7.453125,-26.734375,289
290,1695774171083,0.09399414,0.086120605,-0.23101807,16.65625,70.59375,-13.34375,290
291,1695774171123,0.23095703,0.5285034,-0.12164307,16.40625,10.015625,-5.59375,291
292,1695774171163,-0.23583984,0.0836792,-0.5967407,-35.328125,-14.59375,-10.703125,292
293,1695774171203,-1.6862793,-2.0,-2.0,-144.3125,65.609375,70.1875,293
294,1695774171243,0.41918945,-2.0,1.6239624,21.359375,151.53125,-0.8125,294
295,1695774171283,-0.8574219,-1.456604,0.2609253,-20.046875,130.98438,10.875,295
296,1695774171323,-0.73168945,-1.175354,-0.24395752,-5.84375,-24.46875,17.109375,296
297,1695774171363,-0.28637695,-0.8731079,0.02923584,-20.46875,43.25,-30.3125,297
298,1695774171403,0.43847656,-1.076477,0.5216675,-16.65625,7.71875,19.796875,298
299,1695774171443,0.21582031,-0.42437744,0.00018310547,58.0625,64.8125,69.875,299
300,1695774171483,-0.1184082,0.06707764,0.1395874,-13.28125,-53.328125,36.828125,300
301,1695774171523,-0.30249023,0.3475952,-0.2420044,-20.53125,-63.578125,-2.796875,301
302,1695774171563,0.017333984,0.06976318,-0.48565674,-41.71875,-11.671875,-37.40625,302
303,1695774171603,-0.9169922,-2.0,0.55584717,-2.046875,113.140625,-83.921875,303
304,1695774171643,-0.25756836,-1.4627075,1.0480347,-18.203125,-1.921875,12.234375,304
305,1695774171683,-0.33276367,-1.5750122,-0.05230713,-49.9375,-17.34375,47.0625,305
306,1695774171723,-0.60424805,-0.9429321,0.543396,50.6875,-72.875,-6.15625,306
307,1695774171763,-0.2006836,-1.3970337,0.26483154,-31.109375,-43.46875,-58.625,307
308,1695774171803,-0.44921875,-0.59820557,0.39569092,-31.46875,-49.609375,-15.78125,308
309,1695774171843,-0.10229492,-0.38555908,0.18304443,6.078125,36.296875,-21.09375,309
310,1695774171883,0.036132812,0.058288574,-0.12945557,45.25,36.125,-14.0625,310
311,1695774171923,-0.12084961,0.3102417,-0.08917236,8.1875,5.125,-25.109375,311
312,1695774171963,-0.2614746,0.08074951,-0.61846924,-63.953125,28.5625,-44.15625,312
313,1695774172003,-1.8762207,-2.0,-1.310852,-165.46875,35.28125,66.78125,313
314,1695774172043,0.36865234,-1.8562622,0.96014404,21.578125,168.70312,7.515625,314
315,1695774172083,-1.0900879,-1.3848267,0.32684326,14.875,87.265625,18.96875,315
316,1695774172123,-0.73583984,-1.0635376,0.168396,-3.578125,31.171875,19.75,316
317,1695774172163,-0.44018555,-0.9985962,0.08416748,-19.578125,5.28125,-0.109375,317
318,1695774172203,0.015136719,-1.0476685,0.48968506,-20.328125,55.140625,14.203125,318
319,1695774172243,0.41381836,-0.53131104,0.0072631836,17.40625,51.0625,56.5625,319
320,1695774172283,-0.11767578,0.051452637,0.12689209,-9.25,-22.75,24.875,320
321,1695774172323,-0.2097168,0.32025146,-0.1375122,-12.515625,-18.453125,-0.84375,321
322,1695774172363,0.009277344,0.20916748,-0.2630005,-23.53125,3.953125,-11.625,322
323,1695774172403,-0.77978516,-1.611145,-0.16046143,-36.953125,35.65625,-46.53125,323
324,1695774172443,-0.5739746,-2.0,1.999939,-30.171875,10.46875,-29.015625,324
325,1695774172483,-0.19921875,-1.8084106,-0.2432251,-39.6875,14.203125,15.015625,325
326,1695774172523,-0.8791504,-0.97979736,0.66326904,40.921875,-27.46875,25.546875,326
327,1695774172563,-0.28857422,-1.2793579,0.30999756,-25.125,-66.234375,-48.140625,327
328,1695774172603,-0.64331055,-1.1109009,0.6244507,-34.0625,-27.734375,-34.640625,328
329,1695774172643,-0.49853516,-0.4631958,-0.038391113,2.59375,76.328125,-39.921875,329
330,1695774172683,0.20581055,-0.11016846,-0.11236572,94.484375,49.28125,-24.859375,330
331,1695774172723,-0.07104492,0.19158936,0.017028809,33.1875,34.796875,-28.328125,331
332,1695774172763,0.033447266,-0.03668213,-0.4631958,-35.046875,68.578125,-10.015625,332
333,1695774172803,-0.39526367,-1.2549438,-1.1758423,-24.578125,3.390625,60.0625,333
334,1695774172843,-1.0002441,-2.0,1.999939,16.453125,83.125,20.546875,334
335,1695774172883,-0.626709,-1.8308716,0.044128418,15.65625,87.03125,6.671875,335
336,1695774172923,-0.95825195,-1.1018677,-0.10845947,-2.859375,73.921875,16.609375,336
337,1695774172963,-0.6328125,-0.7234497,-0.11383057,9.046875,57.59375,-19.234375,337
338,1695774173003,0.20898438,-0.7739868,0.2140503,-21.203125,58.265625,-10.6875,338
339,1695774173043,0.3203125,-0.70147705,0.28729248,37.03125,80.421875,18.3125,339
340,1695774173083,0.12548828,0.044128418,-0.13018799,1.28125,57.671875,52.1875,340
341,1695774173123,0.008056641,0.61883545,-0.458313,-33.65625,-52.515625,29.0,341
342,1695774173163,-0.2541504,-0.094055176,0.035827637,9.3125,0.15625,-24.421875,342
343,1695774173203,1.0292969,-2.0,1.0192261,109.59375,-117.546875,-85.328125,343
344,1695774173243,-0.7133789,-1.3167114,0.67840576,-1.546875,110.171875,-17.796875,344
345,1695774173283,-0.6796875,-1.2097778,-0.09161377,10.828125,29.046875,-5.171875,345
346,1695774173323,-0.18823242,-1.1992798,0.39471436,48.25,-37.3125,-31.125,346
347,1695774173363,-0.53686523,-0.99102783,0.6503296,-3.6875,0.953125,-16.796875,347
348,1695774173403,-0.5415039,-0.33062744,0.013122559,10.3125,93.09375,-27.859375,348
349,1695774173443,-0.22363281,0.49749756,-0.6992798,19.140625,97.078125,-31.234375,349
350,1695774173483,0.2932129,1.1762085,-0.4758911,32.9375,39.421875,-84.21875,350
351,1695774173523,0.38500977,-0.24737549,0.10223389,17.5,50.953125,-1.828125,351
352,1695774173563,-0.3227539,-0.9780884,-0.97979736,-18.265625,76.390625,46.3125,352
353,1695774173603,-0.5241699,-2.0,1.999939,28.140625,24.109375,-9.078125,353
354,1695774173643,-0.642334,-2.0,-0.0178833,-30.515625,82.359375,2.625,354
355,1695774173683,-0.75634766,-1.6118774,-0.5432739,42.359375,65.34375,52.953125,355
356,1695774173723,-0.94970703,-1.0274048,0.37786865,-29.0625,28.703125,-25.109375,356
357,1695774173763,-0.15649414,-1.5874634,0.5055542,5.34375,36.84375,-14.671875,357
358,1695774173803,0.7402344,-1.0020142,0.034118652,57.171875,102.171875,71.671875,358
359,1695774173843,0.23217773,0.32025146,-0.2288208,9.15625,-30.953125,63.390625,359
360,1695774173883,-0.1665039,0.50115967,-0.32159424,-10.75,-65.984375,16.90625,360
361,1695774173923,-0.10522461,0.29437256,-0.40533447,-8.640625,-39.90625,8.9375,361
362,1695774173963,0.118896484,-0.1296997,-0.06695557,-28.5625,-6.125,-43.609375,362
363,1695774174003,1.999939,-2.0,-0.84991455,127.84375,-223.10938,101.421875,363
364,1695774174043,-0.10620117,-1.885315,0.10296631,-4.140625,87.109375,-9.890625,364
365,1695774174083,-0.22680664,-1.5027466,-0.0029907227,-4.71875,-40.71875,-28.578125,365
366,1695774174123,0.15722656,-1.4002075,0.2929077,56.609375,-86.0,-65.265625,366
367,1695774174163,-0.23583984,-0.7481079,0.5372925,-41.21875,-45.578125,-13.96875,367
368,1695774174203,-0.1237793,-0.1795044,0.081970215,-12.671875,15.96875,-26.859375,368
369,1695774174243,-0.25976562,0.24603271,-0.1663208,14.5625,23.890625,-21.8125,369
370,1695774174283,-0.24047852,1.3366089,-0.5249634,-14.75,-34.3125,-52.96875,370
371,1695774174323,0.17871094,-0.65631104,-0.32598877,-74.3125,-8.21875,-50.71875,371
372,1695774174363,0.009033203,-1.5427856,-0.32867432,-17.90625,-12.015625,4.234375,372
373,1695774174403,-0.1772461,-1.4138794,1.680603,-1.125,33.546875,38.28125,373
374,1695774174443,-0.52856445,-1.7214966,-0.0803833,-53.71875,79.140625,24.953125,374
375,1695774174483,-0.40063477,-1.0286255,-0.24029541,8.296875,-17.390625,16.75,375
376,1695774174523,-0.15820312,-0.7402954,0.262146,14.515625,-2.46875,-41.40625,376
377,1695774174563,0.26123047,-1.2297974,0.668396,-24.71875,-64.421875,12.734375,377
378,1695774174603,0.1381836,-0.5408325,0.15765381,7.671875,43.953125,63.59375,378
379,1695774174643,-0.111572266,0.09979248,-0.6433716,-63.09375,-151.26562,35.75,379
380,1695774174683,0.095703125,0.4442749,0.14910889,27.40625,-76.375,-8.21875,380
381,1695774174723,-0.049072266,0.33172607,-0.7136841,-29.34375,-43.984375,-50.21875,381
382,1695774174763,0.7939453,-2.0,0.062683105,-97.421875,-5.640625,-114.671875,382
383,1695774174803,-1.6066895,-0.9924927,0.77459717,-17.453125,-90.875,94.703125,383
384,1695774174843,-0.37231445,-1.3513794,0.009216309,-22.046875,-39.703125,8.25,384
385,1695774174883,-0.05834961,-0.69610596,0.23431396,34.96875,-131.46875,-49.609375,385
386,1695774174923,0.04345703,-2.0,0.8510132,-83.625,-151.85938,-33.703125,386
387,1695774174963,-0.5126953,-0.70880127,0.24627686,-63.859375,-59.640625,2.84375,387
388,1695774175003,-0.110839844,-0.28155518,0.008483887,-0.90625,3.734375,-6.65625,388
389,1695774175043,0.0012207031,0.96307373,-0.725647,30.140625,-46.4375,-25.46875,389
390,1695774175083,-0.22924805,0.902771,-0.15704346,-11.765625,-13.65625,-43.375,390
391,1695774175123,0.08544922,-0.84869385,-0.022766113,-43.859375,-66.046875,-34.6875,391
392,1695774175163,0.51123047,-2.0,1.999939,32.796875,-188.96875,90.59375,392
393,1695774175203,-0.38012695,-1.1626587,0.24139404,-27.90625,13.78125,29.078125,393
394,1695774175243,-1.2263184,-1.6062622,0.49969482,30.921875,-53.953125,40.046875,394
395,1695774175283,-0.5744629,-0.7007446,-0.13189697,-44.046875,-84.578125,-57.0,395
396,1695774175323,0.45117188,-1.7901001,0.6781616,-9.078125,-59.984375,10.0625,396
397,1695774175363,0.6113281,-0.7119751,-0.036193848,23.6875,1.625,87.078125,397
398,1695774175403,-0.16333008,-0.06109619,-0.32086182,-31.171875,-128.35938,56.515625,398
399,1695774175443,-0.025878906,0.08416748,-0.078186035,19.203125,-104.125,14.359375,399
400,1695774175483,-0.027832031,0.25872803,-0.28277588,12.546875,-95.515625,-20.421875,400
401,1695774175523,-0.39379883,0.14422607,0.034362793,-67.984375,-44.984375,-50.421875,401
402,1695774175563,1.4606934,-2.0,1.3703003,227.53125,-198.10938,-45.640625,402
403,1695774175603,0.09350586,-1.8013306,0.93255615,3.640625,29.234375,10.0,403
404,1695774175643,-0.6218262,-1.2676392,-0.0022583008,-9.71875,-58.234375,38.8125,404
405,1695774175683,-0.4399414,-0.8982544,0.04168701,47.921875,-119.125,-52.4375,405
406,1695774175723,-0.3256836,-1.0869751,0.67230225,1.859375,-68.34375,-41.90625,406
407,1695774175763,-0.17797852,-0.7998657,0.4935913,-22.25,-42.046875,-20.28125,407
408,1695774175803,-0.03930664,-0.33062744,-0.19293213,39.109375,34.1875,0.453125,408
409,1695774175843,-0.20776367,0.19403076,-0.20635986,38.0625,33.90625,-4.046875,409
410,1695774175883,-0.39453125,0.55218506,-0.2942505,-11.40625,9.015625,-49.484375,410
411,1695774175923,0.18823242,-0.74542236,-0.21514893,-37.828125,-6.96875,-26.921875,411
412,1695774175963,-2.0,-2.0,1.6427612,-25.59375,-66.078125,-4.34375,412
413,1695774176003,-0.6586914,-1.269104,0.5072632,58.59375,138.64062,79.390625,413
414,1695774176043,-0.62939453,-1.6785278,0.010192871,17.15625,-14.15625,46.140625,414
415,1695774176083,-0.72875977,-0.8062134,-0.06109619,-2.28125,-0.765625,-8.515625,415
416,1695774176123,0.26757812,-0.84698486,0.034362793,-18.390625,-10.765625,-13.671875,416
417,1695774176163,0.31201172,-1.0073853,0.33099365,-3.515625,-23.609375,29.546875,417
418,1695774176203,0.3408203,0.039733887,-0.26885986,8.609375,-38.90625,82.03125,418
419,1695774176243,-0.28100586,0.27801514,0.04901123,10.140625,-73.546875,18.875,419
420,1695774176283,-0.296875,0.17230225,-0.38653564,-12.21875,-69.421875,-27.09375,420
421,1695774176323,-0.36132812,0.1984253,-0.12506104,-52.9375,-24.8125,-83.4375,421
422,1695774176363,-0.6508789,-2.0,0.055603027,-46.171875,83.328125,-121.53125,422
423,1695774176403,0.43359375,-1.9561157,0.6244507,15.234375,-24.46875,48.453125,423
424,1695774176443,-0.41430664,-1.7991333,-0.74224854,-51.34375,-30.9375,4.046875,424
425,1695774176483,-0.6513672,-1.2297974,0.3685913,36.484375,-96.421875,-44.09375,425
426,1695774176523,-0.22485352,-1.3855591,0.557312,-20.109375,-118.546875,-49.640625,426
427,1695774176563,-0.53393555,-0.6253052,0.30975342,-16.84375,2.578125,-45.125,427
428,1695774176603,0.046142578,-0.1885376,0.0289917,14.59375,37.59375,-27.25,428
429,1695774176643,0.033447266,0.47650146,-0.17388916,-23.40625,-9.078125,-34.515625,429
430,1695774176683,0.18481445,1.1720581,-0.12310791,-26.0,8.078125,-23.375,430
431,1695774176723,-0.10131836,-0.44244385,-0.07696533,-12.3125,11.40625,-15.4375,431
432,1695774176763,-0.34033203,-0.8098755,-0.39019775,-75.25,-12.171875,27.984375,432
433,1695774176803,0.119384766,-2.0,1.999939,35.109375,-57.15625,-20.703125,433
434,1695774176843,-0.3137207,-1.7781372,0.34588623,-25.546875,48.953125,21.59375,434
435,1695774176883,-0.5131836,-1.5825806,-0.12652588,63.4375,53.546875,64.71875,435
436,1695774176923,-0.9536133,-1.3665161,0.42596436,-14.890625,-45.1875,-10.171875,436
437,1695774176963,-0.09399414,-1.2896118,0.113708496,-19.46875,1.53125,-6.34375,437
438,1695774177003,0.50341797,-1.0747681,0.32269287,30.46875,27.65625,33.53125,438
439,1695774177043,0.24853516,-0.3196411,0.24822998,-3.921875,-25.5625,58.15625,439
440,1695774177083,-0.28051758,0.3053589,-0.089660645,-45.703125,-106.34375,11.984375,440
441,1695774177123,-0.26171875,0.35906982,-0.3098755,-5.34375,-73.953125,-5.59375,441
442,1695774177163,-0.12182617,0.39813232,-0.081848145,-21.640625,-14.28125,-14.890625,442
443,1695774177203,0.30737305,-0.28009033,-0.22418213,-6.71875,-55.53125,-32.390625,443
444,1695774177243,1.0085449,-2.0,0.8739624,10.0625,-269.01562,74.046875,444
445,1695774177283,-0.27734375,-2.0,-0.12188721,-27.171875,-31.390625,25.4375,445
446,1695774177323,-0.48583984,-1.227356,0.23919678,-2.65625,-71.0625,-9.625,446
447,1695774177363,0.084472656,-1.2442017,0.28485107,42.140625,-115.375,-36.4375,447
448,1695774177403,-0.21044922,-0.69000244,0.48919678,-23.6875,-45.5,-13.046875,448
449,1695774177443,-0.18481445,-0.33966064,0.109558105,-14.15625,-25.015625,-8.34375,449
450,1695774177483,-0.048828125,0.03778076,-0.08868408,1.453125,10.4375,4.953125,450
451,1695774177523,-0.25512695,0.3529663,-0.22467041,27.171875,-2.484375,-17.3125,451
452,1695774177563,-0.2692871,0.4545288,-0.30841064,-22.046875,-9.6875,-49.1875,452
453,1695774177603,0.01586914,-0.8740845,0.010925293,-24.140625,-29.359375,0.828125,453
454,1695774177643,0.68066406,-2.0,1.999939,59.53125,-270.64062,79.578125,454
455,1695774177683,-0.6706543,-1.7278442,0.16278076,-48.5,93.703125,21.125,455
456,1695774177723,-0.6726074,-1.3357544,-0.2468872,39.84375,15.25,23.359375,456
457,1695774177763,-0.37036133,-0.81573486,0.1005249,4.375,17.734375,-41.84375,457
458,1695774177803,0.20874023,-1.0588989,0.48114014,-30.1875,-17.71875,-6.265625,458
459,1695774177843,0.16088867,-0.76690674,0.49310303,-10.390625,39.234375,32.765625,459
460,1695774177883,0.14453125,-0.109436035,-0.2991333,5.75,-17.09375,45.515625,460
461,1695774177923,-0.3322754,0.22869873,-0.032043457,-6.296875,-45.5625,-0.46875,461
462,1695774177963,-0.06542969,0.10272217,-0.19342041,-50.75,-45.234375,-32.25,462
463,1695774178003,0.22924805,-1.015686,0.1876831,2.859375,25.59375,-45.671875,463
464,1695774178043,-0.6452637,-2.0,0.6288452,-39.53125,-217.48438,91.515625,464
465,1695774178083,-0.3154297,-1.8015747,0.25775146,-28.65625,26.0625,11.703125,465
466,1695774178123,-0.6804199,-1.1646118,0.15106201,23.421875,-75.765625,-5.5625,466
467,1695774178163,-0.30249023,-0.928772,0.21820068,73.03125,-32.0,-46.90625,467
468,1695774178203,-0.3347168,-0.8442993,0.7470093,-28.703125,-64.03125,-25.53125,468
469,1695774178243,-0.30029297,-0.56036377,0.27972412,-16.984375,4.96875,-23.046875,469
470,1695774178283,-0.10961914,-0.042053223,-0.16021729,21.28125,62.359375,-15.234375,470
471,1695774178323,-0.11669922,0.21795654,-0.32232666,-12.546875,10.328125,-26.640625,471
472,1695774178363,-0.013427734,-0.10455322,-0.5154419,-39.375,5.6875,-28.609375,472
473,1695774178403,-2.0,-2.0,-0.71221924,-135.57812,46.953125,71.671875,473
474,1695774178443,-0.5214844,-1.2276001,1.1002808,7.859375,124.53125,5.84375,474
475,1695774178483,-0.79052734,-1.2825317,0.20526123,2.484375,69.953125,2.46875,475
476,1695774178523,-0.29638672,-0.87286377,-0.0134887695,18.453125,0.859375,4.3125,476
477,1695774178563,-0.3293457,-0.88116455,0.24871826,-0.96875,-30.328125,16.546875,477
478,1695774178603,0.010253906,-0.9282837,0.59368896,-15.671875,10.5,23.4375,478
479,1695774178643,0.16186523,-0.45758057,0.02142334,22.09375,44.25,41.78125,479
480,1695774178683,-0.15576172,0.07269287,-0.105773926,-10.375,-32.1875,19.09375,480
481,1695774178723,0.04321289,0.22064209,-0.4463501,-44.1875,-53.34375,-13.6875,481
482,1695774178763,-0.1628418,-0.6543579,0.014587402,-7.734375,-8.265625,-43.5,482
483,1695774178803,-0.49609375,-2.0,1.999939,-73.578125,-224.09375,62.09375,483
484,1695774178843,0.13330078,-1.9299927,0.051452637,-55.28125,-40.0,15.40625,484
485,1695774178883,-0.8239746,-0.9458618,-0.10430908,38.828125,-39.28125,26.25,485
486,1695774178923,-0.40185547,-0.62677,0.1281128,40.203125,-45.828125,-24.421875,486
487,1695774178963,-0.54833984,-0.3303833,0.49945068,21.703125,-36.8125,-26.046875,487
488,1695774179003,-0.17358398,-0.5005493,0.12982178,-8.125,13.3125,-30.765625,488
489,1695774179043,-0.13720703,0.19232178,-0.19586182,11.65625,66.234375,-22.515625,489
490,1695774179083,-0.12011719,0.28704834,-0.7788696,-51.640625,44.0,-41.265625,490
491,1695774179123,0.25146484,-0.8467407,-1.1392212,4.59375,-26.828125,1.796875,491
492,1695774179163,0.5234375,-2.0,1.999939,154.46875,-127.34375,95.65625,492
493,1695774179203,-0.9929199,-2.0,-0.6121216,-25.3125,43.90625,45.28125,493
494,1695774179243,-0.8195801,-0.741272,-0.19024658,25.3125,49.9375,13.890625,494
495,1695774179283,-0.3786621,-1.3167114,-0.16558838,32.90625,-6.515625,-19.8125,495
496,1695774179323,-0.12231445,-1.0701294,0.63983154,-21.453125,8.609375,-4.859375,496
497,1695774179363,0.19506836,-0.7034302,0.41131592,25.8125,87.46875,24.578125,497
498,1695774179403,0.022705078,-0.24615479,-0.22418213,-8.8125,30.1875,41.515625,498
499,1695774179443,-0.080322266,0.42694092,-0.18463135,-46.265625,-70.15625,14.421875,499
500,1695774179483,0.038330078,0.32196045,-0.24908447,-50.453125,-48.703125,-5.203125,500
501,1695774179523,-0.011962891,-0.5059204,-0.019592285,13.25,32.390625,-33.3125,501
502,1695774179563,-0.5397949,-2.0,1.4127808,-33.078125,-258.90625,87.53125,502
503,1695774179603,-0.2854004,-1.9761353,0.08416748,13.03125,44.59375,-7.71875,503
504,1695774179643,-0.8989258,-0.98687744,0.05706787,29.578125,-63.75,-8.140625,504
505,1695774179683,-0.36987305,-0.5462036,0.112976074,34.90625,-47.828125,-74.671875,505
506,1695774179723,-0.6401367,-0.9924927,0.6359253,-27.1875,-12.625,-8.5,506
507,1695774179763,-0.22436523,-0.3772583,0.1552124,10.875,50.875,-24.109375,507
508,1695774179803,0.103271484,0.09979248,-0.19342041,14.78125,38.796875,-24.796875,508
509,1695774179843,0.25341797,0.4694214,-0.07305908,27.25,9.5625,-11.765625,509
510,1695774179883,0.22290039,0.1473999,-0.10650635,7.015625,38.953125,3.828125,510
511,1695774179923,-0.12426758,-0.90948486,-0.45880127,-36.828125,21.15625,29.234375,511
512,1695774179963,-1.1699219,-2.0,1.999939,-11.4375,-87.515625,19.28125,512
513,1695774180003,-0.47973633,-1.9976196,0.44989014,2.59375,125.046875,-0.59375,513
514,1695774180043,-0.33422852,-1.6621704,-0.27642822,40.15625,9.875,56.25,514
515,1695774180083,-0.3852539,-1.0261841,0.25897217,-5.59375,-13.203125,13.921875,515
516,1695774180123,0.079833984,-1.1907349,0.51605225,-41.140625,1.71875,4.09375,516
517,1695774180163,0.28686523,-0.54473877,0.047546387,-1.46875,27.671875,38.265625,517
518,1695774180203,-0.016601562,0.1852417,0.03729248,-5.84375,-24.546875,30.46875,518
519,1695774180243,-0.09326172,0.2921753,-0.03643799,-3.453125,-30.1875,4.1875,519
520,1695774180283,0.013916016,0.0758667,-0.45513916,-22.5625,-40.234375,-8.625,520
521,1695774180323,-0.19580078,-0.45440674,0.13543701,8.375,-21.5625,-25.859375,521
522,1695774180363,-0.02709961,-2.0,0.5336304,-90.140625,-247.10938,45.140625,522
523,1695774180403,-0.03564453,-2.0,0.18231201,-17.421875,42.1875,-5.59375,523
524,1695774180443,-0.73339844,-1.317688,0.43328857,26.65625,-46.625,1.046875,524
525,1695774180483,-0.2902832,-1.0059204,0.2645874,22.375,-63.765625,-53.125,525
526,1695774180523,-0.4729004,-0.61016846,0.5861206,-25.15625,-38.546875,-25.203125,526
527,1695774180563,0.14013672,-0.008117676,-0.013977051,-3.53125,34.671875,-31.484375,527
528,1695774180603,0.09277344,0.29022217,-0.12237549,-10.03125,24.78125,-13.140625,528
529,1695774180643,0.12915039,0.43695068,-0.34918213,22.765625,10.234375,-16.703125,529
530,1695774180683,-0.021728516,-0.13409424,-0.2835083,-15.015625,27.03125,-5.0625,530
531,1695774180723,-1.1469727,-2.0,-1.602356,-110.546875,-15.6875,63.84375,531
532,1695774180763,0.46240234,-2.0,1.5853882,12.265625,134.6875,-10.515625,532
533,1695774180803,-1.1728516,-1.6638794,0.60736084,-25.625,80.921875,28.140625,533
534,1695774180843,-0.61743164,-1.1404419,-0.030090332,14.03125,20.90625,22.453125,534
535,1695774180883,-0.36157227,-1.0632935,0.04925537,-16.96875,4.1875,2.0,535
536,1695774180923,0.36254883,-0.7817993,0.43328857,-17.140625,30.484375,22.96875,536
537,1695774180963,0.47216797,-0.41827393,-0.02154541,4.9375,32.03125,48.015625,537
538,1695774181003,-0.06738281,0.14666748,0.070495605,-2.75,-26.0625,19.09375,538
539,1695774181043,-0.11987305,0.3600464,-0.12701416,-0.046875,-39.890625,-10.9375,539
540,1695774181083,-0.10961914,0.23504639,-0.3796997,-36.75,-39.140625,-25.4375,540
541,1695774181123,-0.103271484,-0.6213989,0.20550537,8.5,13.4375,-49.84375,541
542,1695774181163,-0.67163086,-2.0,1.999939,-28.09375,-111.6875,28.25,542
543,1695774181203,-0.26000977,-2.0,-0.2144165,-51.546875,18.078125,8.46875,543
544,1695774181243,-0.57299805,-1.1404419,0.4882202,46.296875,-46.265625,-5.78125,544
545,1695774181283,-0.14819336,-1.3474731,0.41986084,-20.28125,-90.578125,-67.859375,545
546,1695774181323,-0.6022949,-0.4763794,0.44818115,-34.703125,-38.453125,-19.796875,546
547,1695774181363,-0.16210938,-0.21051025,0.13348389,8.34375,42.34375,-35.4375,547
548,1695774181403,0.14550781,0.24456787,-0.108947754,9.453125,11.265625,-27.125,548
549,1695774181443,0.14428711,0.63494873,-0.030822754,21.1875,-6.875,-18.859375,549
550,1695774181483,0.12109375,-0.08892822,-0.070129395,-9.390625,10.421875,-10.59375,550
551,1695774181523,-0.42895508,-1.383606,-0.8804321,-76.453125,-11.828125,47.25,551
552,1695774181563,-0.28051758,-1.8599243,1.999939,-10.6875,3.203125,-10.546875,552
553,1695774181603,-0.92333984,-1.5808716,0.32537842,-16.734375,99.203125,0.03125,553
554,1695774181643,-0.47094727,-1.3843384,-0.31915283,24.625,13.984375,28.953125,554
555,1695774181683,-0.42382812,-1.2442017,0.0138549805,-11.4375,17.328125,-10.734375,555
556,1695774181723,-0.068603516,-1.1543579,0.7374878,-25.453125,-5.578125,0.53125,556
557,1695774181763,0.32788086,-0.8045044,0.10784912,27.09375,72.640625,39.75,557
558,1695774181803,0.18603516,-0.12506104,-0.13092041,10.09375,-12.984375,61.765625,558
559,1695774181843,-0.3071289,0.46990967,-0.014221191,-17.109375,-78.796875,11.28125,559
560,1695774181883,-0.14453125,0.34613037,-0.46099854,-14.25,-23.5,-26.78125,560
561,1695774181923,-0.27783203,-0.6826782,0.02947998,-19.078125,39.546875,-63.015625,561
562,1695774181963,1.3388672,-2.0,0.074645996,32.46875,-288.84375,28.15625,562
563,1695774182003,-0.15917969,-1.8582153,0.15081787,-24.921875,73.90625,4.78125,563
564,1695774182043,-0.43286133,-1.1538696,-0.10479736,36.203125,-30.03125,24.96875,564
565,1695774182083,-0.41015625,-0.69000244,0.3361206,19.0625,-87.53125,-73.859375,565
566,1695774182123,-0.5007324,-1.1011353,0.6884155,-48.5,-93.125,-17.875,566
567,1695774182163,-0.32299805,-0.472229,0.21160889,-14.484375,-3.40625,-19.3125,567
568,1695774182203,-0.030761719,-0.16485596,0.050231934,29.5625,38.53125,-14.78125,568
569,1695774182243,0.114746094,0.3361206,-0.066711426,11.453125,-9.390625,-5.0625,569
570,1695774182283,-0.08496094,0.25628662,-0.51763916,-29.3125,22.203125,-11.84375,570
571,1695774182323,-0.009521484,-1.1218872,-0.706604,-21.046875,-11.484375,13.78125,571
572,1695774182363,-0.5336914,-2.0,1.999939,21.953125,-4.890625,24.53125,572
573,1695774182403,-0.55810547,-1.6172485,-0.13800049,-21.0625,50.125,13.1875,573
574,1695774182443,-0.4033203,-1.0029907,-0.0134887695,42.0,23.703125,22.40625,574
575,1695774182483,-0.41601562,-1.3247681,0.3619995,-2.03125,-28.484375,-6.75,575
576,1695774182523,-0.19384766,-0.8220825,0.41326904,-15.46875,6.359375,17.625,576
577,1695774182563,0.033691406,-0.69366455,0.15765381,-9.40625,47.78125,32.53125,577
578,1695774182603,-0.08911133,-0.19122314,-0.07330322,-7.3125,-2.125,20.25,578
579,1695774182643,-0.023925781,0.0993042,-0.31280518,-24.703125,-43.6875,-1.671875,579
580,1695774182683,-0.020996094,-0.13092041,0.1876831,-10.828125,-12.6875,-11.390625,580
581,1695774182723,0.7233887,-1.2319946,0.45306396,16.65625,-5.6875,-50.125,581
582,1695774182763,-1.2490234,-1.6223755,0.9003296,-26.734375,-183.21875,73.53125,582
583,1695774182803,-0.25561523,-1.692688,0.06707764,-6.265625,33.390625,0.9375,583
584,1695774182843,-0.58740234,-1.0029907,0.36834717,33.109375,-57.109375,-17.84375,584
585,1695774182883,-0.2055664,-1.425354,0.3842163,33.984375,-65.859375,-35.546875,585
586,1695774182923,-0.33129883,-0.6026001,0.3036499,6.65625,-32.9375,-18.421875,586
587,1695774182963,-0.041259766,-0.2703247,0.08416748,10.875,23.96875,-21.09375,587
588,1695774183003,-0.083740234,0.08880615,-0.1531372,13.15625,24.171875,-18.921875,588
589,1695774183043,-0.08129883,0.50335693,-0.21466064,2.359375,-0.828125,-26.109375,589
590,1695774183083,-0.013671875,-0.18414307,-0.33746338,-33.46875,30.359375,-19.296875,590
591,1695774183123,-0.30981445,-2.0,-0.9116821,-60.890625,-8.90625,58.78125,591
592,1695774183163,-0.61743164,-1.866272,1.66156,-16.921875,66.125,40.515625,592
593,1695774183203,-1.1748047,-1.385315,0.15985107,-34.3125,56.03125,11.265625,593
594,1695774183243,-0.39379883,-1.0247192,-0.36846924,25.65625,28.140625,-7.40625,594
595,1695774183283,-0.013916016,-1.3694458,0.3397827,7.203125,-6.78125,7.03125,595
596,1695774183323,0.2800293,-1.2515259,0.4381714,-16.46875,10.3125,39.1875,596
597,1695774183363,0.40551758,0.046325684,-0.09649658,17.0,31.875,76.8125,597
598,1695774183403,-0.38989258,0.46795654,0.005554199,0.0625,-47.125,8.09375,598
599,1695774183443,-0.28344727,0.50457764,-0.10430908,-17.640625,-40.390625,-14.3125,599
600,1695774183483,0.0715332,0.22528076,-0.43292236,-42.921875,-7.203125,-31.34375,600
601,1695774183523,-0.51831055,-1.3814087,0.015075684,20.84375,13.359375,-43.09375,601
602,1695774183563,-0.092041016,-2.0,1.6798706,-68.671875,-99.765625,-13.140625,602
603,1695774183603,-0.14550781,-1.951477,-0.2276001,-36.234375,3.796875,28.328125,603
604,1695774183643,-1.1464844,-1.1026001,0.36517334,71.46875,-101.015625,23.578125,604
605,1695774183683,-0.6020508,-0.8899536,0.33514404,-28.203125,-70.578125,-97.46875,605
606,1695774183723,-0.42358398,-0.6465454,0.60369873,-35.671875,-30.78125,-36.34375,606
607,1695774183763,-0.07495117,-0.31378174,0.06732178,8.359375,25.578125,-23.8125,607
608,1695774183803,0.048095703,0.4315796,-0.24395752,4.46875,47.140625,-8.328125,608
609,1695774183843,-0.012451172,0.8847046,-0.37652588,5.015625,18.921875,-8.234375,609
610,1695774183883,0.05444336,-0.26861572,-0.18560791,-21.109375,23.890625,-24.640625,610
611,1695774183923,-0.45751953,-1.8401489,-0.83477783,-75.890625,-13.046875,63.984375,611
612,1695774183963,0.12084961,-2.0,1.7138062,44.125,104.265625,29.546875,612
613,1695774184003,-1.5056152,-1.2664185,0.4911499,-13.765625,93.21875,9.375,613
614,1695774184043,-0.3972168,-1.2276001,-0.09625244,5.984375,25.84375,12.171875,614
615,1695774184083,-0.17211914,-0.90509033,0.3949585,-40.78125,-18.4375,4.3125,615
616,1695774184123,0.3708496,-0.767395,0.40252686,-12.96875,31.90625,38.984375,616
617,1695774184163,0.15576172,0.12176514,-0.2835083,13.359375,18.25,48.109375,617
618,1695774184203,-0.14013672,0.3925171,-0.04498291,1.40625,-38.609375,12.328125,618
619,1695774184243,0.057861328,0.23114014,-0.093566895,-23.75,-46.8125,0.84375,619
620,1695774184283,-0.0061035156,0.027526855,-0.2876587,-54.375,-36.40625,-27.34375,620
621,1695774184323,-0.20263672,-2.0,0.9291382,200.26562,48.34375,-104.8125,621
622,1695774184363,0.29956055,-2.0,1.116394,8.671875,48.421875,-8.265625,622
623,1695774184403,-0.6081543,-1.5811157,-0.17388916,-12.9375,-26.40625,30.875,623
624,1695774184443,-0.46044922,-1.6240845,0.23553467,40.109375,-33.484375,-39.46875,624
625,1695774184483,-0.5270996,-0.8049927,0.75286865,-20.515625,-60.6875,-47.515625,625
626,1695774184523,-0.106933594,-0.62384033,0.30096436,19.890625,5.953125,-45.234375,626
627,1695774184563,-0.026123047,0.2855835,-0.022521973,-1.15625,35.5625,-4.859375,627
628,1695774184603,-0.02368164,0.6901245,-0.47491455,-0.875,22.921875,1.828125,628
629,1695774184643,0.14282227,0.12347412,-0.13116455,22.609375,26.171875,-35.640625,629
630,1695774184683,0.072021484,-0.81329346,-0.40118408,-10.09375,-15.328125,25.078125,630
631,1695774184723,0.08984375,-2.0,1.999939,170.82812,-245.5,70.03125,631
632,1695774184763,-0.6767578,-1.975647,-0.14141846,-6.359375,132.10938,12.46875,632
633,1695774184803,-0.39697266,-1.5767212,-0.37530518,50.265625,47.78125,31.3125,633
634,1695774184843,-0.6098633,-1.0332642,0.2723999,-16.609375,14.34375,-3.3125,634
635,1695774184883,-0.004638672,-0.8171997,0.42547607,-32.90625,12.90625,9.875,635
636,1695774184923,0.5620117,-0.41119385,-0.17266846,16.65625,62.15625,56.109375,636
637,1695774184963,-0.14111328,0.39666748,0.055847168,-1.75,-15.484375,27.125,637
638,1695774185003,-0.01953125,0.31781006,-0.055236816,0.3125,-42.875,10.875,638
639,1695774185043,0.053222656,0.17840576,-0.3040161,-18.328125,-36.890625,1.984375,639
640,1695774185083,-0.21142578,-0.17120361,-0.066711426,2.140625,8.828125,-43.859375,640
641,1695774185123,1.999939,-2.0,-0.18634033,38.640625,-140.39062,55.0,641
642,1695774185163,-0.1274414,-2.0,0.2555542,3.265625,44.09375,-18.484375,642
643,1695774185203,-0.6660156,-1.5320435,0.31756592,10.90625,-57.171875,19.796875,643
644,1695774185243,-0.4296875,-1.0584106,0.41937256,3.484375,-70.0,-59.125,644
645,1695774185283,-0.2854004,-0.772522,0.70843506,-20.125,-41.28125,-38.46875,645
646,1695774185323,-0.10180664,-0.23077393,0.14056396,18.34375,12.140625,-18.15625,646
647,1695774185363,-0.032958984,0.46453857,-0.3665161,-0.53125,40.90625,-5.40625,647
648,1695774185403,-0.11816406,1.1671753,-0.5003052,11.03125,21.953125,-12.640625,648
649,1695774185443,0.16699219,-0.35968018,0.026062012,10.953125,3.125,-24.015625,649
650,1695774185483,-0.25732422,-1.1189575,-0.7227173,-37.890625,1.109375,47.453125,650
651,1695774185523,0.12036133,-2.0,1.999939,45.34375,66.671875,24.375,651
652,1695774185563,-1.1152344,-1.631897,0.35906982,-51.40625,83.484375,-10.265625,652
653,1695774185603,-0.19726562,-1.5591431,-0.56256104,27.5,25.328125,19.515625,653
654,1695774185643,-0.40014648,-0.5979614,0.43133545,-25.078125,9.0,-9.9375,654
655,1695774185683,0.3190918,-0.9819946,0.3949585,-26.578125,4.265625,26.53125,655
656,1695774185723,0.3918457,0.08709717,-0.23077393,10.265625,0.171875,63.234375,656
657,1695774185763,-0.13232422,0.29437256,-0.042541504,-1.4375,-23.84375,13.09375,657
658,1695774185803,-0.06274414,0.27093506,-0.078430176,-21.578125,-45.984375,-7.0,658
659,1695774185843,0.049560547,0.13153076,-0.40924072,-33.59375,-38.6875,-16.265625,659
660,1695774185883,-1.777832,-2.0,-0.2053833,-69.78125,155.07812,-93.5,660
661,1695774185923,0.04296875,-2.0,1.7836304,31.4375,13.078125,2.046875,661
662,1695774185963,-0.66674805,-1.7901001,-0.22833252,-49.078125,-71.8125,33.53125,662
663,1695774186003,-0.3984375,-1.7647095,0.28948975,66.734375,-14.265625,-14.203125,663
664,1695774186043,-0.7426758,-0.39190674,0.21234131,-25.03125,-62.875,-82.953125,664
665,1695774186083,0.12670898,-0.6069946,0.3270874,9.265625,-4.828125,-51.4375,665
666,1695774186123,-0.02734375,0.101989746,-0.018615723,-3.0,26.125,-5.5,666
667,1695774186163,-0.110839844,0.42303467,-0.286438,24.609375,27.734375,1.765625,667
668,1695774186203,-0.099853516,0.6412964,-0.2781372,32.75,24.6875,-34.28125,668
669,1695774186243,0.13623047,-0.7744751,-0.29473877,-36.015625,15.53125,-4.625,669
670,1695774186283,0.018310547,-2.0,1.5143433,342.42188,-260.98438,154.84375,670
671,1695774186323,-0.6533203,-2.0,-0.0015258789,-45.5,162.6875,27.15625,671
672,1695774186363,-0.8562012,-1.2197876,-0.21173096,50.25,61.625,26.859375,672
673,1695774186403,-0.4621582,-1.458313,0.15447998,11.296875,20.703125,-12.9375,673
674,1695774186443,0.028320312,-0.8245239,0.47991943,-50.984375,3.984375,-1.96875,674
675,1695774186483,0.6328125,-0.6995239,0.08880615,31.125,71.703125,52.953125,675
676,1695774186523,-0.010986328,0.25457764,-0.12652588,-2.625,-25.71875,48.09375,676
677,1695774186563,-0.25390625,0.3143921,-0.08331299,-22.921875,-53.53125,0.703125,677
678,1695774186603,0.07714844,0.20159912,-0.17120361,-14.0,-34.40625,-2.84375,678
679,1695774186643,0.09082031,0.043884277,-0.21392822,-25.375,-35.125,-34.78125,679
680,1695774186683,1.9135742,-2.0,1.0238647,129.5,11.28125,-81.46875,680
681,1695774186723,-0.4428711,-1.8008423,1.0304565,-6.59375,-17.203125,15.609375,681
682,1695774186763,-0.77734375,-1.5823364,0.20257568,-5.640625,-17.6875,16.4375,682
683,1695774186803,-0.23217773,-0.9678345,0.4244995,45.671875,-82.328125,-43.28125,683
684,1695774186843,-0.4477539,-1.0918579,0.76605225,-33.71875,-58.90625,-29.4375,684
685,1695774186883,-0.1796875,-0.55059814,0.29656982,17.8125,-6.1875,-20.65625,685
686,1695774186923,-0.11987305,0.2970581,-0.36309814,22.46875,41.109375,-16.890625,686
687,1695774186963,-0.30419922,0.7926636,-0.39996338,20.234375,30.96875,-19.46875,687
688,1695774187003,0.27075195,0.009216309,0.025817871,26.65625,30.34375,-38.109375,688
689,1695774187043,0.04296875,-0.8777466,-0.38653564,-17.453125,8.828125,13.234375,689
690,1695774187083,0.8845215,-2.0,1.0787964,317.17188,-191.70312,145.95312,690
691,1695774187123,-1.0339355,-1.774231,0.3156128,-28.609375,160.71875,20.40625,691
692,1695774187163,-0.75561523,-1.4231567,-0.23565674,45.71875,80.28125,17.390625,692
693,1695774187203,-0.64160156,-0.8591919,0.10491943,9.703125,18.609375,-11.953125,693
694,1695774187243,-0.015136719,-1.0422974,0.7037964,-37.546875,18.234375,-13.578125,694
695,1695774187283,0.5810547,-0.6914673,0.050476074,0.46875,54.96875,54.578125,695
696,1695774187323,0.17626953,0.2020874,-0.30059814,-1.5,-34.71875,70.90625,696
697,1695774187363,-0.11035156,0.27630615,0.06512451,7.515625,-42.015625,19.765625,697
698,1695774187403,-0.07470703,0.14276123,-0.14141846,-1.703125,-52.390625,-1.03125,698
699,1695774187443,-0.115234375,-0.04156494,-0.27374268,-59.390625,-39.25,-33.734375,699
700,1695774187483,1.999939,-2.0,-1.015686,176.28125,-208.45312,9.953125,700
701,1695774187523,0.7631836,-2.0,0.3673706,-16.140625,49.453125,-26.171875,701
702,1695774187563,-1.0556641,-1.5205688,-0.00030517578,19.203125,-19.421875,68.5,702
703,1695774187603,-0.5175781,-1.0471802,0.52386475,75.03125,-68.09375,-30.703125,703
704,1695774187643,-0.40527344,-0.9265747,0.56585693,-58.828125,-71.96875,-54.484375,704
705,1695774187683,-0.15942383,-0.2942505,0.2723999,-10.59375,13.671875,-40.875,705
706,1695774187723,-0.010986328,0.21990967,-0.21734619,-1.625,29.609375,-19.296875,706
707,1695774187763,-0.08081055,0.78704834,-0.4763794,50.90625,-0.265625,-17.265625,707
708,1695774187803,0.13964844,-0.09649658,0.025817871,26.984375,28.46875,-18.390625,708
709,1695774187843,-0.044433594,-0.7337036,-0.21539307,-51.78125,21.609375,12.96875,709
710,1695774187883,0.623291,-2.0,1.999939,170.15625,-185.51562,62.6875,710
711,1695774187923,-0.78881836,-2.0,-0.09088135,-40.859375,104.78125,25.6875,711
712,1695774187963,-0.63964844,-1.34552,0.031188965,71.671875,93.265625,20.09375,712
713,1695774188003,-0.57958984,-1.2371216,0.16619873,-14.84375,33.203125,-8.015625,713
714,1695774188043,-0.14013672,-0.25836182,0.1918335,-46.03125,-1.828125,-2.78125,714
715,1695774188083,0.43774414,-0.7527466,0.039245605,16.421875,68.515625,25.71875,715
716,1695774188123,0.33740234,0.097839355,-0.061340332,25.4375,18.546875,42.390625,716
717,1695774188163,-0.050048828,0.25042725,0.005554199,6.109375,-41.40625,21.46875,717
718,1695774188203,-0.0036621094,0.022399902,-0.49761963,-23.734375,-41.625,-7.484375,718
719,1695774188243,-0.33154297,-0.519104,-0.049621582,-10.34375,-0.6875,-46.625,719
720,1695774188283,0.6999512,-2.0,1.1139526,-56.28125,-237.0625,64.625,720
721,1695774188323,-0.21142578,-1.9436646,0.26507568,-29.640625,48.375,-15.75,721
722,1695774188363,-0.6062012,-1.3401489,0.25531006,11.71875,-60.3125,-1.8125,722
723,1695774188403,-0.3947754,-1.076477,0.371521,-23.46875,-77.875,-40.8125,723
724,1695774188443,-0.40551758,-0.48394775,0.670105,-19.875,-41.375,-36.140625,724
725,1695774188483,-0.104003906,-0.3904419,0.18841553,16.015625,11.46875,-25.90625,725
726,1695774188523,-0.028564453,0.4220581,-0.2559204,16.5,22.5625,-14.171875,726
727,1695774188563,0.018554688,0.90838623,-0.23565674,24.828125,-8.6875,-21.0625,727
728,1695774188603,0.043701172,-0.42608643,-0.40045166,-31.71875,27.546875,-22.734375,728
729,1695774188643,-1.3591309,-2.0,-2.0,-207.5,55.328125,66.203125,729
730,1695774188683,-0.27197266,-1.4546509,1.7255249,72.0,147.89062,18.609375,730
731,1695774188723,-1.2434082,-1.3267212,0.2555542,-32.34375,84.625,19.359375,731
732,1695774188763,-0.638916,-1.2114868,-0.3838501,-7.984375,-4.953125,-9.578125,732
733,1695774188803,-0.49243164,-1.1675415,0.27508545,-5.15625,24.53125,-30.03125,733
734,1695774188843,0.35498047,-1.399231,0.557312,-10.25,47.140625,3.46875,734
735,1695774188883,0.3330078,-0.5442505,0.005554199,36.796875,60.15625,65.578125,735
736,1695774188923,0.009033203,0.08319092,-0.17144775,-17.34375,-12.765625,68.3125,736
737,1695774188963,-0.40161133,0.5453491,0.007507324,-15.171875,-76.90625,14.53125,737
738,1695774189003,-0.11303711,0.08856201,-0.3171997,-40.3125,-3.59375,-34.8125,738
739,1695774189043,0.09106445,-1.7610474,0.085632324,-5.4375,4.015625,-60.0625,739
740,1695774189083,-0.45947266,-1.6611938,1.446228,-25.109375,-81.390625,38.171875,740
741,1695774189123,-0.41333008,-1.7630005,-0.2991333,-6.453125,-1.703125,26.640625,741
742,1695774189163,-0.923584,-0.9595337,0.28338623,33.28125,-49.703125,-30.640625,742
743,1695774189203,-0.20532227,-1.0120239,0.24383545,-21.59375,-71.515625,-61.640625,743
744,1695774189243,-0.40185547,-0.63604736,0.6642456,28.609375,-7.421875,-22.15625,744
745,1695774189283,-0.052734375,-0.16534424,0.12884521,13.96875,37.46875,-19.6875,745
746,1695774189323,-0.11303711,0.42474365,-0.456604,-9.0,12.25,-12.953125,746
747,1695774189363,-0.08081055,1.109314,-0.1272583,-2.203125,15.1875,-27.53125,747
748,1695774189403,-0.08325195,-0.67633057,-0.16217041,-38.71875,30.0625,-5.703125,748
749,1695774189443,-2.0,-2.0,0.27215576,250.0,-112.09375,103.3125,749
750,1695774189483,-0.2709961,-1.8745728,0.4335327,-2.375,166.90625,37.421875,750
751,1695774189523,-1.1362305,-1.0779419,0.5014038,66.359375,44.796875,36.421875,751
752,1695774189563,-0.6867676,-1.0881958,-0.0869751,-5.515625,45.0,-25.46875,752
753,1695774189603,-0.32177734,-0.7070923,0.09490967,-43.28125,-24.296875,-22.140625,753
754,1695774189643,0.38793945,-1.12677,0.44500732,19.625,58.046875,30.0625,754
755,1695774189683,0.43969727,-0.28912354,0.022888184,36.859375,54.53125,76.953125,755
756,1695774189723,-0.20336914,0.2958374,-0.007873535,-37.03125,-72.1875,32.46875,756
757,1695774189763,-0.19165039,0.11541748,-0.57354736,-15.34375,-63.15625,-4.625,757
758,1695774189803,-0.36279297,-0.19903564,0.050231934,-4.34375,18.28125,-52.453125,758
759,1695774189843,1.999939,-2.0,0.7736206,47.875,-197.1875,20.640625,759
