,timestamp,accel_x,accel_y,accel_z,gyro_x,gyro_y,gyro_z
0,1695742322917,0.05053711,-1.0005493,0.018981934,-17.046875,1.6875,-1.5625
1,1695742322956,0.06298828,-0.9961548,0.03363037,0.265625,-2.046875,-1.75
2,1695742322996,0.05078125,-0.9890747,-0.057434082,-3.234375,0.515625,-4.625
3,1695742323036,0.011962891,-0.99786377,0.0021362305,-15.4375,1.75,-4.125
4,1695742323077,0.024169922,-0.9849243,0.07098389,-4.578125,-0.265625,-2.328125
5,1695742323116,0.024169922,-0.97784424,0.004333496,0.546875,-0.359375,-1.859375
6,1695742323157,0.030029297,-1.0042114,0.0067749023,-8.59375,1.0625,-1.953125
7,1695742323196,0.033203125,-0.9920044,0.070007324,-6.859375,1.765625,-2.140625
8,1695742323236,0.007080078,-0.99664307,0.028015137,4.484375,-0.09375,-0.5
9,1695742323277,0.029052734,-1.008606,0.010192871,-8.59375,-0.34375,-1.109375
10,1695742323316,0.034423828,-0.9758911,0.09197998,-7.84375,0.859375,-1.875
11,1695742323356,0.0043945312,-0.9885864,0.04901123,2.5625,-0.15625,-1.375
12,1695742323397,0.018554688,-0.9963989,0.034362793,-2.96875,0.34375,-0.109375
13,1695742323437,0.03857422,-0.98516846,0.074157715,-1.484375,1.390625,-1.46875
14,1695742323476,0.009521484,-1.0003052,0.06512451,2.765625,0.734375,-0.140625
15,1695742323516,0.015380859,-1.0007935,0.066833496,7.265625,2.0625,1.21875
16,1695742323558,0.0087890625,-0.9939575,0.0048217773,9.703125,-1.734375,1.171875
17,1695742323597,0.0087890625,-0.9817505,0.024353027,7.59375,2.046875,2.625
18,1695742323639,0.0026855469,-0.98150635,-0.0095825195,12.84375,-1.40625,2.265625
19,1695742323659,0.03491211,-0.9968872,-0.023498535,4.359375,1.21875,3.09375
20,1695742323699,0.03857422,-0.9883423,0.0053100586,6.828125,-0.09375,2.375
21,1695742323741,0.059570312,-0.9859009,-0.034240723,7.25,-0.265625,1.890625
22,1695742323780,0.052978516,-0.97735596,-0.041809082,5.015625,-0.96875,1.734375
23,1695742323819,0.048339844,-0.9846802,-0.04107666,2.5625,-0.03125,1.9375
24,1695742323859,0.042236328,-0.97784424,-0.032287598,5.625,0.03125,0.75
25,1695742323902,0.048095703,-0.98760986,-0.07672119,7.203125,-0.609375,1.390625
26,1695742323939,0.051757812,-0.9812622,-0.061828613,1.703125,0.78125,1.109375
27,1695742323980,0.05517578,-0.98101807,-0.0881958,4.21875,-1.171875,0.75
28,1695742324020,0.07519531,-0.97491455,-0.08843994,-0.90625,0.734375,2.296875
29,1695742324060,0.05419922,-0.9795532,-0.082092285,1.953125,-0.25,0.359375
30,1695742324098,0.052001953,-0.96343994,-0.09039307,-0.546875,-0.40625,0.046875
31,1695742324140,0.05859375,-0.9541626,-0.09210205,-4.0,-1.46875,0.109375
32,1695742324181,0.09863281,-0.95562744,-0.08502197,-11.78125,-0.390625,-1.03125
33,1695742324221,0.07763672,-0.9776001,-0.03253174,-18.078125,1.265625,-2.75
34,1695742324263,0.0625,-1.022522,-0.002746582,-9.65625,-1.125,-1.34375
35,1695742324302,0.05883789,-0.99835205,-0.03741455,-6.375,-0.71875,-3.828125
36,1695742324345,0.047851562,-0.9915161,-0.018615723,-10.265625,0.90625,-5.515625
37,1695742324385,0.016113281,-0.9915161,-0.027160645,-10.078125,-0.234375,-5.703125
38,1695742324426,0.028564453,-0.987854,0.028503418,-14.875,1.515625,-4.15625
39,1695742324463,0.029296875,-0.9678345,0.07220459,-4.25,0.609375,-3.78125
40,1695742324502,0.02709961,-1.0083618,0.015563965,-4.34375,0.140625,-3.234375
41,1695742324544,0.030029297,-1.0005493,0.051452637,-11.46875,2.515625,-4.59375
42,1695742324585,0.0126953125,-0.9729614,0.082214355,-3.359375,1.125,-4.546875
43,1695742324624,-0.005859375,-0.9932251,0.03656006,-1.203125,0.296875,-2.75
44,1695742324660,-0.006591797,-0.9841919,0.078063965,-5.359375,1.109375,-2.203125
45,1695742324704,-0.013183594,-0.9915161,0.07733154,-3.421875,0.171875,-0.171875
46,1695742324745,-0.0014648438,-0.9871216,0.074401855,-0.265625,-0.46875,0.625
47,1695742324778,0.0063476562,-0.9837036,0.09051514,-1.453125,1.21875,-0.65625
48,1695742324820,-0.009765625,-1.005188,0.11273193,8.328125,2.5625,1.359375
49,1695742324860,-0.0068359375,-0.991272,0.03778076,16.34375,-1.15625,1.875
50,1695742324880,0.0126953125,-0.98760986,-0.0256958,11.25,-0.875,2.78125
51,1695742324920,0.0073242188,-0.9915161,0.031433105,0.6875,3.921875,2.796875
52,1695742324960,0.011230469,-0.9937134,0.015563965,17.71875,-1.078125,2.71875
53,1695742324999,0.032470703,-0.99664307,-0.069885254,5.40625,0.015625,2.640625
54,1695742325041,0.041748047,-0.9817505,0.018249512,-4.03125,0.640625,0.796875
55,1695742325086,0.030029297,-0.9920044,0.0048217773,11.125,-1.203125,2.171875
56,1695742325118,0.03491211,-0.9968872,-0.05303955,9.828125,0.25,1.484375
57,1695742325160,0.016357422,-0.9885864,-0.059143066,5.265625,-0.953125,0.9375
58,1695742325200,0.030517578,-0.97076416,-0.0647583,1.59375,-0.078125,1.421875
59,1695742325242,0.041259766,-0.98760986,-0.039855957,5.734375,-0.171875,2.578125
60,1695742325293,0.02368164,-0.98809814,-0.105285645,10.21875,-1.328125,0.453125
61,1695742325323,0.05419922,-0.9758911,-0.11383057,-5.09375,-0.453125,1.734375
62,1695742325360,0.06518555,-0.95928955,-0.016906738,-4.703125,0.609375,0.9375
63,1695742325402,0.036132812,-0.9795532,-0.066711426,10.265625,-1.953125,0.703125
64,1695742325443,0.06738281,-0.97442627,-0.13970947,-4.296875,-1.953125,1.34375
65,1695742325480,0.061523438,-0.9690552,-0.04473877,-9.21875,1.0625,-0.5
66,1695742325528,0.049316406,-0.956604,-0.08428955,-2.453125,-0.890625,-2.171875
67,1695742325560,0.051757812,-0.98150635,-0.08404541,-10.9375,-0.578125,-0.453125
68,1695742325599,0.051757812,-1.0061646,-0.04058838,-15.671875,0.5,-2.046875
69,1695742325641,0.06591797,-0.9956665,-0.0020141602,-12.34375,1.09375,-3.1875
70,1695742325680,0.03930664,-1.0032349,-0.022766113,-3.234375,0.6875,-4.03125
71,1695742325720,0.017089844,-0.987854,-0.035949707,-12.328125,1.15625,-5.515625
72,1695742325762,0.0056152344,-0.97906494,0.042419434,-13.4375,1.890625,-3.296875
73,1695742325800,0.0234375,-1.0061646,0.031188965,-4.0625,-0.625,-2.96875
74,1695742325839,0.025878906,-0.9944458,0.026794434,-8.484375,0.828125,-3.8125
75,1695742325881,0.0063476562,-0.9651489,0.08538818,-4.21875,0.921875,-3.25
76,1695742325922,-0.0068359375,-1.0029907,0.018737793,0.78125,-1.265625,-1.828125
77,1695742325963,0.013916016,-0.99591064,0.058288574,-5.515625,-0.203125,-2.671875
78,1695742325998,0.00048828125,-1.0015259,0.054626465,0.359375,0.3125,-1.796875
79,1695742326041,-0.0053710938,-0.9849243,0.041931152,-2.609375,0.15625,-0.84375
80,1695742326101,-0.0061035156,-0.98687744,0.055603027,-2.71875,-0.21875,-0.140625
81,1695742326122,0.0068359375,-0.9985962,0.050231934,-0.6875,0.109375,0.046875
82,1695742326140,0.0087890625,-0.9885864,0.05267334,-1.734375,1.328125,-0.796875
83,1695742326181,-0.017333984,-1.006897,0.08807373,1.6875,3.96875,1.484375
84,1695742326221,0.0075683594,-0.9824829,0.03778076,10.078125,-1.828125,1.3125
85,1695742326261,0.016601562,-0.9932251,-0.01763916,4.140625,0.890625,1.9375
86,1695742326320,0.013427734,-0.99542236,0.08001709,-1.375,1.421875,1.34375
87,1695742326343,-0.008544922,-0.99420166,0.015563965,15.5,-0.421875,1.296875
88,1695742326384,0.026367188,-0.9956665,-0.011291504,4.71875,-0.796875,2.6875
89,1695742326430,0.025146484,-0.99053955,0.01776123,6.03125,1.1875,1.921875
90,1695742326465,0.0234375,-0.9841919,-0.022521973,11.609375,-2.171875,2.46875
91,1695742326504,0.031982422,-0.9939575,-0.05670166,4.734375,-0.625,1.8125
92,1695742326545,0.033691406,-0.9859009,-0.028381348,0.5,0.046875,0.5
93,1695742326582,0.01171875,-0.98565674,-0.015197754,4.75,-0.203125,1.5625
94,1695742326622,0.029541016,-0.99591064,-0.07330322,6.25,-1.96875,0.609375
95,1695742326662,0.034423828,-0.9834595,-0.055725098,-6.078125,0.484375,1.171875
96,1695742326703,0.034179688,-0.97979736,-0.02130127,-0.890625,-1.65625,-0.4375
97,1695742326743,0.05102539,-0.9631958,-0.06793213,-1.46875,-0.46875,0.375
98,1695742326782,0.042236328,-0.9927368,-0.023254395,-0.578125,-1.0,0.421875
99,1695742326819,0.043701172,-0.956604,-0.066467285,-5.21875,-0.359375,-0.15625
100,1695742326859,0.057373047,-1.0032349,0.009460449,-0.859375,-0.125,0.96875
101,1695742326899,0.064697266,-0.96417236,-0.097473145,-0.6875,-1.109375,-3.0
102,1695742326938,0.05859375,-0.9751587,-0.06890869,-18.1875,1.390625,-2.28125
103,1695742326977,0.025390625,-0.9834595,0.055114746,-16.546875,2.515625,-1.78125
104,1695742327018,0.028564453,-1.0127563,0.023132324,1.578125,-0.859375,-1.71875
105,1695742327059,0.01586914,-1.0064087,-0.03277588,-4.25,1.125,-3.515625
106,1695742327102,0.025390625,-0.99176025,0.0026245117,-11.875,0.578125,-4.53125
107,1695742327140,0.013671875,-0.9932251,0.046569824,-7.03125,1.625,-3.25
108,1695742327179,0.010009766,-0.9963989,0.039001465,-2.796875,0.203125,-2.796875
109,1695742327220,0.00024414062,-0.9915161,0.043151855,-5.375,0.34375,-3.25
110,1695742327261,0.0031738281,-0.99884033,0.06048584,-3.5,1.0,-2.765625
111,1695742327304,-0.0087890625,-1.0066528,0.04534912,-5.09375,0.1875,-1.359375
112,1695742327344,0.0063476562,-0.98883057,0.06365967,-2.78125,0.203125,-0.96875
113,1695742327360,0.0,-0.98443604,0.050964355,-2.8125,0.546875,-2.0
114,1695742327402,-0.008544922,-0.99346924,0.070007324,-3.765625,1.078125,-1.28125
115,1695742327442,-0.008300781,-0.9961548,0.06341553,1.3125,0.46875,-0.34375
116,1695742327480,0.00024414062,-0.99713135,0.06829834,-2.9375,0.609375,-1.28125
117,1695742327521,-0.0041503906,-0.9927368,0.07562256,-1.171875,1.953125,-0.875
118,1695742327561,-0.018310547,-0.9976196,0.0836792,1.265625,1.609375,0.703125
119,1695742327599,-0.0024414062,-0.9985962,0.081726074,9.828125,-0.171875,2.453125
120,1695742327641,-0.00048828125,-0.99176025,-0.008850098,12.4375,-1.53125,2.015625
121,1695742327679,0.0068359375,-0.98760986,0.022644043,-0.953125,1.3125,2.328125
122,1695742327721,0.020019531,-0.9837036,0.078063965,8.890625,-0.796875,3.3125
123,1695742327760,0.026367188,-0.98809814,-0.01763916,11.703125,0.265625,1.4375
124,1695742327801,0.018798828,-0.9973755,-0.0115356445,4.03125,0.140625,1.9375
125,1695742327840,0.01928711,-0.99468994,0.0053100586,4.9375,-0.109375,1.953125
126,1695742327881,0.018554688,-0.9817505,-0.014709473,8.328125,-0.671875,2.15625
127,1695742327925,0.02734375,-0.99542236,-0.04888916,7.203125,-0.828125,1.765625
128,1695742327959,0.026611328,-0.98565674,-0.046203613,0.65625,0.46875,1.03125
129,1695742328000,0.01977539,-0.98321533,-0.03326416,6.8125,-0.40625,1.921875
130,1695742328040,0.03857422,-0.99053955,-0.07598877,3.21875,-0.359375,1.03125
131,1695742328079,0.024169922,-0.99786377,-0.046936035,-0.171875,-0.296875,0.78125
132,1695742328119,0.040039062,-0.9663696,-0.055725098,0.125,0.65625,0.296875
133,1695742328162,0.04345703,-0.98443604,-0.040100098,2.40625,-0.765625,1.640625
134,1695742328201,0.056884766,-0.9607544,-0.089660645,-2.34375,-1.453125,0.390625
135,1695742328241,0.053222656,-0.9854126,-0.030578613,-6.171875,-0.28125,0.890625
136,1695742328281,0.053466797,-0.9805298,-0.061340332,-3.375,-0.90625,-1.28125
137,1695742328321,0.06225586,-0.9685669,-0.08892822,-12.296875,0.015625,-2.109375
138,1695742328362,0.048339844,-0.99835205,0.005554199,-15.515625,1.46875,-1.921875
139,1695742328401,0.040527344,-0.9993286,-0.0044555664,-6.921875,0.03125,-3.9375
140,1695742328441,0.02758789,-0.99786377,-0.020568848,-7.75,0.96875,-4.1875
141,1695742328482,0.016845703,-0.9932251,0.01751709,-11.046875,1.203125,-3.984375
142,1695742328527,0.0043945312,-0.9968872,0.043884277,-8.828125,0.09375,-2.296875
143,1695742328585,0.022949219,-0.9981079,0.04486084,-5.453125,0.109375,-2.625
144,1695742328588,0.0146484375,-1.0015259,0.04559326,-4.890625,1.46875,-3.390625
145,1695742328627,-0.0075683594,-0.989563,0.04925537,-4.34375,1.359375,-2.875
146,1695742328661,0.0056152344,-0.9834595,0.06365967,-3.59375,0.609375,-2.65625
147,1695742328701,-0.0053710938,-0.9927368,0.04852295,-0.34375,-0.375,-0.84375
148,1695742328744,0.0053710938,-0.99786377,0.06756592,-4.53125,0.34375,-2.078125
149,1695742328788,-0.011962891,-0.9927368,0.07684326,-0.765625,0.765625,-1.6875
150,1695742328825,-0.0041503906,-0.99468994,0.05267334,0.515625,0.796875,-0.9375
151,1695742328862,-0.0036621094,-0.98931885,0.051452637,-2.140625,0.140625,-1.265625
152,1695742328902,-0.0048828125,-0.9902954,0.081970215,-1.328125,2.203125,-0.09375
153,1695742328944,-0.011230469,-1.0020142,0.07928467,6.515625,0.90625,2.203125
154,1695742328987,-0.009765625,-0.986145,0.00970459,9.546875,-1.28125,1.8125
155,1695742329021,-0.0031738281,-1.000061,0.0368042,2.71875,1.03125,2.71875
156,1695742329061,0.0036621094,-0.98443604,0.032165527,9.53125,-0.15625,3.125
157,1695742329099,0.0061035156,-0.99468994,0.0006713867,4.96875,-0.203125,2.625
158,1695742329141,0.020019531,-0.9907837,0.026306152,6.09375,0.078125,2.953125
159,1695742329178,0.032470703,-0.98931885,-0.0115356445,10.9375,-0.921875,1.8125
160,1695742329220,0.025634766,-0.99102783,-0.025939941,6.359375,-0.140625,1.65625
161,1695742329261,0.018554688,-0.987854,-0.023498535,5.4375,0.234375,1.90625
162,1695742329300,0.030517578,-0.98565674,-0.03741455,8.625,-1.015625,1.796875
163,1695742329343,0.03149414,-0.9915161,-0.10040283,3.34375,-1.375,0.390625
164,1695742329384,0.028808594,-0.99224854,-0.054748535,-9.21875,-0.671875,-0.109375
165,1695742329423,0.056884766,-0.9692993,-0.015197754,-3.21875,0.0625,-0.203125
166,1695742329464,0.011474609,-0.9976196,-0.046691895,4.109375,-0.078125,-0.6875
167,1695742329504,0.021484375,-0.98223877,-0.06011963,-3.671875,-0.375,1.96875
168,1695742329545,0.05126953,-0.989563,-0.016174316,-0.5,-0.921875,1.5625
169,1695742329584,0.057128906,-0.9595337,-0.06402588,0.109375,-1.203125,0.625
170,1695742329627,0.055419922,-0.9841919,-0.02520752,-4.375,0.828125,1.28125
171,1695742329662,0.059814453,-0.9631958,-0.059387207,-1.453125,-1.046875,-0.625
172,1695742329703,0.06958008,-0.9639282,-0.06304932,-14.984375,0.734375,-1.6875
173,1695742329742,0.040283203,-0.9956665,0.073913574,-14.28125,2.84375,-0.65625
174,1695742329801,0.039794922,-1.0181274,-0.0032348633,5.3125,-2.984375,-2.109375
175,1695742329821,0.033935547,-0.9968872,-0.074523926,-9.234375,1.828125,-4.390625
176,1695742329842,0.009033203,-0.98687744,0.058776855,-15.671875,2.40625,-3.1875
177,1695742329881,0.0056152344,-0.989563,0.038269043,1.40625,-0.65625,-2.046875
178,1695742329921,0.0234375,-0.9998169,-0.013000488,-5.5625,0.640625,-1.65625
179,1695742329961,0.01977539,-0.98931885,0.06317139,-9.375,1.328125,-1.640625
180,1695742330002,0.025146484,-0.9924927,0.06463623,-0.15625,-0.109375,-1.171875
181,1695742330044,0.030029297,-1.0027466,0.018493652,-3.265625,0.0625,-1.171875
182,1695742330085,0.028320312,-0.989563,0.062438965,-7.609375,0.84375,-3.046875
183,1695742330122,0.0014648438,-0.98516846,0.07733154,-3.640625,0.390625,-2.484375
184,1695742330160,0.0026855469,-0.9951782,0.047790527,-3.078125,-0.03125,-1.5625
185,1695742330203,0.007080078,-0.98687744,0.07562256,-3.6875,0.53125,-1.078125
186,1695742330241,0.013427734,-0.9963989,0.06121826,-0.890625,-0.390625,-0.703125
187,1695742330280,0.0048828125,-0.99102783,0.06951904,-2.859375,1.078125,-1.4375
188,1695742330321,-0.00024414062,-1.0005493,0.089538574,2.15625,1.984375,-0.453125
189,1695742330361,0.0007324219,-0.99713135,0.07147217,5.796875,0.25,0.5
190,1695742330401,-0.009033203,-0.99346924,0.0119018555,5.125,-0.5,0.484375
191,1695742330445,0.004638672,-0.9859009,0.05682373,1.5625,1.328125,2.171875
192,1695742330486,0.0043945312,-0.99664307,0.06341553,5.375,-0.28125,2.140625
193,1695742330522,0.015136719,-0.9993286,0.018493652,7.390625,0.375,1.921875
194,1695742330566,0.025146484,-0.98883057,0.02142334,7.3125,0.0,1.890625
195,1695742330603,0.022705078,-0.9800415,0.005554199,4.453125,0.125,1.671875
196,1695742330644,0.020507812,-0.99005127,0.014099121,5.1875,0.078125,1.828125
197,1695742330684,0.025390625,-0.99176025,-0.008361816,6.109375,-0.734375,2.28125
198,1695742330727,0.026611328,-0.9981079,-0.008850098,5.046875,-0.03125,1.421875
199,1695742330764,0.03173828,-0.9951782,-0.022033691,5.359375,0.375,1.375
200,1695742330798,0.041015625,-0.987854,-0.028381348,6.25,0.34375,1.84375
201,1695742330839,0.056152344,-0.98883057,-0.061828613,6.84375,0.28125,-0.421875
202,1695742330901,0.03564453,-0.97076416,-0.058166504,-2.09375,3.46875,-0.21875
203,1695742330920,0.024902344,-0.97442627,-0.024230957,4.625,-0.53125,0.375
204,1695742330963,0.040283203,-0.97369385,-0.09527588,2.0,-1.0,0.265625
205,1695742330999,0.060791016,-0.98809814,-0.054748535,-8.5625,0.046875,-0.015625
206,1695742331037,0.055664062,-0.9771118,-0.046936035,-9.703125,0.25,-3.125
207,1695742331057,0.034423828,-0.99053955,-0.043518066,-14.265625,0.375,-2.5625
208,1695742331099,0.02758789,-0.98809814,0.024597168,-16.40625,0.390625,-2.15625
209,1695742331140,0.03466797,-1.0059204,0.046569824,-4.390625,-1.09375,-1.703125
210,1695742331179,0.026611328,-1.0059204,-0.0051879883,-6.078125,0.8125,-4.5625
211,1695742331218,0.0,-0.9932251,0.014831543,-9.96875,0.15625,-3.53125
212,1695742331258,0.010498047,-0.9795532,0.06097412,-5.0,0.15625,-2.5625
213,1695742331300,0.0146484375,-0.9937134,0.03338623,-4.109375,0.15625,-3.359375
214,1695742331342,0.008544922,-0.9898071,0.05267334,-7.546875,1.40625,-3.46875
215,1695742331379,0.0087890625,-1.0090942,0.05633545,-1.734375,-1.625,-2.546875
216,1695742331421,0.0024414062,-0.9907837,0.047790527,-4.0,1.640625,-2.734375
217,1695742331462,-0.028320312,-0.9783325,0.06976318,0.734375,0.8125,-2.328125
218,1695742331501,-0.028808594,-1.000061,0.046569824,-2.046875,-0.625,-2.03125
219,1695742331542,-0.0043945312,-0.9924927,0.07537842,-3.09375,0.25,-2.109375
220,1695742331588,-0.016113281,-0.9920044,0.058044434,-0.078125,1.015625,-0.953125
221,1695742331624,-0.027832031,-1.0012817,0.06732178,-1.78125,1.078125,0.125
222,1695742331669,-0.0068359375,-0.99420166,0.06976318,-2.03125,1.0,-0.734375
223,1695742331701,-0.010009766,-1.00177,0.08001709,-2.171875,2.171875,-0.59375
224,1695742331743,-0.01928711,-1.0037231,0.082458496,1.96875,-0.21875,0.703125
225,1695742331783,-0.022705078,-0.9846802,0.0038452148,1.546875,-1.390625,0.25
226,1695742331825,-0.004638672,-0.9949341,0.10443115,-4.34375,2.5,2.5
227,1695742331866,-0.009521484,-0.9976196,0.07562256,6.375,-1.171875,1.84375
228,1695742331906,-0.005126953,-0.9949341,0.03338623,5.640625,0.6875,2.296875
229,1695742331942,0.013671875,-0.9949341,0.058776855,2.484375,-0.34375,2.234375
230,1695742331986,0.011230469,-0.989563,0.04144287,6.78125,-0.734375,1.78125
231,1695742332022,0.020507812,-0.9990845,0.016784668,3.390625,-1.234375,1.640625
232,1695742332067,0.0007324219,-1.0007935,0.019714355,-0.1875,1.71875,-0.375
233,1695742332103,-0.01928711,-0.97198486,0.038024902,3.609375,0.359375,1.03125
234,1695742332144,0.02709961,-0.9981079,0.036071777,6.390625,-1.84375,3.453125
235,1695742332180,0.03955078,-0.99468994,-0.01373291,6.578125,-0.78125,1.015625
236,1695742332219,0.0073242188,-1.000061,-0.01373291,4.46875,-0.8125,1.015625
237,1695742332260,0.020507812,-0.9807739,-0.007385254,2.453125,-0.96875,1.625
238,1695742332279,0.032714844,-0.9846802,-0.027404785,4.28125,-1.453125,1.46875
239,1695742332320,0.03930664,-0.9656372,-0.034484863,-1.90625,-0.34375,0.453125
240,1695742332360,0.049072266,-0.97857666,-0.04547119,-7.25,-0.890625,-0.4375
241,1695742332400,0.05444336,-0.98394775,-0.011779785,-17.703125,2.140625,-2.28125
242,1695742332440,0.041503906,-0.99664307,0.06951904,-11.59375,1.28125,-1.6875
243,1695742332481,0.03955078,-1.0193481,0.022888184,-0.0625,-0.859375,-3.484375
244,1695742332520,0.012939453,-1.0066528,-0.0022583008,-11.90625,2.171875,-5.96875
245,1695742332563,-0.016357422,-0.9981079,0.1083374,-1.03125,-0.0625,-3.75
246,1695742332603,-0.006591797,-0.99176025,0.02923584,2.171875,-0.203125,-2.78125
247,1695742332643,0.0034179688,-0.99591064,0.04559326,-3.609375,0.84375,-2.75
248,1695742332687,-0.0078125,-0.99224854,0.058532715,-2.71875,0.96875,-2.890625
249,1695742332725,-0.0075683594,-0.9973755,0.06390381,-1.140625,1.6875,-1.84375
250,1695742332767,-0.010498047,-0.99346924,0.03729248,-5.328125,1.34375,-1.734375
251,1695742332803,-0.0056152344,-0.9890747,0.07757568,-3.9375,0.8125,-1.1875
252,1695742332841,-0.014160156,-0.9924927,0.06439209,-0.171875,0.84375,-2.609375
253,1695742332888,-0.045166016,-0.9932251,0.062194824,-0.03125,2.09375,-2.203125
254,1695742332925,-0.01928711,-1.0076294,0.055603027,-3.734375,-0.40625,0.0625
255,1695742332968,-0.008544922,-0.99468994,0.08685303,-3.234375,2.734375,1.390625
256,1695742333003,-0.010253906,-0.97906494,0.07196045,5.984375,-1.21875,0.390625
257,1695742333045,-0.046875,-0.9717407,0.06854248,10.15625,1.21875,4.421875
258,1695742333086,-0.001953125,-1.020813,0.04852295,11.640625,-3.59375,5.625
259,1695742333125,0.060546875,-1.0020142,-0.034973145,5.453125,-1.5,1.953125
260,1695742333168,0.0024414062,-0.98516846,0.039245605,1.84375,2.453125,1.671875
261,1695742333203,-0.0012207031,-0.991272,0.010437012,11.3125,-3.671875,2.9375
262,1695742333238,0.0234375,-0.9866333,-0.0256958,5.734375,-0.765625,3.421875
263,1695742333278,0.03149414,-1.003479,-0.0178833,5.46875,-1.421875,2.28125
264,1695742333322,0.024902344,-0.9866333,-0.027404785,1.328125,-0.03125,0.9375
265,1695742333360,0.0007324219,-0.98760986,-0.008361816,5.234375,0.359375,2.375
266,1695742333401,0.033447266,-0.99176025,-0.0635376,5.40625,-3.5,3.0
267,1695742333442,0.046142578,-0.9854126,-0.042541504,-3.03125,0.890625,2.171875
268,1695742333481,0.029541016,-0.9866333,0.0060424805,5.09375,-0.375,2.171875
269,1695742333499,0.034179688,-0.9949341,-0.07623291,12.640625,-2.640625,2.875
270,1695742333541,0.04638672,-0.9795532,-0.11505127,-2.328125,-0.46875,1.125
271,1695742333581,0.052246094,-0.9534302,-0.023986816,-7.546875,-0.28125,2.203125
272,1695742333622,0.071777344,-0.9734497,-0.066467285,5.21875,-2.015625,1.375
273,1695742333663,0.076660156,-0.9685669,-0.1116333,-11.046875,0.375,-0.015625
274,1695742333702,0.088378906,-0.9727173,-0.01739502,-20.296875,0.3125,-3.15625
275,1695742333744,0.050048828,-1.00177,0.015808105,-9.625,0.890625,-3.34375
276,1695742333783,0.040039062,-1.0071411,-0.0025024414,-5.078125,0.078125,-2.625
277,1695742333822,0.032470703,-1.0154419,-0.020812988,-8.703125,0.125,-3.75
278,1695742333864,0.016357422,-1.0005493,0.027770996,-12.4375,1.203125,-3.8125
279,1695742333902,0.03149414,-0.9690552,0.04168701,-4.875,-1.421875,-3.5
280,1695742333941,0.025390625,-0.98101807,0.044128418,-2.015625,1.34375,-3.3125
281,1695742333982,0.0087890625,-1.005188,0.035583496,-5.078125,1.40625,-3.796875
282,1695742334021,0.016601562,-0.991272,0.04534912,-3.328125,0.59375,-3.015625
283,1695742334065,0.0234375,-0.99884033,0.030456543,-0.890625,0.875,-2.46875
284,1695742334101,-0.0048828125,-0.99542236,0.04486084,-5.03125,1.078125,-1.875
285,1695742334142,0.014404297,-0.98443604,0.059509277,-3.515625,0.0,-2.71875
286,1695742334181,0.0034179688,-0.99053955,0.06561279,-4.53125,1.984375,-3.140625
287,1695742334219,-0.013916016,-0.99884033,0.08392334,-0.484375,0.65625,-1.890625
288,1695742334259,0.0048828125,-1.0020142,0.044128418,-0.53125,0.34375,-1.78125
289,1695742334300,-0.012939453,-0.9924927,0.06365967,-2.0,2.03125,-1.609375
290,1695742334341,-0.0056152344,-1.000061,0.074157715,4.890625,-0.375,0.828125
291,1695742334382,-0.0234375,-1.0081177,0.055603027,4.390625,0.921875,0.875
292,1695742334423,-0.010253906,-0.98565674,0.034118652,10.03125,-1.328125,3.375
293,1695742334464,0.016845703,-0.97979736,0.01727295,3.546875,0.203125,2.09375
294,1695742334508,0.019042969,-1.0027466,0.036071777,0.859375,-0.015625,1.96875
295,1695742334541,0.0012207031,-0.9871216,0.035339355,6.234375,0.734375,1.453125
296,1695742334584,-0.010498047,-1.0061646,0.0040893555,8.5,-0.96875,3.171875
297,1695742334625,0.04248047,-0.9890747,-0.0064086914,3.1875,-1.375,2.640625
298,1695742334663,0.042236328,-0.9776001,-0.0010375977,6.09375,0.421875,1.3125
299,1695742334705,0.012451172,-0.9976196,-0.012756348,7.21875,-0.578125,2.390625
300,1695742334743,0.016357422,-0.98883057,-0.0413208,7.234375,-1.28125,2.09375
301,1695742334760,0.041259766,-0.9898071,-0.046691895,1.90625,-0.1875,1.703125
302,1695742334802,0.03466797,-0.9951782,-0.023498535,4.0,-0.171875,0.96875
303,1695742334846,0.021484375,-0.9812622,-0.06744385,6.28125,-1.109375,1.125
304,1695742334884,0.03881836,-0.98565674,-0.06768799,-2.125,-0.6875,0.78125
305,1695742334925,0.05493164,-0.975647,-0.034484863,-1.21875,-0.640625,1.53125
306,1695742334967,0.056152344,-0.96954346,-0.078430176,2.375,-1.5,-0.1875
307,1695742335008,0.06567383,-0.9624634,-0.08087158,-13.734375,-0.0625,-0.671875
308,1695742335039,0.055908203,-0.97125244,-0.016174316,-19.21875,1.484375,-2.140625
309,1695742335083,0.0546875,-1.006897,0.036315918,-11.03125,0.84375,-1.890625
310,1695742335121,0.056640625,-1.0164185,-0.0017700195,-1.65625,-0.953125,-3.21875
311,1695742335161,0.024169922,-0.99713135,-0.030822754,-10.921875,1.5625,-6.40625
312,1695742335199,-0.009033203,-0.9829712,0.050231934,-12.640625,1.640625,-4.6875
313,1695742335239,0.0041503906,-0.9907837,0.046569824,-2.421875,-1.25,-2.40625
314,1695742335277,0.01953125,-0.9976196,0.028259277,-7.203125,0.75,-3.609375
315,1695742335317,0.014160156,-0.97784424,0.085632324,-5.109375,2.625,-4.21875
316,1695742335357,-0.018066406,-0.9993286,0.02532959,1.71875,-0.671875,-1.4375
317,1695742335397,0.014404297,-1.003479,0.059020996,-6.953125,0.640625,-1.921875
318,1695742335437,0.014404297,-0.9819946,0.070739746,-1.03125,0.359375,-3.390625
319,1695742335478,-0.021728516,-0.9907837,0.05657959,-0.984375,0.359375,-1.109375
320,1695742335519,-0.0126953125,-0.9976196,0.070739746,-2.984375,0.40625,-1.328125
321,1695742335559,-0.010009766,-0.99298096,0.058288574,-2.25,1.390625,-1.375
322,1695742335603,-0.021484375,-1.0061646,0.074645996,-2.296875,1.609375,-0.09375
323,1695742335646,-0.024169922,-0.9949341,0.09100342,2.765625,1.703125,1.78125
324,1695742335680,-0.012939453,-0.99713135,0.045837402,5.328125,-1.203125,3.109375
325,1695742335719,0.005859375,-0.99005127,0.023132324,1.296875,-0.75,2.84375
326,1695742335761,0.0078125,-0.9846802,0.086120605,1.78125,1.359375,3.03125
327,1695742335801,0.0061035156,-0.9973755,0.053649902,11.765625,-0.609375,3.4375
328,1695742335843,0.017089844,-0.987854,-0.009094238,12.625,-0.4375,2.5
329,1695742335882,0.028320312,-0.9956665,0.00970459,0.0,0.984375,2.3125
330,1695742335923,0.030029297,-0.9841919,0.038757324,7.296875,-1.25,2.484375
331,1695742335960,0.03173828,-0.99102783,-0.027648926,11.140625,-0.8125,2.40625
332,1695742335979,0.042236328,-1.0176392,-0.038879395,2.34375,-0.859375,1.578125
333,1695742336019,0.022705078,-0.9819946,-0.050354004,-0.796875,-0.015625,0.0625
334,1695742336066,0.013183594,-0.9768677,-0.008361816,-0.0625,0.125,1.734375
335,1695742336106,0.04321289,-0.97442627,-0.026428223,2.71875,-1.359375,0.765625
336,1695742336139,0.030761719,-0.9885864,-0.038635254,-0.5625,-0.15625,1.4375
337,1695742336180,0.04711914,-0.9854126,-0.0020141602,-0.359375,-0.984375,1.46875
338,1695742336220,0.06201172,-0.9661255,-0.06036377,0.578125,-1.15625,-0.28125
339,1695742336260,0.061523438,-0.9663696,-0.03277588,-12.171875,0.953125,-0.53125
340,1695742336298,0.059326172,-0.9734497,0.024353027,-12.515625,-0.078125,-1.859375
341,1695742336339,0.04321289,-0.9961548,-0.0044555664,-5.671875,-0.25,-1.984375
342,1695742336381,0.035888672,-1.0125122,0.0048217773,-9.78125,1.5,-2.375
343,1695742336420,0.021972656,-1.000061,0.035339355,-8.3125,0.75,-4.546875
344,1695742336458,0.015136719,-0.9854126,0.024597168,-5.25,0.765625,-3.5625
345,1695742336501,0.021240234,-1.0007935,0.04168701,-6.3125,-0.4375,-2.734375
346,1695742336539,0.019042969,-0.991272,0.059509277,-6.546875,0.859375,-2.875
347,1695742336585,0.008300781,-0.99713135,0.07733154,-1.40625,0.828125,-1.453125
348,1695742336623,0.010253906,-1.0088501,0.042419434,-0.96875,0.21875,-1.421875
349,1695742336664,0.012939453,-0.99005127,0.06585693,-2.171875,1.140625,-2.0625
350,1695742336700,0.009765625,-0.9968872,0.059509277,-0.96875,-0.34375,-1.375
351,1695742336741,0.0056152344,-0.9949341,0.06707764,-2.0,0.765625,-1.390625
352,1695742336783,0.0053710938,-0.9846802,0.059509277,-1.78125,-0.125,-0.78125
353,1695742336823,0.009765625,-1.0012817,0.062194824,-2.84375,0.1875,-1.03125
354,1695742336863,0.0,-0.9981079,0.07757568,-2.171875,1.09375,-0.984375
355,1695742336911,-0.005859375,-0.9915161,0.081970215,-0.859375,1.828125,0.34375
356,1695742336940,0.008056641,-1.0088501,0.06561279,1.484375,0.375,0.75
357,1695742336982,0.0075683594,-0.9812622,0.06781006,4.765625,0.625,1.078125
358,1695742337027,-0.0075683594,-0.9944458,0.047302246,7.109375,-0.25,2.5625
359,1695742337062,0.0126953125,-0.98687744,0.04144287,3.40625,-0.015625,3.0625
360,1695742337100,0.026611328,-1.0012817,0.03729248,4.953125,-0.359375,2.109375
361,1695742337144,0.032226562,-0.98101807,0.026550293,5.765625,0.109375,1.546875
362,1695742337200,0.01977539,-0.99298096,0.0289917,7.515625,0.265625,2.0625
363,1695742337219,0.022705078,-0.9939575,-0.0037231445,5.21875,-1.171875,1.71875
364,1695742337240,0.053466797,-0.9932251,0.0099487305,3.3125,-0.109375,1.640625
365,1695742337318,0.024902344,-0.98516846,0.012634277,6.90625,1.265625,0.78125
366,1695742337320,0.026611328,-1.0005493,-0.028625488,8.625,-2.328125,1.5
367,1695742337359,0.036376953,-0.98028564,-0.05596924,0.703125,-0.3125,0.828125
368,1695742337400,0.037597656,-0.98760986,-0.010314941,-3.765625,-0.40625,0.984375
369,1695742337441,0.03930664,-0.9841919,-0.034484863,-1.625,-2.21875,-1.21875
370,1695742337482,0.047851562,-0.973938,-0.04034424,-2.453125,-0.765625,1.0625
371,1695742337521,0.041259766,-0.96588135,0.0045776367,-7.171875,-0.046875,0.6875
372,1695742337561,0.04272461,-0.98150635,-6.1035156e-05,2.125,-0.578125,0.90625
373,1695742337602,0.072021484,-0.9993286,-0.051330566,-3.671875,-0.25,-0.640625
374,1695742337642,0.044433594,-0.975647,-0.00982666,-14.890625,1.296875,-2.3125
375,1695742337681,0.043701172,-0.987854,0.042663574,-8.234375,0.03125,-1.15625
376,1695742337724,0.039794922,-1.0056763,0.0026245117,-3.984375,-0.5,-2.765625
377,1695742337763,0.036376953,-1.0071411,0.010192871,-12.140625,1.375,-4.03125
378,1695742337804,0.009277344,-0.99176025,0.07489014,-6.59375,1.3125,-2.875
379,1695742337843,0.015380859,-0.9937134,0.04095459,-2.140625,-0.625,-2.703125
380,1695742337887,0.033203125,-0.9990845,0.051208496,-7.59375,0.921875,-3.359375
381,1695742337927,0.032714844,-1.0015259,0.09515381,-0.171875,0.75,-3.265625
382,1695742337962,0.014160156,-1.0005493,0.05706787,1.21875,0.453125,-3.078125
383,1695742338010,-0.007080078,-0.9849243,0.054870605,0.875,0.828125,-2.65625
384,1695742338045,-0.020263672,-0.9890747,0.038757324,-2.34375,-0.015625,-1.3125
385,1695742338083,-0.0031738281,-1.0010376,0.074645996,-5.03125,0.296875,-0.921875
386,1695742338123,-0.0014648438,-1.005188,0.07342529,-0.9375,1.15625,-0.1875
387,1695742338174,0.0,-0.9898071,0.055114746,-1.03125,0.3125,0.171875
388,1695742338204,0.008056641,-0.9949341,0.08319092,-4.703125,1.65625,-0.421875
389,1695742338243,-0.0029296875,-1.0012817,0.07904053,0.046875,0.78125,0.265625
390,1695742338283,-0.0053710938,-0.98443604,0.066101074,3.53125,1.265625,1.8125
391,1695742338322,0.01586914,-0.98883057,0.07366943,4.046875,-0.328125,2.5625
392,1695742338358,0.033691406,-0.9841919,0.05340576,7.6875,0.484375,2.265625
393,1695742338400,0.02734375,-0.99542236,0.051696777,10.15625,0.5625,2.109375
394,1695742338441,0.016845703,-0.9890747,0.00018310547,9.390625,-0.6875,1.59375
395,1695742338461,0.013427734,-0.99468994,0.027038574,1.65625,0.65625,1.9375
396,1695742338501,0.022949219,-0.9985962,0.024841309,9.296875,-0.671875,1.640625
397,1695742338542,0.02758789,-0.9932251,-0.043518066,8.1875,-0.40625,0.8125
398,1695742338582,0.018798828,-0.98760986,-0.0005493164,-0.921875,0.828125,1.328125
399,1695742338624,0.032470703,-0.99346924,0.010681152,10.421875,-1.515625,1.9375
400,1695742338664,0.03173828,-0.9956665,-0.081604004,4.890625,-0.90625,0.1875
401,1695742338698,0.044921875,-0.99102783,-0.012512207,-4.265625,0.4375,2.359375
402,1695742338741,0.052734375,-0.9627075,-0.018371582,3.78125,-0.953125,0.046875
403,1695742338787,0.043945312,-0.97906494,-0.054748535,3.25,-0.875,1.40625
404,1695742338825,0.048339844,-0.9800415,-0.034240723,-5.109375,1.171875,-0.328125
405,1695742338865,0.053955078,-0.9841919,-0.023010254,1.15625,-0.125,-0.359375
406,1695742338903,0.057373047,-0.97369385,-0.093322754,-3.375,-0.84375,-1.875
407,1695742338940,0.05517578,-0.97540283,-0.039855957,-21.171875,1.140625,-3.0
408,1695742338984,0.035888672,-0.98883057,0.062194824,-15.40625,1.34375,-1.96875
409,1695742339024,0.03149414,-1.022522,0.029968262,0.8125,-1.0625,-2.40625
410,1695742339060,0.017089844,-0.99591064,-0.045715332,-8.359375,0.3125,-5.203125
411,1695742339101,0.014160156,-0.98883057,0.055114746,-17.40625,1.96875,-3.640625
412,1695742339143,0.010009766,-0.98687744,0.09173584,-0.171875,-0.484375,-2.703125
413,1695742339182,0.0043945312,-1.006897,0.0119018555,-2.140625,-0.203125,-2.09375
414,1695742339221,0.0061035156,-0.98394775,0.06781006,-8.015625,1.765625,-2.40625
415,1695742339262,0.0078125,-0.9990845,0.06390381,0.9375,-0.0625,-1.375
416,1695742339304,0.011962891,-0.98809814,0.055114746,-3.640625,1.34375,-1.453125
417,1695742339342,0.0041503906,-0.99298096,0.070007324,-1.46875,0.40625,-1.21875
418,1695742339380,0.001953125,-0.99176025,0.06365967,0.15625,0.359375,-1.1875
419,1695742339420,0.0017089844,-0.9920044,0.06463623,-1.84375,0.5,-1.375
420,1695742339460,-0.010009766,-1.0012817,0.06365967,-2.5,0.421875,-0.65625
421,1695742339500,-0.0007324219,-0.9951782,0.08905029,-1.75,1.84375,0.171875
422,1695742339541,0.0017089844,-0.9973755,0.08319092,1.703125,1.578125,0.5625
423,1695742339581,0.0014648438,-0.9793091,0.05291748,5.953125,0.015625,0.6875
424,1695742339623,0.0034179688,-0.9883423,0.046081543,3.78125,2.1875,2.140625
425,1695742339667,0.008056641,-0.9963989,0.078063965,7.5625,-0.859375,3.234375
426,1695742339683,0.01928711,-1.0005493,0.027526855,14.5,0.109375,2.3125
427,1695742339720,0.017578125,-0.98931885,-0.008117676,8.171875,-0.140625,1.359375
428,1695742339768,0.022705078,-0.9944458,-0.008117676,5.703125,0.125,2.140625
429,1695742339809,0.023925781,-0.9824829,0.0065307617,8.109375,-0.46875,2.984375
430,1695742339841,0.025878906,-0.9961548,-0.035949707,12.390625,-0.890625,2.4375
431,1695742339884,0.029785156,-0.99542236,-0.07720947,4.75,-0.71875,0.890625
432,1695742339925,0.025390625,-0.97247314,-0.051330566,-0.953125,0.65625,2.046875
433,1695742339968,0.041992188,-0.9741821,-0.031066895,3.34375,-0.15625,1.40625
434,1695742340007,0.055908203,-0.99664307,-0.043029785,3.359375,0.078125,2.109375
435,1695742340042,0.037841797,-0.9829712,-0.062316895,3.71875,0.40625,0.671875
436,1695742340080,0.053466797,-0.97052,-0.05621338,-0.875,-0.109375,1.203125
437,1695742340126,0.056396484,-0.9834595,-0.06036377,3.96875,-1.28125,0.921875
438,1695742340164,0.06713867,-0.96832275,-0.108947754,-3.078125,-1.0,-0.4375
439,1695742340200,0.060058594,-0.9768677,-0.066711426,-14.3125,0.625,-2.109375
440,1695742340240,0.03540039,-0.9729614,-0.033996582,-14.234375,0.15625,-2.796875
441,1695742340279,0.05419922,-1.0022583,-0.012512207,-13.28125,-0.671875,-1.125
442,1695742340317,0.049804688,-1.0022583,0.01361084,-11.09375,1.625,-4.09375
443,1695742340356,0.025390625,-0.9956665,0.006286621,-5.421875,0.828125,-4.40625
444,1695742340397,0.01928711,-1.0010376,0.011169434,-8.421875,-0.34375,-3.40625
445,1695742340437,0.01977539,-0.98101807,0.039733887,-9.015625,1.375,-3.484375
446,1695742340478,0.018798828,-0.98883057,0.042419434,-4.84375,0.5625,-3.28125
447,1695742340517,0.0009765625,-0.989563,0.038757324,-3.953125,0.375,-2.671875
448,1695742340557,0.0073242188,-0.9890747,0.057556152,-2.765625,0.578125,-2.359375
449,1695742340597,0.0068359375,-0.9985962,0.04071045,-0.140625,0.015625,-2.765625
450,1695742340636,0.01171875,-0.9963989,0.04876709,-2.390625,0.71875,-3.5
451,1695742340676,-0.012207031,-0.98565674,0.05999756,-2.984375,0.609375,-2.140625
452,1695742340716,-0.021240234,-0.9932251,0.05682373,-3.96875,0.90625,-0.34375
453,1695742340756,0.0007324219,-0.99298096,0.061950684,-3.65625,-0.09375,-0.546875
454,1695742340796,0.0009765625,-0.99176025,0.07293701,-2.734375,1.21875,-0.53125
455,1695742340836,-0.0048828125,-1.0032349,0.07147217,0.578125,0.953125,0.390625
456,1695742340876,-0.0009765625,-0.9924927,0.04949951,2.15625,-0.296875,0.40625
457,1695742340896,-0.011474609,-0.9915161,0.06365967,2.78125,1.65625,1.53125
458,1695742340936,-0.011962891,-0.99346924,0.061706543,8.859375,-0.71875,3.28125
459,1695742340979,0.010009766,-0.99420166,0.0119018555,6.171875,-0.0625,2.421875
460,1695742341016,0.021240234,-0.989563,0.038024902,3.875,0.4375,2.625
461,1695742341058,0.024414062,-0.9932251,0.021911621,9.125,-0.640625,1.796875
462,1695742341099,0.01977539,-0.99957275,-0.012756348,4.125,0.53125,1.59375
463,1695742341138,0.01928711,-0.9885864,0.028259277,4.390625,0.359375,1.890625
464,1695742341180,0.028808594,-0.9915161,-0.014221191,9.3125,-0.890625,0.671875
465,1695742341220,0.026123047,-0.991272,-0.0178833,5.28125,1.375,1.375
466,1695742341260,0.022949219,-0.9907837,-0.02911377,7.515625,-0.28125,0.015625
467,1695742341299,0.020263672,-0.9734497,-0.042785645,5.03125,1.25,0.796875
468,1695742341340,0.027832031,-0.98223877,-0.054260254,6.375,-1.53125,0.5625
469,1695742341380,0.032470703,-0.9763794,-0.07525635,2.4375,-0.375,0.765625
470,1695742341419,0.04638672,-0.9795532,-0.04937744,-1.5,-0.8125,0.578125
471,1695742341459,0.032470703,-0.95977783,-0.07623291,1.875,-1.140625,0.234375
472,1695742341499,0.04711914,-0.9768677,-0.08526611,-5.421875,-0.71875,-0.015625
473,1695742341540,0.041748047,-0.9644165,-0.028381348,-12.15625,0.609375,-1.40625
474,1695742341582,0.047851562,-0.9849243,-0.04498291,-10.953125,-1.234375,-1.96875
475,1695742341621,0.049560547,-0.9993286,-0.020812988,-16.28125,0.671875,-2.53125
476,1695742341660,0.036621094,-0.9990845,0.031921387,-10.3125,0.5,-2.890625
477,1695742341700,0.015625,-0.9993286,0.0018920898,-5.6875,0.28125,-4.765625
478,1695742341740,0.0012207031,-0.9981079,0.020690918,-10.640625,1.3125,-4.234375
479,1695742341781,0.00024414062,-0.9907837,0.046081543,-6.734375,-0.359375,-2.84375
480,1695742341822,0.012207031,-0.98443604,0.061706543,-4.4375,0.140625,-2.84375
481,1695742341864,0.001953125,-1.0105591,0.028747559,-2.359375,-0.28125,-2.484375
482,1695742341902,-0.009765625,-1.0015259,0.055603027,-5.75,1.484375,-2.9375
483,1695742341940,-0.0087890625,-0.9985962,0.07928467,-6.953125,0.765625,-0.71875
484,1695742341987,0.0,-0.98687744,0.058044434,-1.859375,-0.703125,-0.578125
485,1695742342024,0.007080078,-0.99176025,0.073913574,-3.46875,0.46875,-0.375
486,1695742342065,0.00024414062,-0.99005127,0.07757568,-1.671875,0.578125,-1.703125
487,1695742342120,-0.0073242188,-0.9968872,0.06512451,2.34375,-0.328125,-1.09375
488,1695742342140,-0.0021972656,-0.9993286,0.073913574,-1.09375,1.0625,-0.65625
489,1695742342165,-0.011230469,-0.99664307,0.06976318,-0.65625,2.0625,0.59375
490,1695742342205,-0.009033203,-0.99542236,0.07489014,4.140625,-0.375,1.359375
491,1695742342241,-0.0146484375,-0.9956665,0.06732178,5.71875,0.625,2.09375
492,1695742342280,-0.01171875,-0.98687744,0.038513184,8.484375,-1.109375,3.171875
493,1695742342322,0.011962891,-0.99468994,0.022155762,5.59375,-0.0625,2.3125
494,1695742342361,0.0012207031,-0.9951782,0.018981934,3.5,0.328125,2.359375
495,1695742342400,0.03173828,-0.99346924,0.03314209,7.34375,-0.6875,3.109375
496,1695742342445,0.029785156,-0.986145,-0.0037231445,8.6875,-0.484375,1.8125
497,1695742342479,0.028808594,-1.0081177,-0.014221191,4.78125,-0.484375,2.375
498,1695742342521,0.018066406,-0.99005127,0.012145996,5.328125,1.1875,2.125
499,1695742342564,0.034423828,-0.9714966,-0.02960205,12.015625,-0.578125,2.015625
500,1695742342603,0.03540039,-0.99053955,-0.07086182,5.3125,0.0,1.21875
501,1695742342641,0.04345703,-0.97857666,-0.026672363,-0.21875,1.890625,1.71875
502,1695742342687,0.025878906,-0.98394775,-0.058166504,9.828125,-0.328125,1.28125
503,1695742342728,0.037841797,-0.97979736,-0.10601807,-0.078125,-0.0625,1.34375
504,1695742342762,0.060058594,-0.9817505,-0.031311035,-5.96875,0.453125,0.25
505,1695742342806,0.042236328,-0.9656372,-0.06549072,4.0625,-0.890625,-1.171875
506,1695742342842,0.05126953,-0.98272705,-0.105041504,-12.015625,-0.6875,-1.5
507,1695742342888,0.052001953,-0.9758911,-0.019592285,-23.234375,0.03125,-3.09375
508,1695742342922,0.038085938,-0.98809814,0.023132324,-12.375,-0.234375,-3.796875
509,1695742342963,0.026611328,-1.008606,0.016784668,-7.375,0.5,-3.421875
510,1695742343007,0.006591797,-1.0005493,0.007019043,-8.5625,0.4375,-4.09375
511,1695742343042,0.023925781,-0.99884033,0.03387451,-8.796875,-0.75,-3.203125
512,1695742343079,0.009277344,-0.9932251,0.04071045,-6.5,0.859375,-4.453125
513,1695742343121,-0.0126953125,-0.99224854,0.055603027,-6.859375,1.0625,-3.28125
514,1695742343157,-0.01977539,-0.9846802,0.05657959,0.421875,-1.28125,-1.5625
515,1695742343197,-0.0036621094,-0.98687744,0.050964355,-0.390625,0.375,0.3125
516,1695742343236,0.0017089844,-1.0022583,0.042663574,0.28125,-0.015625,0.453125
517,1695742343277,0.014892578,-1.0054321,0.039978027,-2.90625,-0.359375,0.234375
518,1695742343316,0.024414062,-0.9829712,0.07733154,-2.046875,0.09375,-0.59375
519,1695742343357,0.0034179688,-0.9885864,0.054626465,-0.515625,0.25,-0.828125
520,1695742343378,0.0009765625,-0.99176025,0.06097412,-0.953125,0.109375,-0.59375
521,1695742343417,0.0063476562,-0.99713135,0.06390381,-1.46875,0.6875,-1.484375
522,1695742343457,-0.0068359375,-1.0029907,0.050964355,0.578125,1.0625,-0.296875
523,1695742343497,-0.011230469,-0.99664307,0.057800293,0.21875,1.53125,0.8125
524,1695742343537,0.0009765625,-1.0037231,0.043640137,5.03125,-0.46875,1.578125
525,1695742343577,0.0063476562,-0.98443604,0.042663574,2.34375,1.265625,1.375
526,1695742343617,-0.0041503906,-0.99005127,0.05340576,6.625,-0.15625,2.90625
527,1695742343657,0.0075683594,-0.9890747,0.024353027,4.953125,1.53125,2.875
528,1695742343696,0.025634766,-1.000061,0.022155762,7.984375,0.0625,2.9375
529,1695742343737,0.030517578,-0.99102783,-0.034240723,7.828125,0.78125,0.765625
530,1695742343777,0.025878906,-0.98516846,0.01727295,1.828125,0.421875,2.640625
531,1695742343818,0.043701172,-0.98272705,-0.0056762695,9.671875,-0.296875,1.21875
532,1695742343857,0.03100586,-0.9846802,-0.042297363,5.453125,-0.046875,1.703125
533,1695742343897,0.030273438,-0.991272,-0.017150879,2.71875,-0.015625,2.03125
534,1695742343936,0.036376953,-0.98101807,-0.034729004,4.234375,-0.921875,1.5
535,1695742343978,0.044433594,-0.9973755,-0.043518066,6.78125,-1.3125,1.421875
536,1695742344019,0.04272461,-0.98101807,-0.06304932,1.484375,0.15625,0.078125
537,1695742344058,0.03857422,-0.9849243,-0.043273926,1.0,-0.640625,1.375
538,1695742344100,0.053466797,-0.9639282,-0.08721924,-0.0625,-1.3125,0.1875
539,1695742344140,0.064697266,-0.9668579,-0.07672119,-11.40625,-0.6875,-0.8125
540,1695742344180,0.05444336,-0.9883423,-0.02520752,-15.09375,0.921875,-2.75
541,1695742344221,0.05029297,-0.9944458,-0.031311035,-13.78125,-0.84375,-3.875
542,1695742344260,0.03125,-0.9927368,0.020202637,-15.015625,1.640625,-3.21875
543,1695742344302,0.029541016,-0.9937134,0.0524292,-6.0,-0.421875,-4.140625
544,1695742344341,0.03125,-1.0117798,0.0014038086,-8.6875,0.703125,-5.328125
545,1695742344380,0.007080078,-0.9788208,0.08099365,-10.359375,1.6875,-4.078125
546,1695742344421,-0.0073242188,-0.99346924,0.047546387,2.296875,-1.4375,-2.46875
547,1695742344463,0.004638672,-0.9854126,0.051452637,-7.4375,0.65625,-2.59375
548,1695742344500,-0.0063476562,-0.99835205,0.05633545,-1.5625,0.03125,-1.0
549,1695742344541,0.010498047,-1.0020142,0.046813965,-1.453125,-0.390625,-0.96875
550,1695742344602,0.008300781,-0.99102783,0.06951904,-2.921875,0.453125,-1.25
551,1695742344605,0.0007324219,-1.0003052,0.062194824,0.421875,0.5,-0.515625
552,1695742344639,0.0043945312,-0.99420166,0.05316162,-0.90625,-0.015625,-1.703125
553,1695742344682,0.0041503906,-0.99053955,0.06951904,-1.53125,0.65625,-0.484375
554,1695742344722,0.0009765625,-1.0012817,0.06317139,-0.15625,0.578125,-0.28125
555,1695742344764,-0.004638672,-0.9968872,0.049743652,-0.921875,1.859375,-0.171875
556,1695742344803,0.0012207031,-0.9968872,0.0848999,-1.390625,2.265625,-0.03125
557,1695742344839,-0.013916016,-0.9841919,0.042663574,7.671875,-1.140625,2.25
558,1695742344885,0.009521484,-0.9812622,0.031921387,2.265625,0.0625,2.71875
559,1695742344926,0.01953125,-1.0064087,0.0758667,2.734375,0.671875,1.6875
560,1695742344960,-0.0026855469,-0.9993286,0.02947998,9.734375,1.03125,1.859375
561,1695742345000,0.01977539,-0.98931885,0.018981934,7.09375,-0.640625,3.15625
562,1695742345042,0.03540039,-0.99102783,0.0040893555,7.265625,-0.15625,1.96875
563,1695742345080,0.024169922,-0.9854126,-0.0022583008,5.796875,-0.078125,1.359375
564,1695742345124,0.018066406,-0.9944458,-0.012756348,8.265625,-0.140625,1.578125
565,1695742345161,0.01953125,-0.9907837,-0.034973145,5.1875,-0.59375,1.34375
566,1695742345202,0.040527344,-0.98028564,-0.021057129,1.140625,0.796875,0.859375
567,1695742345245,0.029541016,-0.9937134,-0.026916504,7.984375,-1.515625,1.328125
568,1695742345282,0.04248047,-0.98028564,-0.08013916,0.578125,-0.421875,0.21875
569,1695742345323,0.041748047,-0.9776001,-0.022521973,-1.390625,-0.078125,0.734375
570,1695742345366,0.041992188,-0.97784424,-0.06402588,2.09375,-1.21875,0.140625
571,1695742345408,0.048828125,-0.9907837,-0.04083252,-2.5,0.28125,0.84375
572,1695742345440,0.04711914,-0.97198486,-0.07574463,-2.4375,-1.328125,-1.328125
573,1695742345482,0.064697266,-0.9673462,-0.07720947,-17.703125,-0.203125,-2.84375
574,1695742345523,0.042236328,-0.989563,0.028015137,-25.46875,2.234375,-3.265625
575,1695742345559,0.03100586,-1.0137329,0.082214355,-3.875,0.09375,-2.40625
576,1695742345600,0.02709961,-1.0061646,-0.027893066,-3.65625,-0.734375,-4.046875
577,1695742345642,0.017333984,-0.9956665,0.030212402,-16.359375,1.75,-4.9375
578,1695742345682,0.010009766,-0.9907837,0.073913574,-3.46875,-0.96875,-2.90625
579,1695742345721,0.0031738281,-0.98687744,0.049987793,-2.390625,0.765625,-2.203125
580,1695742345764,-0.00390625,-0.97784424,0.057556152,-3.0625,1.015625,-2.4375
581,1695742345828,-0.016601562,-0.9976196,0.0446167,-4.609375,0.265625,-1.1875
582,1695742345841,0.014160156,-1.0066528,0.078063965,-6.40625,0.8125,-1.34375
583,1695742345860,0.0078125,-0.9829712,0.07366943,-0.09375,-0.0625,-1.546875
584,1695742345899,0.0,-1.0059204,0.06585693,-2.984375,0.015625,-1.578125
585,1695742345939,-0.009521484,-0.98809814,0.101989746,-5.59375,1.40625,-1.578125
586,1695742345977,-0.011962891,-0.9981079,0.078552246,1.375,-0.171875,-0.078125
587,1695742346019,-0.0078125,-0.9902954,0.08514404,-1.03125,0.984375,0.671875
588,1695742346058,0.0031738281,-0.99542236,0.08270264,4.296875,0.765625,0.375
589,1695742346097,0.0041503906,-1.003479,0.047302246,4.53125,1.375,0.078125
590,1695742346138,-0.025146484,-0.9885864,0.06781006,1.734375,1.953125,0.671875
591,1695742346178,-0.0078125,-0.989563,0.05706787,8.15625,-0.640625,2.8125
592,1695742346218,0.024658203,-0.99786377,0.03387451,6.984375,0.3125,2.46875
593,1695742346258,0.01586914,-0.9961548,0.022399902,7.359375,0.421875,1.359375
594,1695742346299,0.014160156,-0.9776001,0.0289917,7.6875,-0.5,2.890625
595,1695742346338,0.010498047,-0.99005127,0.0016479492,7.84375,0.09375,1.75
596,1695742346379,0.047851562,-0.9949341,0.004333496,8.359375,0.515625,1.53125
597,1695742346421,0.0234375,-0.99224854,-0.047668457,11.1875,1.25,-0.125
598,1695742346459,0.012939453,-0.99176025,-0.024963379,1.1875,-0.5625,2.015625
599,1695742346501,0.017333984,-0.9771118,-0.03668213,4.53125,-0.640625,1.953125
600,1695742346538,0.037353516,-0.98321533,-0.0569458,3.015625,-1.109375,1.96875
601,1695742346584,0.043945312,-0.9898071,-0.05987549,-0.71875,-0.4375,0.78125
602,1695742346618,0.036132812,-0.97320557,-0.0491333,-0.640625,-0.296875,1.296875
603,1695742346659,0.053466797,-0.9800415,-0.043273926,-1.921875,-0.953125,-0.125
604,1695742346701,0.05517578,-0.9846802,-0.0791626,-7.671875,-0.765625,-1.234375
605,1695742346741,0.052001953,-0.98028564,-0.031066895,-18.046875,0.65625,-3.4375
606,1695742346780,0.037353516,-0.9841919,0.008972168,-17.5625,0.828125,-4.046875
607,1695742346822,0.020996094,-0.9973755,0.05267334,-11.78125,0.84375,-2.625
608,1695742346863,0.017333984,-1.0003052,0.047058105,-5.0625,-0.25,-3.84375
609,1695742346902,0.009765625,-1.0007935,0.024108887,-8.125,0.40625,-4.875
610,1695742346940,-0.0007324219,-0.98809814,0.06976318,-6.578125,1.390625,-3.609375
611,1695742346981,0.0009765625,-0.9890747,0.06121826,1.421875,-0.734375,-2.78125
612,1695742347022,-0.008544922,-0.98809814,0.04437256,-1.15625,1.15625,-2.40625
613,1695742347059,-0.017089844,-1.006897,0.047302246,-1.734375,-0.25,-1.203125
614,1695742347079,0.0053710938,-0.98443604,0.066101074,-3.40625,0.0625,-1.6875
615,1695742347120,-0.0053710938,-0.99884033,0.051452637,-1.84375,0.5,-0.4375
616,1695742347161,-0.0036621094,-0.9920044,0.06585693,-2.125,0.140625,-1.5
617,1695742347201,-0.01928711,-0.9973755,0.06854248,0.21875,0.640625,-0.75
618,1695742347242,-0.0061035156,-0.99420166,0.06365967,-0.203125,-0.390625,-0.84375
619,1695742347281,-0.00024414062,-0.9963989,0.05731201,-2.34375,1.421875,-0.75
620,1695742347322,-0.011962891,-1.0003052,0.07562256,-0.78125,2.125,-0.59375
621,1695742347360,-0.030029297,-0.991272,0.0692749,1.640625,2.25,1.40625
622,1695742347402,-0.0063476562,-0.986145,0.08026123,6.25,0.109375,2.640625
623,1695742347447,-0.011230469,-0.9898071,0.020935059,11.734375,-0.359375,2.578125
624,1695742347479,0.009033203,-0.9985962,0.019958496,1.984375,0.421875,2.921875
625,1695742347520,-0.007080078,-0.97662354,0.034362793,9.953125,-0.203125,2.828125
626,1695742347561,0.016113281,-0.9890747,-0.011779785,6.421875,-1.234375,3.53125
627,1695742347597,0.030761719,-0.9932251,0.022155762,1.65625,0.125,2.78125
628,1695742347637,0.03881836,-0.99298096,-0.008361816,9.890625,-1.6875,2.90625
629,1695742347677,0.041503906,-0.9924927,-0.014709473,3.78125,-0.015625,2.4375
630,1695742347717,0.029785156,-0.98321533,-0.034484863,6.59375,-0.71875,1.859375
631,1695742347757,0.036621094,-0.99420166,-0.043762207,1.03125,-0.6875,1.625
632,1695742347797,0.036376953,-0.98565674,-0.02545166,2.125,-0.125,1.265625
633,1695742347837,0.041748047,-0.97613525,-0.053771973,4.34375,-1.265625,0.765625
634,1695742347879,0.05078125,-0.9937134,-0.044006348,0.0,-0.625,1.328125
635,1695742347919,0.052734375,-0.97369385,-0.05670166,0.578125,0.3125,-0.875
636,1695742347957,0.045654297,-0.9956665,-0.047180176,0.234375,0.3125,0.25
637,1695742347997,0.05102539,-0.9819946,-0.06378174,0.5,-0.671875,-1.171875
638,1695742348038,0.048583984,-0.9768677,-0.08795166,-5.515625,-0.234375,-2.125
639,1695742348078,0.045166016,-0.9780884,-0.061828613,-18.84375,0.09375,-3.859375
640,1695742348118,0.044921875,-0.9805298,-0.003967285,-25.015625,0.921875,-5.25
641,1695742348159,0.03466797,-1.0044556,0.08099365,-14.078125,1.390625,-3.78125
642,1695742348199,0.0107421875,-1.003479,0.042663574,-1.1875,0.34375,-5.015625
643,1695742348239,-0.009277344,-1.0029907,0.01361084,-9.890625,1.03125,-5.421875
644,1695742348279,-0.006591797,-0.9920044,0.09320068,-7.421875,1.515625,-4.1875
645,1695742348298,-0.010253906,-0.99420166,0.04046631,0.21875,-0.203125,-2.96875
646,1695742348339,0.0021972656,-0.9824829,0.06414795,-3.53125,1.25,-2.734375
647,1695742348379,-0.030761719,-0.9993286,0.054138184,-0.984375,0.484375,-1.796875
648,1695742348420,-0.0078125,-0.9902954,0.062194824,-0.25,-0.546875,-1.828125
649,1695742348460,-0.007080078,-1.0039673,0.055358887,-1.875,0.296875,-2.375
650,1695742348498,-0.024414062,-0.99542236,0.07293701,-0.375,0.734375,-2.453125
651,1695742348562,-0.034179688,-0.99176025,0.04925537,-1.3125,-0.078125,-0.953125
652,1695742348582,-0.024658203,-0.9944458,0.066589355,-2.578125,0.453125,-0.125
653,1695742348621,-0.01953125,-0.9993286,0.058532715,-2.140625,0.5625,0.03125
654,1695742348658,-0.018798828,-1.0005493,0.09197998,-0.078125,3.3125,1.421875
655,1695742348700,-0.024902344,-1.000061,0.047546387,4.25,-0.859375,2.03125
656,1695742348741,-0.01171875,-0.9834595,0.039489746,0.703125,0.828125,1.546875
657,1695742348782,-0.0061035156,-0.9993286,0.09564209,3.765625,0.515625,3.21875
658,1695742348822,-0.009277344,-0.99884033,0.016784668,10.34375,-1.203125,3.078125
659,1695742348862,-0.0009765625,-0.99346924,0.028503418,4.03125,0.671875,3.5625
660,1695742348902,0.009521484,-0.98883057,0.031188965,10.8125,-1.3125,3.28125
661,1695742348941,0.016113281,-0.991272,-0.018371582,8.46875,-0.234375,2.03125
662,1695742348982,0.017822266,-0.9902954,0.0021362305,5.484375,0.515625,3.0
663,1695742349024,0.036865234,-0.9834595,-0.018127441,8.171875,-1.46875,1.96875
664,1695742349068,0.03125,-0.9788208,-0.036193848,5.078125,0.3125,1.53125
665,1695742349102,0.015625,-0.99468994,-0.010803223,4.96875,0.0625,0.953125
666,1695742349148,0.0146484375,-0.99176025,-0.04473877,7.96875,-0.8125,1.5625
667,1695742349182,0.030273438,-0.9866333,-0.082092285,3.65625,-0.484375,1.25
668,1695742349223,0.03955078,-0.975647,-0.066711426,-1.8125,0.125,0.671875
669,1695742349264,0.026611328,-0.9812622,-0.051574707,1.265625,-0.703125,0.65625
670,1695742349302,0.045410156,-0.9793091,-0.09234619,-1.5,-1.75,-0.28125
671,1695742349344,0.053466797,-0.9751587,-0.081848145,-15.9375,0.109375,-2.3125
672,1695742349382,0.049072266,-0.97491455,-0.015197754,-21.0625,1.078125,-3.703125
673,1695742349424,0.04248047,-0.99468994,0.01361084,-16.625,-0.5625,-3.4375
674,1695742349465,0.034423828,-0.9902954,0.06390381,-11.359375,1.34375,-3.53125
675,1695742349508,0.011474609,-0.9990845,0.049743652,-3.0625,0.09375,-4.34375
676,1695742349520,-0.013671875,-0.99957275,0.023132324,-6.40625,1.203125,-4.421875
677,1695742349560,-0.0146484375,-0.9902954,0.050964355,-5.140625,0.4375,-2.71875
678,1695742349599,0.004638672,-0.99102783,0.058532715,-1.1875,-0.203125,-2.09375
679,1695742349641,-0.010253906,-0.9993286,0.031433105,-1.125,0.578125,-2.0
680,1695742349681,-0.010253906,-0.9859009,0.058776855,-2.96875,0.359375,-2.203125
681,1695742349720,-0.018798828,-1.0054321,0.046813965,-0.0625,0.03125,-1.046875
682,1695742349760,0.0009765625,-0.99298096,0.032409668,-3.40625,0.265625,-0.921875
683,1695742349800,-0.0061035156,-0.9915161,0.06439209,-3.75,0.203125,-0.734375
684,1695742349840,-0.008544922,-0.98638916,0.07318115,-1.640625,0.765625,-0.109375
685,1695742349882,-0.01928711,-1.00177,0.04486084,-1.390625,0.21875,0.125
686,1695742349921,-0.0009765625,-0.9932251,0.0770874,-1.890625,1.515625,-0.5625
687,1695742349964,-0.005126953,-0.99713135,0.07366943,1.78125,1.328125,0.171875
688,1695742350000,-0.022460938,-0.9968872,0.041931152,4.609375,-0.421875,1.90625
689,1695742350049,-0.0031738281,-0.987854,0.058776855,3.46875,-0.09375,2.65625
690,1695742350091,0.0048828125,-0.9890747,0.05682373,5.9375,0.359375,2.234375
691,1695742350120,0.010253906,-1.0007935,0.02923584,9.390625,-0.71875,2.046875
692,1695742350164,-0.0075683594,-0.9768677,0.024597168,7.421875,1.5,1.8125
693,1695742350200,0.009521484,-0.9937134,0.007751465,10.125,-1.828125,3.0625
694,1695742350241,0.030029297,-0.9961548,-0.019348145,4.5625,0.46875,1.53125
695,1695742350286,0.019042969,-0.99786377,-0.010803223,6.609375,-0.09375,0.546875
696,1695742350320,-0.0034179688,-0.98272705,-0.02154541,7.171875,-0.140625,1.9375
697,1695742350362,0.021484375,-0.9915161,-0.055236816,5.578125,-1.46875,1.421875
698,1695742350401,0.032714844,-0.97198486,-0.035705566,-0.390625,1.15625,1.34375
699,1695742350441,0.02758789,-0.9976196,-0.042297363,9.375,-2.40625,1.109375
700,1695742350481,0.033447266,-0.9673462,-0.09893799,-0.703125,-0.265625,0.765625
701,1695742350522,0.047851562,-0.9866333,-0.04083252,-6.46875,-0.328125,0.46875
702,1695742350561,0.03466797,-0.97369385,-0.028625488,-0.640625,-0.171875,-0.34375
703,1695742350620,0.040527344,-0.9871216,-0.06842041,-0.03125,-0.9375,-0.1875
704,1695742350640,0.052246094,-0.98443604,-0.07354736,-12.375,-0.25,-2.53125
705,1695742350680,0.032226562,-0.97613525,-0.04058838,-20.65625,1.046875,-4.03125
706,1695742350722,0.025634766,-0.9883423,0.05657959,-14.703125,1.78125,-2.53125
707,1695742350760,0.011962891,-1.0056763,0.026550293,-1.796875,-0.703125,-3.234375
708,1695742350781,0.00048828125,-1.0059204,-0.00079345703,-8.984375,1.46875,-3.734375
709,1695742350822,-0.001953125,-0.987854,0.06097412,-7.015625,0.875,-3.859375
710,1695742350862,-0.00048828125,-1.003479,0.03338623,-1.921875,-0.515625,-2.40625
711,1695742350901,-0.009033203,-0.97613525,0.05609131,-5.21875,1.578125,-2.90625
712,1695742350944,-0.025390625,-1.0029907,0.03265381,-0.296875,-0.328125,-1.671875
713,1695742350982,0.0014648438,-0.9985962,0.053649902,-4.75,0.4375,-1.265625
714,1695742351022,-0.0078125,-0.99298096,0.03656006,-1.96875,0.0625,-0.796875
715,1695742351061,-0.00390625,-0.9951782,0.05731201,-1.90625,0.140625,-0.3125
716,1695742351099,-0.009033203,-1.0007935,0.061950684,-1.171875,0.28125,-0.59375
717,1695742351141,-0.013427734,-0.991272,0.050231934,-2.03125,0.703125,-1.5625
718,1695742351183,-0.019042969,-0.9973755,0.06976318,-0.53125,2.03125,-0.09375
719,1695742351221,-0.01953125,-1.0015259,0.07366943,1.0,0.703125,2.09375
720,1695742351260,-0.0146484375,-0.9807739,0.061706543,8.015625,-0.53125,2.1875
721,1695742351302,0.0021972656,-0.99957275,0.0138549805,8.4375,0.015625,2.71875
722,1695742351344,0.0026855469,-0.9841919,0.034851074,5.203125,0.5625,2.625
723,1695742351388,0.0063476562,-0.99346924,0.029724121,9.796875,0.0625,3.421875
724,1695742351420,0.016357422,-0.9932251,-0.0044555664,9.21875,-0.96875,2.703125
725,1695742351463,0.021240234,-1.0012817,-0.028381348,6.796875,-0.15625,2.078125
726,1695742351503,0.02734375,-0.986145,-0.010070801,4.0625,0.6875,1.75
727,1695742351541,0.020507812,-0.9846802,-0.039123535,9.859375,-1.484375,2.609375
728,1695742351580,0.037597656,-0.98394775,-0.049621582,1.796875,0.203125,1.671875
729,1695742351619,0.029296875,-0.9829712,-0.06036377,4.046875,-1.5,0.546875
730,1695742351659,0.03857422,-0.9783325,-0.054992676,-2.75,0.265625,1.1875
731,1695742351701,0.037353516,-0.98321533,-0.007873535,0.296875,0.15625,1.0
732,1695742351740,0.043945312,-0.98394775,-0.05645752,7.65625,-1.359375,0.328125
733,1695742351780,0.045898438,-0.9973755,-0.09991455,-0.84375,-0.5625,0.0
734,1695742351824,0.049316406,-0.9727173,-0.050598145,-8.90625,-0.078125,-0.59375
735,1695742351861,0.029785156,-0.97613525,-0.0413208,-1.59375,-0.5,-1.375
736,1695742351901,0.045166016,-0.99005127,-0.09625244,-7.734375,-1.078125,-1.828125
737,1695742351944,0.051757812,-0.9898071,-0.05987549,-23.75,0.890625,-4.6875
738,1695742351982,0.02734375,-0.98687744,0.04095459,-21.984375,2.1875,-4.546875
739,1695742352000,0.020996094,-0.9885864,0.06488037,-4.5,0.34375,-3.25
740,1695742352040,0.012451172,-1.0078735,0.0045776367,-5.0625,-0.015625,-4.078125
741,1695742352083,-0.0024414062,-0.9937134,0.050231934,-11.984375,2.03125,-5.71875
742,1695742352122,-0.024658203,-0.98565674,0.058532715,2.5625,-0.0625,-3.4375
743,1695742352163,-0.013916016,-0.99542236,0.039245605,-4.125,0.484375,-2.1875
744,1695742352205,0.0017089844,-0.9907837,0.059020996,-2.453125,0.0625,-2.21875
745,1695742352242,-0.010253906,-0.9937134,0.058044434,-1.65625,0.6875,-1.65625
746,1695742352282,-0.01586914,-0.9985962,0.055847168,0.21875,-0.1875,-0.828125
747,1695742352321,-0.005859375,-0.9846802,0.041931152,-2.34375,0.03125,-1.6875
748,1695742352363,-0.017578125,-0.9973755,0.066101074,-2.78125,0.390625,-1.328125
749,1695742352407,-0.022460938,-0.9944458,0.062194824,-0.375,0.484375,-0.34375
750,1695742352442,-0.02319336,-0.9937134,0.05340576,-1.078125,0.375,-0.0625
751,1695742352482,-0.0053710938,-0.9937134,0.07318115,-1.53125,1.9375,0.53125
752,1695742352523,-0.011230469,-0.9939575,0.062683105,0.15625,1.5,1.546875
753,1695742352561,-0.026855469,-0.98760986,0.051940918,6.03125,0.21875,2.15625
754,1695742352602,-0.007080078,-0.99224854,0.051208496,7.6875,0.1875,3.625
755,1695742352642,0.006591797,-0.98931885,0.040222168,9.359375,0.03125,2.765625
756,1695742352684,0.0021972656,-1.0064087,0.007019043,7.921875,0.921875,1.953125
757,1695742352724,0.009521484,-0.98883057,-0.0005493164,7.828125,-0.59375,2.921875
758,1695742352758,0.022949219,-0.98760986,-0.010070801,6.6875,0.171875,2.265625
759,1695742352801,0.017333984,-0.99005127,0.0079956055,4.75,-0.125,1.921875
760,1695742352839,0.018554688,-0.9939575,-0.032287598,12.109375,-1.25,2.390625
761,1695742352881,0.029296875,-0.98931885,-0.046691895,2.921875,-0.0625,2.34375
762,1695742352921,0.03515625,-0.97979736,-0.032287598,5.4375,-1.0,0.828125
763,1695742352961,0.018798828,-0.97076416,-0.06939697,3.484375,-0.21875,1.21875
764,1695742353003,0.040283203,-0.9920044,-0.047424316,1.703125,-1.296875,1.375
765,1695742353048,0.028808594,-0.973938,-0.08453369,0.03125,-0.828125,0.40625
766,1695742353088,0.03564453,-0.9924927,-0.04083252,-3.078125,-0.59375,1.375
767,1695742353120,0.036132812,-0.97052,-0.07110596,-0.21875,-0.671875,-0.78125
768,1695742353164,0.049804688,-0.97735596,-0.08380127,-7.0625,0.140625,-0.640625
769,1695742353221,0.04711914,-0.9807739,-0.04107666,-15.875,0.21875,-3.140625
770,1695742353243,0.035888672,-0.9817505,-0.009338379,-12.0,1.125,-3.0625
771,1695742353265,0.050048828,-1.008606,0.0079956055,-8.078125,0.59375,-3.015625
772,1695742353347,0.021240234,-1.0042114,-0.010314941,-10.5625,1.1875,-5.140625
773,1695742353351,0.00024414062,-0.9915161,0.022155762,-12.625,1.46875,-4.0625
774,1695742353383,0.009521484,-0.99346924,0.059020996,-6.234375,0.265625,-3.171875
775,1695742353420,-0.0034179688,-0.9961548,0.022644043,-4.84375,-0.0625,-3.171875
776,1695742353465,0.0012207031,-0.9927368,0.07293701,-3.9375,0.109375,-2.53125
777,1695742353503,-0.008056641,-1.0012817,0.038757324,-1.375,-0.375,-2.484375
778,1695742353549,-0.009277344,-0.98760986,0.059509277,-2.296875,0.25,-2.203125
779,1695742353586,-0.017333984,-0.9951782,0.05706787,-0.34375,0.015625,-1.046875
780,1695742353621,-0.010009766,-0.99786377,0.0446167,-2.078125,-0.09375,-0.953125
781,1695742353662,-0.0024414062,-0.99298096,0.06707764,-2.78125,0.671875,-0.828125
782,1695742353702,-0.016845703,-1.0012817,0.06048584,-1.484375,1.296875,-0.03125
783,1695742353741,-0.025878906,-0.9961548,0.06756592,0.265625,2.109375,0.625
784,1695742353780,0.00024414062,-0.99591064,0.07122803,2.6875,1.03125,2.46875
785,1695742353820,-0.0048828125,-0.9927368,0.030212402,12.375,-0.640625,2.34375
786,1695742353861,-0.009765625,-0.98687744,0.020935059,6.0,0.859375,2.296875
787,1695742353899,-0.0073242188,-1.0010376,0.04119873,7.34375,-0.234375,3.453125
788,1695742353941,0.025146484,-0.9795532,0.0072631836,10.453125,-0.0625,2.90625
789,1695742353981,0.014160156,-0.9985962,-0.0569458,10.96875,-1.703125,2.09375
790,1695742354026,0.03857422,-0.99224854,-0.015930176,-5.140625,0.109375,3.375
791,1695742354066,0.04321289,-0.9656372,0.03289795,11.296875,-0.140625,1.21875
792,1695742354111,0.007080078,-0.9981079,-0.08380127,12.703125,-1.046875,1.109375
793,1695742354140,0.015380859,-1.0088501,-0.06011963,-1.34375,-0.015625,2.296875
794,1695742354182,0.045166016,-0.9717407,-0.020568848,3.75,-0.171875,1.828125
795,1695742354224,0.02709961,-0.98101807,-0.09918213,9.921875,-1.1875,0.03125
796,1695742354264,0.032470703,-0.9968872,-0.0803833,-6.5625,-0.21875,1.875
797,1695742354304,0.049560547,-0.9651489,-0.03765869,0.6875,-1.015625,0.453125
798,1695742354347,0.044433594,-0.9697876,-0.093566895,-0.875,0.15625,0.0625
799,1695742354382,0.043945312,-0.987854,-0.050354004,-5.421875,-0.5,-0.34375
800,1695742354424,0.057128906,-0.96099854,-0.0713501,-3.109375,-0.171875,-1.40625
801,1695742354464,0.05419922,-0.99298096,-0.06793213,-14.53125,1.21875,-4.140625
802,1695742354483,0.018554688,-0.9873657,-0.007873535,-13.90625,0.9375,-3.453125
803,1695742354526,0.022705078,-0.9885864,-0.00079345703,-8.5,0.640625,-2.59375
804,1695742354564,0.02758789,-1.0100708,-0.008605957,-8.75,-0.046875,-3.75
805,1695742354602,0.014892578,-0.98516846,0.00970459,-11.359375,1.03125,-4.4375
806,1695742354644,0.0061035156,-0.99224854,0.04901123,-7.296875,1.375,-3.265625
807,1695742354683,0.0063476562,-1.0032349,0.02557373,-3.625,0.15625,-3.21875
808,1695742354725,-0.005126953,-0.98101807,0.051696777,-7.828125,1.296875,-3.421875
809,1695742354765,-0.0031738281,-0.9944458,0.05267334,0.5625,-0.1875,-2.5
810,1695742354801,-0.009033203,-0.9907837,0.039733887,-3.3125,-0.5625,-2.375
811,1695742354842,-0.0029296875,-0.9871216,0.058776855,-3.15625,0.359375,-2.765625
812,1695742354880,-0.020263672,-0.9924927,0.053894043,-1.46875,0.109375,-2.0625
813,1695742354922,-0.03125,-0.9963989,0.04876709,-0.71875,0.0625,-1.09375
814,1695742354964,-0.015136719,-0.9837036,0.06951904,-0.90625,-0.09375,-0.84375
815,1695742355000,-0.015625,-1.0015259,0.05267334,-0.109375,1.3125,0.3125
816,1695742355042,-0.021484375,-1.0056763,0.08148193,-0.203125,3.796875,0.046875
817,1695742355082,-0.033447266,-0.9963989,0.055847168,6.75,0.59375,2.03125
818,1695742355121,-0.0053710938,-0.9963989,0.008239746,10.984375,-0.453125,3.578125
819,1695742355162,0.0087890625,-0.9963989,0.014831543,3.375,-0.328125,3.125
820,1695742355202,0.00024414062,-0.9920044,0.024841309,8.625,0.109375,2.515625
821,1695742355242,0.00048828125,-0.99176025,-0.018615723,10.234375,-0.984375,3.09375
822,1695742355280,0.01928711,-0.9985962,-0.00592041,4.515625,-0.046875,2.765625
823,1695742355321,0.021972656,-0.9871216,-0.012756348,7.703125,-0.46875,2.03125
824,1695742355361,0.016601562,-0.99176025,-0.04449463,7.328125,-0.453125,2.71875
825,1695742355403,0.025878906,-0.99346924,-0.03643799,4.390625,-1.046875,2.125
826,1695742355443,0.024658203,-0.9663696,-0.06402588,3.421875,0.109375,1.21875
827,1695742355484,0.033203125,-0.9993286,-0.04547119,3.640625,-1.46875,2.296875
828,1695742355522,0.028076172,-0.972229,-0.101379395,1.765625,-1.1875,0.484375
829,1695742355564,0.053466797,-0.9763794,-0.066223145,-7.875,-0.0625,1.234375
830,1695742355611,0.038085938,-0.9656372,-0.031066895,-2.421875,-0.53125,-0.734375
831,1695742355641,0.06640625,-0.99176025,-0.094055176,-4.78125,-0.71875,-2.109375
832,1695742355681,0.036132812,-0.9829712,-0.028381348,-17.78125,2.515625,-2.4375
833,1695742355701,0.03540039,-1.000061,0.011413574,-6.84375,-1.421875,-2.484375
834,1695742355740,0.026611328,-0.99884033,-0.04083252,-8.015625,1.734375,-4.203125
835,1695742355782,0.016845703,-1.010315,0.012878418,-11.484375,1.109375,-3.484375
836,1695742355823,0.0043945312,-0.9902954,0.014099121,-8.4375,0.53125,-4.78125
837,1695742355860,-0.0012207031,-0.9944458,0.02923584,-9.34375,1.5625,-3.1875
838,1695742355901,0.0043945312,-0.9993286,0.047058105,-7.171875,-0.5625,-3.09375
839,1695742355939,-0.0087890625,-0.99786377,0.04876709,-3.4375,-0.0625,-3.359375
840,1695742355982,-0.013183594,-0.98883057,0.058532715,-3.015625,-0.09375,-2.609375
841,1695742356023,-0.009033203,-0.991272,0.07318115,-2.203125,-0.484375,-1.84375
842,1695742356061,-0.008300781,-0.99224854,0.061706543,-1.3125,-0.078125,-2.03125
843,1695742356101,-0.026367188,-1.0010376,0.05657959,-0.6875,0.734375,-1.0625
844,1695742356142,-0.012939453,-0.99786377,0.06878662,0.265625,0.390625,-0.25
845,1695742356181,-0.0078125,-0.99835205,0.03265381,0.078125,0.515625,-0.546875
846,1695742356220,-0.010498047,-0.989563,0.07684326,-1.296875,1.640625,-1.734375
847,1695742356265,-0.036376953,-1.0032349,0.049743652,1.1875,2.0625,-0.546875
848,1695742356305,-0.032470703,-0.99346924,0.05706787,2.453125,2.171875,1.890625
849,1695742356353,-0.026367188,-0.9898071,0.030944824,5.03125,-0.03125,2.390625
850,1695742356379,0.00024414062,-0.9963989,0.03778076,0.609375,-0.078125,2.71875
851,1695742356425,0.009033203,-0.9819946,0.0602417,6.3125,0.796875,2.140625
852,1695742356465,-0.0063476562,-0.9998169,0.0138549805,9.5,-0.90625,3.53125
853,1695742356503,0.018798828,-0.99786377,0.026550293,6.25,-0.171875,3.0625
854,1695742356548,0.009765625,-0.97540283,-0.03277588,11.875,-1.21875,1.8125
855,1695742356582,0.014892578,-0.99835205,-0.01373291,0.78125,0.03125,2.34375
856,1695742356624,0.012939453,-0.9859009,0.0021362305,5.640625,-0.71875,2.234375
857,1695742356663,0.024414062,-0.9805298,-0.0413208,9.984375,-0.96875,2.046875
858,1695742356706,0.027832031,-1.0100708,-0.070373535,0.40625,-1.046875,1.375
859,1695742356749,0.037841797,-0.9714966,-0.03302002,-1.8125,-0.453125,1.140625
860,1695742356781,0.03881836,-0.9763794,-0.049621582,2.46875,-0.40625,-0.546875
861,1695742356825,0.037109375,-0.9907837,-0.051574707,-3.859375,0.4375,-0.234375
862,1695742356859,0.020996094,-0.9849243,-0.026184082,-1.203125,0.015625,-0.6875
863,1695742356900,0.043701172,-0.9824829,-0.07647705,-4.78125,-1.125,-1.734375
864,1695742356918,0.041015625,-0.98028564,-0.06768799,-23.203125,1.203125,-4.328125
865,1695742356960,0.028564453,-0.9846802,0.07147217,-21.421875,1.71875,-3.09375
866,1695742357000,0.014892578,-0.9968872,0.051208496,-0.734375,-0.46875,-3.9375
867,1695742357042,-0.0026855469,-1.0039673,0.001159668,-7.625,1.46875,-4.109375
868,1695742357082,0.0041503906,-0.9927368,0.06781006,-3.734375,-0.640625,-4.015625
869,1695742357121,-0.0063476562,-0.9951782,0.031677246,-3.1875,-0.328125,-2.96875
870,1695742357161,-0.016357422,-0.991272,0.04901123,-3.609375,0.125,-2.5
871,1695742357200,-0.020263672,-0.9898071,0.05999756,-2.46875,0.09375,-2.140625
872,1695742357241,-0.020019531,-0.99591064,0.061462402,-1.53125,-0.203125,-1.328125
873,1695742357282,-0.018554688,-0.9932251,0.04437256,-1.5,0.234375,-1.15625
874,1695742357323,-0.007080078,-0.9963989,0.06585693,-1.5625,0.375,-0.34375
875,1695742357364,-0.020019531,-0.9961548,0.05267334,0.953125,-0.140625,0.4375
876,1695742357405,0.001953125,-0.99005127,0.05340576,-2.09375,0.75,-1.46875
877,1695742357449,-0.02734375,-0.99957275,0.0602417,-1.984375,1.953125,-0.625
878,1695742357480,-0.020263672,-0.9990845,0.070739746,0.109375,2.203125,-0.109375
879,1695742357524,-0.02758789,-0.99176025,0.049987793,3.078125,1.71875,1.125
880,1695742357562,-0.01977539,-0.9939575,0.03265381,6.0625,0.03125,2.453125
881,1695742357605,0.00024414062,-0.98687744,0.036315918,3.828125,0.34375,1.59375
882,1695742357648,0.00390625,-0.9993286,0.046813965,5.859375,0.640625,2.734375
883,1695742357681,-0.008056641,-0.989563,0.025817871,9.1875,0.328125,1.828125
884,1695742357721,-0.0026855469,-0.9866333,-0.002746582,9.140625,-0.390625,2.0625
885,1695742357762,0.0017089844,-0.99005127,-0.013244629,6.59375,-0.125,2.578125
886,1695742357803,0.0146484375,-0.9841919,-0.0015258789,6.46875,0.109375,3.234375
887,1695742357844,0.019042969,-0.9898071,-0.054748535,11.203125,-1.234375,1.78125
888,1695742357899,0.018798828,-0.9939575,-0.05596924,3.4375,1.546875,2.609375
889,1695742357921,0.0234375,-0.9819946,-0.047668457,7.59375,-0.796875,1.96875
890,1695742357964,0.043945312,-0.9837036,-0.058654785,4.703125,-0.328125,2.15625
891,1695742358000,0.03125,-0.9837036,-0.07305908,4.140625,-1.34375,0.828125
892,1695742358040,0.025634766,-0.9824829,-0.08477783,-0.546875,0.203125,0.5
893,1695742358081,0.052978516,-0.97247314,-0.08502197,-3.359375,-0.9375,0.375
894,1695742358142,0.052246094,-0.9783325,-0.06427002,-8.421875,-0.125,-1.6875
895,1695742358160,0.04736328,-0.98150635,-0.066711426,-12.046875,-0.375,-3.703125
896,1695742358181,0.024414062,-0.98394775,-0.046691895,-14.0625,1.03125,-3.125
897,1695742358222,0.032958984,-0.9956665,-0.022521973,-15.640625,0.34375,-4.125
898,1695742358262,0.032470703,-0.99102783,0.028015137,-15.1875,2.390625,-5.390625
899,1695742358301,-0.0041503906,-1.0022583,0.061706543,-2.421875,0.859375,-4.828125
900,1695742358341,-0.028564453,-0.9951782,0.0119018555,-1.546875,-0.703125,-3.953125
901,1695742358381,-0.0234375,-0.9849243,0.038757324,-3.078125,-0.5625,-2.84375
902,1695742358421,-0.01953125,-0.99591064,0.035339355,-3.765625,0.171875,-2.0
903,1695742358464,-0.0024414062,-0.99664307,0.035339355,-1.46875,-0.0625,-2.25
904,1695742358501,-0.011962891,-0.9949341,0.018981934,0.078125,1.15625,-1.8125
905,1695742358541,-0.0126953125,-0.9883423,0.02557373,-0.140625,-0.140625,-1.078125
906,1695742358583,-0.0053710938,-0.99468994,0.026550293,-2.484375,0.09375,-1.578125
