,timestamp,accel_x,accel_y,accel_z,gyro_x,gyro_y,gyro_z
0,1695742419438,0.10083008,-0.97442627,-0.020812988,-1.171875,-3.09375,-0.625
1,1695742419479,0.111572266,-0.9920044,-0.022277832,2.578125,-4.640625,-0.171875
2,1695742419516,0.103515625,-0.98638916,-0.007385254,-1.484375,-0.125,-0.59375
3,1695742419556,0.10913086,-0.97320557,-0.03375244,-0.703125,-4.125,-0.203125
4,1695742419597,0.11352539,-0.9534302,-0.047180176,-1.40625,-3.734375,-0.84375
5,1695742419637,0.111328125,-0.9680786,0.00579834,-3.9375,-1.96875,-1.609375
6,1695742419677,0.092285156,-0.95562744,-0.006652832,-6.390625,-6.5,-2.109375
7,1695742419717,0.095703125,-0.9690552,0.0040893555,-7.125,-7.234375,-2.546875
8,1695742419757,0.09399414,-0.98223877,0.038024902,-8.78125,-2.765625,-2.65625
9,1695742419780,0.05102539,-0.9961548,0.007751465,-10.78125,-9.015625,-2.34375
10,1695742419818,0.09692383,-0.9805298,0.051208496,-7.765625,-7.328125,-2.40625
11,1695742419858,0.17480469,-0.96588135,-0.00592041,-6.578125,-7.0,-3.859375
12,1695742419898,0.072753906,-1.0464478,0.085632324,-4.328125,-3.28125,-2.171875
13,1695742419937,0.06323242,-0.97442627,0.06365967,-4.140625,-4.0625,-2.203125
14,1695742419978,0.08520508,-0.9768677,0.042419434,-4.765625,-3.8125,-4.34375
15,1695742420018,0.05126953,-0.97442627,0.07879639,-3.75,-1.703125,-4.9375
16,1695742420060,0.06225586,-1.0142212,0.062194824,-3.984375,-2.125,-2.59375
17,1695742420102,0.07763672,-1.0171509,0.070495605,-6.1875,2.3125,-3.109375
18,1695742420139,0.08129883,-0.99005127,0.117614746,-6.0625,1.703125,-4.0
19,1695742420179,0.026611328,-0.99591064,0.058044434,-4.40625,2.421875,-2.890625
20,1695742420218,0.08105469,-0.991272,0.06903076,-11.890625,7.3125,-3.5
21,1695742420263,0.03125,-1.0010376,0.12445068,0.859375,4.109375,0.875
22,1695742420304,0.088378906,-1.0120239,0.11151123,7.6875,11.453125,4.921875
23,1695742420343,0.06591797,-1.0115356,0.11883545,13.21875,7.5,2.515625
24,1695742420388,0.05102539,-0.9729614,0.049987793,12.34375,4.359375,-0.65625
25,1695742420422,0.076171875,-0.95440674,0.034606934,6.109375,8.703125,4.0
26,1695742420462,0.057861328,-1.0110474,0.05682373,11.421875,4.484375,2.34375
27,1695742420505,0.061767578,-1.0037231,0.009216309,10.0,3.078125,3.515625
28,1695742420542,0.080322266,-1.0007935,0.016540527,6.0625,7.59375,4.21875
29,1695742420581,0.068115234,-0.97540283,0.012878418,11.90625,0.703125,1.5625
30,1695742420621,0.07543945,-0.97613525,-0.06719971,5.78125,5.3125,4.609375
31,1695742420662,0.13452148,-1.0252075,0.020446777,6.0625,10.1875,8.671875
32,1695742420703,0.08642578,-0.97198486,-0.046203613,8.0625,1.3125,2.46875
33,1695742420739,0.08154297,-0.9546509,-0.07501221,6.640625,4.140625,4.96875
34,1695742420780,0.13696289,-1.013977,-0.04425049,3.875,9.734375,5.125
35,1695742420821,0.12646484,-0.9158325,-0.04840088,2.34375,-0.328125,2.1875
36,1695742420862,0.10522461,-0.94976807,-0.054016113,-0.671875,2.53125,4.390625
37,1695742420901,0.1459961,-0.9456177,-0.013977051,-1.71875,-4.390625,1.046875
38,1695742420941,0.12841797,-0.93536377,-0.08648682,-4.3125,-12.1875,-2.046875
39,1695742420979,0.12548828,-0.97540283,-0.031311035,-4.71875,-6.4375,-2.140625
40,1695742421001,0.12597656,-0.9314575,-0.04156494,-15.640625,-9.3125,-4.640625
41,1695742421041,0.095458984,-0.98150635,-0.05230713,-15.40625,-17.890625,-2.828125
42,1695742421080,0.14404297,-1.0134888,0.055603027,-5.625,2.703125,-3.5
43,1695742421121,0.10205078,-1.0278931,-0.024719238,-12.734375,-12.25,-2.5
44,1695742421161,0.10546875,-0.95928955,0.059020996,-4.5,-6.75,-1.8125
45,1695742421201,0.15771484,-0.9627075,0.019470215,-7.328125,-0.78125,-2.1875
46,1695742421238,0.06542969,-0.96759033,0.02947998,-9.734375,-11.484375,-3.875
47,1695742421278,0.11328125,-1.0005493,0.08026123,-6.625,-4.34375,-2.328125
48,1695742421317,0.107910156,-1.038147,0.062194824,-6.25,-3.703125,-0.859375
49,1695742421360,0.10571289,-0.97613525,0.053649902,-7.390625,-4.171875,-4.46875
50,1695742421400,0.12524414,-0.973938,0.070251465,-5.21875,-1.6875,-3.421875
51,1695742421440,0.11401367,-1.0015259,0.08465576,-8.484375,-0.046875,-3.90625
52,1695742421481,0.10864258,-1.0003052,0.11102295,-13.5,-0.65625,-6.96875
53,1695742421520,0.083984375,-0.99786377,0.11077881,-7.8125,3.34375,-6.9375
54,1695742421560,0.021240234,-1.0178833,0.13641357,-5.3125,0.265625,-3.90625
55,1695742421601,0.020263672,-0.94366455,0.16107178,-3.1875,2.828125,-1.109375
56,1695742421640,0.092285156,-1.0078735,0.15032959,0.15625,5.6875,-0.5625
57,1695742421688,0.052001953,-1.0369263,0.13763428,7.109375,9.625,-1.921875
58,1695742421720,0.08642578,-1.0088501,0.105407715,7.015625,6.734375,0.53125
59,1695742421761,0.025878906,-0.95269775,0.086364746,13.625,3.296875,-0.03125
60,1695742421807,0.099609375,-0.99468994,0.07366943,8.53125,19.109375,2.171875
61,1695742421840,0.035888672,-0.97198486,0.13372803,7.515625,1.109375,2.4375
62,1695742421880,0.052246094,-0.9558716,0.016296387,19.0,-1.46875,3.0
63,1695742421920,0.09863281,-1.0278931,0.0038452148,2.828125,12.34375,3.6875
64,1695742421962,0.07836914,-0.9807739,0.12298584,5.984375,3.046875,3.828125
65,1695742422001,0.10449219,-0.9758911,-0.030578613,24.828125,-6.40625,-0.140625
66,1695742422041,0.076660156,-0.97052,-0.06939697,0.359375,4.515625,4.53125
67,1695742422082,0.11010742,-0.98321533,0.024353027,6.3125,2.03125,4.984375
68,1695742422118,0.10473633,-0.98760986,-0.012756348,1.359375,2.296875,1.828125
69,1695742422159,0.08251953,-0.9619751,-0.045959473,7.8125,-6.015625,3.296875
70,1695742422219,0.13598633,-0.92803955,-0.024719238,-2.5,-1.421875,1.671875
71,1695742422239,0.07080078,-0.97784424,-0.06549072,-5.125,-8.8125,1.0625
72,1695742422258,0.13720703,-0.98394775,0.030212402,-6.015625,0.125,-0.15625
73,1695742422299,0.09716797,-0.93878174,-0.066467285,-9.015625,-12.46875,-4.15625
74,1695742422339,0.103027344,-0.9668579,0.04949951,-9.015625,-4.6875,-1.890625
75,1695742422380,0.07763672,-0.98101807,-0.009094238,-9.84375,-9.296875,-2.0625
76,1695742422422,0.08911133,-1.022522,0.047058105,-7.71875,-4.9375,-2.640625
77,1695742422464,0.09033203,-1.000061,0.046081543,-10.484375,-7.0625,-4.265625
78,1695742422504,0.07299805,-0.98760986,0.070739746,-8.140625,-6.96875,-4.90625
79,1695742422544,0.12866211,-0.97979736,0.07342529,-6.515625,-1.578125,-4.6875
80,1695742422584,0.10595703,-0.9849243,0.055358887,-8.640625,-4.140625,-3.921875
81,1695742422621,0.05517578,-0.9951782,0.09686279,-8.203125,-1.15625,-2.90625
82,1695742422662,0.08251953,-0.986145,0.101501465,-7.140625,-1.3125,-4.34375
83,1695742422708,0.04663086,-1.0088501,0.097351074,-6.875,-2.359375,-2.59375
84,1695742422742,0.06933594,-0.96832275,0.105163574,-6.59375,0.8125,-2.09375
85,1695742422781,0.076416016,-0.97906494,0.11102295,-6.4375,1.15625,-2.90625
86,1695742422819,0.046875,-0.9998169,0.14666748,-6.0625,-1.046875,-1.8125
87,1695742422861,0.06689453,-0.99053955,0.13812256,-5.15625,-1.96875,-2.34375
88,1695742422902,0.07836914,-0.9937134,0.12860107,-4.125,0.8125,-3.390625
89,1695742422942,0.07421875,-0.99835205,0.1281128,-4.15625,0.0625,-3.890625
90,1695742422981,0.03515625,-1.038147,0.1642456,6.1875,6.109375,-0.5625
91,1695742423020,0.04638672,-0.98321533,0.12664795,9.859375,4.28125,2.46875
92,1695742423062,0.080322266,-0.96173096,0.11566162,8.328125,4.953125,1.890625
93,1695742423100,0.07495117,-0.99591064,0.10394287,8.0625,11.359375,-0.109375
94,1695742423140,0.030273438,-1.0042114,0.093688965,9.5625,1.78125,1.84375
95,1695742423181,0.068359375,-0.9871216,0.08343506,10.9375,2.890625,2.28125
96,1695742423221,0.095703125,-0.960022,0.04852295,9.125,2.296875,-0.34375
97,1695742423263,0.06689453,-1.0239868,0.049743652,11.484375,8.21875,3.65625
98,1695742423303,0.064941406,-0.9859009,0.0368042,11.46875,9.390625,4.234375
99,1695742423346,0.033935547,-0.98223877,0.0014038086,9.8125,-0.53125,3.703125
100,1695742423386,0.037597656,-1.0261841,-0.014465332,20.0,9.5625,5.671875
101,1695742423424,0.13256836,-0.9663696,0.016052246,7.796875,9.828125,-0.15625
102,1695742423463,0.07836914,-0.89801025,-0.061828613,-4.78125,-5.546875,0.46875
103,1695742423479,0.087402344,-0.9414673,-0.062561035,-5.25,-6.078125,-0.4375
104,1695742423523,0.099365234,-1.0095825,0.027038574,-11.09375,-3.921875,-2.09375
105,1695742423560,0.08203125,-0.9558716,-0.032287598,-12.890625,-4.90625,-4.484375
106,1695742423603,0.05859375,-0.9741821,-0.002746582,-13.015625,-9.859375,-2.71875
107,1695742423639,0.084472656,-1.0046997,0.06463623,-5.71875,-0.640625,-5.40625
108,1695742423681,0.07836914,-0.99053955,0.010925293,-5.625,-9.84375,-1.203125
109,1695742423723,0.1015625,-0.99346924,0.047790527,-6.109375,-1.09375,-1.90625
110,1695742423760,0.08544922,-0.9949341,0.04486084,-6.890625,-2.953125,-2.046875
111,1695742423801,0.043945312,-1.0274048,0.09881592,-4.515625,-0.140625,-2.6875
112,1695742423842,0.060546875,-0.9536743,0.02142334,-5.171875,-6.328125,-1.8125
113,1695742423884,0.08886719,-0.9871216,0.0692749,-5.375,-1.671875,-1.59375
114,1695742423921,0.055664062,-0.9990845,0.097595215,-7.875,-1.78125,-3.21875
115,1695742423961,0.041259766,-1.0022583,0.07269287,-1.65625,-4.453125,-3.140625
116,1695742424004,0.055908203,-0.9924927,0.07196045,0.578125,-1.5625,-1.328125
117,1695742424050,0.055664062,-0.9871216,0.09564209,-3.640625,0.90625,-3.734375
118,1695742424083,0.041259766,-0.9915161,0.10272217,-5.046875,3.03125,-5.046875
119,1695742424122,0.0107421875,-1.0154419,0.090270996,-3.125,-0.875,-3.40625
120,1695742424162,0.034179688,-0.99786377,0.10491943,-3.671875,-0.421875,-3.34375
121,1695742424201,0.029785156,-0.98272705,0.08123779,-2.140625,0.578125,-3.375
122,1695742424241,0.032470703,-1.0164185,0.11004639,2.78125,6.65625,-2.75
123,1695742424280,0.020751953,-1.0247192,0.093444824,5.640625,5.6875,-0.1875
124,1695742424321,0.0041503906,-1.0022583,0.086364746,6.953125,9.203125,0.34375
125,1695742424362,0.030761719,-0.9463501,0.08026123,6.8125,7.484375,-2.671875
126,1695742424401,0.00024414062,-1.0151978,0.06121826,9.5,7.8125,1.21875
127,1695742424442,0.025878906,-1.005188,0.058044434,3.46875,9.515625,-0.140625
128,1695742424481,0.017089844,-0.98516846,0.046569824,11.703125,1.765625,-0.984375
129,1695742424522,0.011962891,-0.98321533,0.03387451,6.171875,8.546875,1.5625
130,1695742424562,0.05102539,-0.9932251,0.030944824,9.15625,4.078125,3.53125
131,1695742424604,0.025146484,-1.003479,0.0065307617,14.890625,-1.40625,1.8125
132,1695742424641,0.010253906,-1.0093384,-0.054504395,13.609375,6.515625,6.625
133,1695742424700,0.03466797,-0.94976807,-0.011779785,9.015625,1.734375,6.046875
134,1695742424704,0.026611328,-0.97857666,-0.05645752,1.96875,-0.703125,1.59375
135,1695742424743,0.02758789,-0.9553833,-0.05230713,0.484375,-3.9375,2.6875
136,1695742424782,0.030761719,-0.9783325,-0.049865723,-4.75,-3.90625,-0.0625
137,1695742424819,0.052978516,-0.9639282,-0.050842285,-7.265625,-6.53125,-0.59375
138,1695742424861,0.06616211,-0.97906494,-0.038635254,-8.75,-1.90625,0.109375
139,1695742424900,0.0690918,-0.956604,-0.039367676,-12.703125,-4.375,-0.25
140,1695742424941,0.027832031,-1.0181274,0.013122559,-7.8125,-8.703125,1.046875
141,1695742424982,0.07910156,-1.0049438,0.024597168,-5.125,-0.4375,-0.09375
142,1695742425023,0.042236328,-1.0061646,-0.03375244,-9.28125,-9.75,0.28125
143,1695742425063,0.064697266,-0.97198486,0.039245605,-6.359375,-3.65625,-2.5625
144,1695742425106,0.06933594,-1.0020142,0.04559326,-5.796875,1.0,-1.140625
145,1695742425143,0.09448242,-0.9963989,0.012878418,-9.25,-5.15625,-4.328125
146,1695742425179,0.08569336,-0.98443604,0.07196045,-6.6875,0.875,-4.59375
147,1695742425223,0.014160156,-1.0049438,0.066101074,-1.890625,-1.703125,-3.640625
148,1695742425261,0.020751953,-0.9973755,0.04852295,-0.140625,-9.984375,-6.0
149,1695742425303,0.040527344,-0.97540283,0.023864746,-0.265625,-3.265625,-3.625
150,1695742425342,0.044921875,-0.9939575,0.054138184,-9.796875,4.15625,-2.625
151,1695742425381,0.014892578,-1.0183716,0.09320068,-5.046875,0.84375,-1.65625
152,1695742425422,0.005859375,-1.008606,0.062438965,-3.3125,0.265625,-2.578125
153,1695742425463,0.021484375,-0.9636841,0.06048584,-5.25,0.734375,-2.359375
154,1695742425506,0.0234375,-0.97784424,0.0836792,-9.359375,7.75,-0.140625
155,1695742425544,0.045410156,-1.019104,0.13031006,-5.5625,8.84375,-2.625
156,1695742425582,0.0146484375,-0.99884033,0.09661865,4.9375,1.75,-3.625
157,1695742425622,-0.012207031,-1.0059204,0.105163574,4.4375,6.484375,-3.046875
158,1695742425663,0.03149414,-0.9758911,0.078308105,3.765625,2.34375,-1.75
159,1695742425708,0.013916016,-0.9780884,0.058532715,7.390625,-1.90625,1.15625
160,1695742425739,-0.026855469,-1.022522,0.05609131,6.984375,4.0,3.5625
161,1695742425779,-0.013427734,-1.006897,0.051452637,4.0625,2.0,5.34375
162,1695742425818,0.04296875,-0.9714966,0.0758667,7.84375,2.109375,3.828125
163,1695742425858,0.033691406,-0.9949341,0.027526855,15.03125,2.46875,7.296875
164,1695742425917,0.030029297,-0.99005127,-0.003479004,7.75,3.203125,6.015625
165,1695742425937,0.037109375,-0.991272,-0.013000488,11.265625,-1.21875,3.875
166,1695742425956,0.055908203,-0.97906494,-0.030822754,6.203125,4.4375,4.3125
167,1695742425998,0.083984375,-1.0037231,0.0067749023,7.984375,3.90625,4.6875
168,1695742426038,0.036621094,-0.9795532,-0.02545166,12.421875,-0.4375,2.734375
169,1695742426079,0.04321289,-0.958313,-0.08111572,10.421875,-2.15625,2.9375
170,1695742426119,0.092041016,-0.93927,-0.07525635,-2.734375,-5.890625,0.8125
171,1695742426158,0.072021484,-0.9768677,-0.07086182,-3.265625,-3.28125,0.546875
172,1695742426199,0.115234375,-0.9834595,-0.054992676,-7.015625,1.265625,-0.5625
173,1695742426239,0.048828125,-0.98028564,-0.019592285,-1.25,-5.984375,-1.15625
174,1695742426279,0.057861328,-0.95977783,-0.08111572,-0.703125,-6.46875,-3.734375
175,1695742426318,0.018798828,-0.98687744,-0.062072754,-16.125,-0.96875,0.484375
176,1695742426359,0.08691406,-1.0337524,0.028015137,-12.203125,-2.765625,-2.5625
177,1695742426401,0.1459961,-0.97076416,0.017028809,-7.5625,3.171875,-3.359375
178,1695742426441,-0.0024414062,-0.9951782,0.02947998,2.703125,-5.328125,-0.46875
179,1695742426485,0.03149414,-0.9463501,-0.050598145,1.3125,-13.390625,-0.21875
180,1695742426528,0.075683594,-0.986145,-0.030822754,-15.25,0.984375,0.515625
181,1695742426583,0.122802734,-1.0186157,0.06317139,-7.46875,2.078125,-4.015625
182,1695742426603,0.052734375,-1.0078735,0.01751709,-7.90625,-0.59375,-2.890625
183,1695742426641,0.048095703,-0.9854126,0.030944824,-3.96875,1.796875,-0.265625
184,1695742426683,0.0637207,-0.9536743,0.02947998,-4.3125,-4.09375,-3.90625
185,1695742426720,0.072753906,-0.98028564,0.034362793,-3.890625,-0.234375,-3.875
186,1695742426762,0.028564453,-1.0210571,0.07122803,-7.171875,2.5,-2.90625
187,1695742426804,0.045166016,-1.0015259,0.0680542,-4.125,-3.78125,-2.1875
188,1695742426840,0.056152344,-0.97979736,0.04510498,-3.796875,-0.78125,-3.03125
189,1695742426880,0.025390625,-0.9834595,0.050476074,-2.5625,1.984375,-2.0
190,1695742426922,0.029541016,-1.0222778,0.04071045,-2.328125,2.125,0.875
191,1695742426962,0.042236328,-1.0481567,0.10491943,-2.203125,7.65625,0.03125
192,1695742426999,0.018066406,-0.97369385,0.06756592,7.515625,2.296875,-0.5
193,1695742427044,0.053466797,-0.98150635,0.03289795,4.234375,8.703125,0.671875
194,1695742427081,0.030517578,-0.9783325,0.066589355,3.609375,4.78125,3.421875
195,1695742427122,0.052001953,-1.0012817,0.04144287,5.9375,2.578125,0.390625
196,1695742427160,0.049560547,-0.99884033,0.024108887,5.171875,4.75,3.078125
197,1695742427180,0.038085938,-0.9824829,0.034362793,8.125,1.125,4.5
198,1695742427219,0.07446289,-0.99420166,-6.1035156e-05,6.109375,4.984375,2.34375
199,1695742427262,0.05078125,-0.9829712,0.0016479492,4.4375,4.9375,3.546875
200,1695742427302,0.052978516,-0.9885864,-0.009094238,2.296875,-0.0625,4.40625
201,1695742427340,0.09375,-0.9829712,-0.046203613,6.484375,-2.75,2.34375
202,1695742427381,0.09838867,-0.9924927,0.030456543,5.0625,8.5,6.15625
203,1695742427421,0.06591797,-0.96710205,-0.047424316,0.078125,0.03125,2.96875
204,1695742427462,0.061767578,-0.9397583,-0.06793213,-2.484375,-7.375,1.078125
205,1695742427502,0.08325195,-0.9573364,-0.02178955,-2.859375,-1.3125,-1.875
206,1695742427544,0.111083984,-0.97003174,0.0079956055,-9.5625,-5.96875,-3.046875
207,1695742427583,0.072265625,-0.9873657,0.0067749023,-11.328125,-5.59375,0.09375
208,1695742427622,0.09423828,-0.99102783,-0.0032348633,-5.09375,-4.625,-3.125
209,1695742427662,0.107666016,-1.0098267,0.042419434,-5.265625,-1.078125,-0.875
210,1695742427704,0.07421875,-0.9968872,0.014831543,-4.328125,-4.15625,-3.078125
211,1695742427741,0.0949707,-0.9446411,0.018493652,-5.65625,-4.3125,-2.984375
212,1695742427780,0.0847168,-0.99957275,0.031921387,-4.4375,-1.65625,-2.34375
213,1695742427820,0.072021484,-1.0217896,0.055358887,-5.203125,-0.1875,-3.421875
214,1695742427863,0.06567383,-1.00177,0.034851074,-1.1875,-3.734375,-1.53125
215,1695742427901,0.091552734,-0.9651489,0.054626465,-0.9375,-2.421875,-2.984375
216,1695742427940,0.045654297,-0.9915161,0.05218506,-3.828125,0.78125,-0.625
217,1695742427986,0.045410156,-1.02594,0.049743652,-3.859375,1.53125,-0.234375
218,1695742428019,0.05883789,-0.9859009,0.042175293,-6.453125,-2.03125,-3.203125
219,1695742428060,0.07739258,-0.9824829,0.07342529,-5.40625,2.078125,-3.203125
220,1695742428099,0.05834961,-1.0066528,0.07293701,-3.375,1.734375,-0.1875
221,1695742428139,0.068847656,-0.98760986,0.07196045,-2.765625,-1.453125,-0.109375
222,1695742428180,0.06689453,-1.0003052,0.07220459,0.5625,3.703125,-2.9375
223,1695742428222,0.043701172,-1.0349731,0.07293701,0.4375,5.515625,-0.984375
224,1695742428260,0.0078125,-0.9846802,0.08929443,5.4375,4.546875,0.03125
225,1695742428301,0.032470703,-0.96881104,0.026794434,7.125,2.734375,1.0625
226,1695742428341,0.059570312,-0.9673462,0.04901123,3.125,7.765625,2.0625
227,1695742428404,0.046142578,-1.0171509,0.043151855,3.203125,6.65625,2.625
228,1695742428408,0.060302734,-1.0012817,0.051452637,4.171875,6.171875,2.78125
229,1695742428447,0.06738281,-0.9768677,0.012145996,2.21875,8.03125,1.625
230,1695742428483,0.04638672,-0.9819946,0.030456543,2.84375,7.21875,1.609375
231,1695742428531,0.061767578,-0.98394775,0.039001465,4.03125,5.125,3.828125
232,1695742428564,0.07348633,-0.98443604,0.0099487305,4.21875,3.21875,1.328125
233,1695742428605,0.0859375,-0.97442627,0.007507324,2.0625,4.328125,0.4375
234,1695742428640,0.072753906,-0.97979736,0.013122559,2.5625,3.390625,2.296875
235,1695742428682,0.08496094,-0.9710083,-0.0010375977,1.109375,0.015625,2.484375
236,1695742428722,0.09692383,-0.9846802,0.010437012,4.109375,-0.859375,1.9375
237,1695742428761,0.08203125,-0.9590454,-0.0056762695,2.609375,-1.578125,-0.625
238,1695742428824,0.052734375,-0.97003174,-0.016662598,0.0,-4.828125,0.59375
239,1695742428840,0.08959961,-0.9402466,-0.032043457,0.34375,-3.109375,-1.828125
240,1695742428903,0.079833984,-0.96295166,-0.023986816,-10.015625,-8.46875,-4.5625
241,1695742428922,0.06225586,-0.9768677,0.01776123,-8.203125,-12.015625,-1.78125
242,1695742428964,0.12475586,-1.0037231,0.039001465,-5.9375,-2.390625,-1.453125
243,1695742429002,0.115234375,-1.0164185,0.04095459,-5.84375,-0.921875,0.546875
244,1695742429042,0.07739258,-0.9824829,0.012634277,-3.546875,-3.96875,-5.09375
245,1695742429081,0.036376953,-0.9771118,0.012634277,0.0625,-2.46875,-1.125
246,1695742429121,0.05908203,-0.9956665,0.051452637,-2.203125,-2.6875,-2.15625
247,1695742429163,0.091552734,-1.0071411,0.05316162,-5.71875,-4.390625,-4.25
248,1695742429201,0.05053711,-0.9949341,0.020690918,-0.625,-0.390625,-4.25
249,1695742429244,0.016601562,-0.9998169,0.018249512,-6.546875,3.5625,-2.796875
250,1695742429281,0.049072266,-0.9776001,0.07269287,-7.65625,1.921875,-2.796875
251,1695742429321,0.061035156,-0.9927368,0.058776855,-4.765625,-0.0625,-3.90625
252,1695742429362,0.04296875,-0.99005127,0.07928467,-9.3125,6.125,-1.40625
253,1695742429403,0.02734375,-1.013977,0.066833496,-2.421875,-1.203125,-0.875
254,1695742429441,0.041259766,-0.9758911,0.074157715,-7.671875,3.03125,-2.015625
255,1695742429480,0.033203125,-1.0088501,0.101501465,-2.453125,2.875,-1.875
256,1695742429522,0.057617188,-0.9927368,0.093688965,-1.734375,2.53125,0.125
257,1695742429560,0.044921875,-0.99420166,0.08905029,1.5,0.84375,-0.265625
258,1695742429599,0.015380859,-1.0166626,0.074401855,2.328125,4.75,2.25
259,1695742429620,0.0715332,-0.9907837,0.09051514,5.328125,6.78125,1.546875
260,1695742429659,0.036621094,-0.9837036,0.070739746,13.28125,7.625,3.15625
261,1695742429700,0.049316406,-1.0005493,0.05218506,9.59375,6.71875,6.40625
262,1695742429758,0.036865234,-0.98321533,-0.002746582,15.515625,-0.890625,2.125
263,1695742429779,0.064941406,-0.9805298,0.010681152,-1.109375,8.671875,2.265625
264,1695742429821,0.08666992,-0.98931885,0.041931152,6.765625,4.296875,2.3125
265,1695742429860,0.06347656,-1.0112915,0.0038452148,8.90625,3.859375,3.203125
266,1695742429898,0.06933594,-0.97491455,-0.037902832,7.34375,4.078125,1.984375
267,1695742429941,0.04321289,-0.95684814,-0.04425049,5.6875,1.875,1.75
268,1695742429978,0.07714844,-0.9651489,-0.031555176,0.8125,0.578125,1.828125
269,1695742430018,0.09692383,-0.9998169,-0.01373291,1.90625,-0.9375,1.09375
270,1695742430060,0.078125,-0.9649048,-0.02911377,-0.421875,-0.21875,1.453125
271,1695742430100,0.07763672,-0.9553833,-0.07867432,-3.484375,-6.59375,-0.703125
272,1695742430141,0.10473633,-0.97540283,-0.031799316,-1.140625,-2.4375,-2.28125
273,1695742430187,0.09106445,-0.9639282,-0.05230713,-4.53125,-4.125,-1.5
274,1695742430221,0.07006836,-0.9788208,0.0138549805,-4.828125,0.25,0.359375
275,1695742430259,0.052001953,-0.98443604,-0.031799316,-3.34375,-5.171875,0.28125
276,1695742430298,0.057861328,-0.9985962,-0.0005493164,-5.328125,-4.859375,-0.09375
277,1695742430337,0.10546875,-0.9495239,-0.030334473,-10.546875,-6.1875,-4.125
278,1695742430378,0.087890625,-1.0095825,0.016540527,-11.3125,-6.75,-5.375
279,1695742430420,0.07055664,-1.0281372,0.07562256,-5.953125,0.125,-1.921875
280,1695742430464,0.076171875,-0.9924927,0.016784668,-5.0625,-3.734375,-1.21875
281,1695742430500,0.07763672,-0.94537354,0.024841309,-4.8125,-0.828125,-3.3125
282,1695742430543,0.072753906,-0.9871216,0.026550293,-5.203125,-1.953125,-1.765625
283,1695742430580,0.07543945,-1.0056763,0.06585693,-5.109375,-0.546875,-2.609375
284,1695742430621,0.060058594,-1.0105591,0.048034668,-3.421875,-1.046875,-2.0625
285,1695742430659,0.045898438,-0.95806885,0.057800293,-1.3125,2.25,0.03125
286,1695742430702,0.030517578,-0.99713135,0.0446167,-1.59375,0.5,1.53125
287,1695742430741,0.051757812,-0.9837036,0.06976318,-2.015625,-2.453125,-0.375
288,1695742430783,0.08105469,-0.9805298,0.04925537,-1.671875,-1.4375,-0.359375
289,1695742430820,0.07006836,-1.0115356,0.06561279,0.078125,1.671875,0.46875
290,1695742430860,0.06347656,-1.0083618,0.070007324,0.75,1.984375,1.859375
291,1695742430880,0.049072266,-1.0029907,0.06097412,2.671875,2.140625,0.8125
292,1695742430920,0.048095703,-0.9920044,0.039001465,5.5,8.1875,1.921875
293,1695742430961,0.08496094,-0.98760986,0.038024902,2.53125,5.546875,1.328125
294,1695742430999,0.076416016,-0.98883057,0.035095215,5.28125,5.984375,1.390625
295,1695742431041,0.063964844,-1.0005493,0.04095459,4.953125,7.265625,2.703125
296,1695742431080,0.0859375,-0.98883057,0.019714355,3.59375,5.171875,1.265625
297,1695742431121,0.09082031,-0.9800415,0.008728027,4.921875,4.890625,1.125
298,1695742431162,0.08276367,-0.9968872,0.010925293,4.03125,5.640625,3.109375
299,1695742431200,0.06201172,-0.9837036,-0.0005493164,4.140625,0.75,1.265625
300,1695742431243,0.10839844,-1.0061646,-0.023010254,6.75,4.5,2.4375
301,1695742431280,0.09765625,-0.9915161,-0.020568848,4.640625,6.09375,2.0
302,1695742431320,0.095214844,-0.9595337,-0.030334473,4.6875,5.5,2.4375
303,1695742431359,0.075683594,-0.95440674,-0.016418457,1.625,0.40625,3.515625
304,1695742431400,0.099365234,-0.9385376,-0.03375244,-2.109375,-4.15625,0.984375
305,1695742431439,0.07446289,-0.97540283,-0.04888916,-2.515625,-7.140625,2.25
306,1695742431477,0.11645508,-0.9795532,-0.029846191,-7.015625,-6.28125,-0.484375
307,1695742431517,0.12133789,-0.97906494,0.019958496,-7.796875,-1.296875,-0.46875
308,1695742431557,0.07446289,-0.9241333,-0.05255127,-11.265625,-13.53125,-0.875
309,1695742431597,0.13085938,-0.9678345,0.01751709,-7.578125,-4.71875,-2.046875
310,1695742431637,0.1394043,-1.0232544,0.062438965,-6.46875,2.953125,2.09375
311,1695742431677,0.053466797,-0.98565674,-0.02154541,-9.515625,-7.796875,-0.171875
312,1695742431718,0.13305664,-0.9673462,0.038269043,-4.390625,-3.34375,-1.4375
313,1695742431757,0.12573242,-1.0015259,0.07513428,-4.34375,1.703125,-1.6875
314,1695742431800,0.10131836,-0.98272705,0.039001465,-6.15625,-6.953125,-2.546875
315,1695742431841,0.1159668,-0.9668579,0.05633545,-2.984375,-2.90625,-0.78125
316,1695742431878,0.11303711,-0.98638916,0.057800293,-3.28125,0.484375,-1.09375
317,1695742431920,0.096191406,-0.98638916,0.06072998,-4.140625,-3.8125,-3.6875
318,1695742431960,0.08325195,-0.9898071,0.06561279,-0.90625,-4.03125,-3.109375
319,1695742432000,0.10253906,-0.98516846,0.07537842,-0.84375,0.40625,-0.921875
320,1695742432043,0.08544922,-0.9685669,0.06439209,-3.03125,-4.734375,-2.03125
321,1695742432082,0.08203125,-0.98565674,0.06756592,-2.5625,-1.3125,-2.0625
322,1695742432101,0.076660156,-1.0054321,0.078308105,-4.0,0.78125,-1.796875
323,1695742432143,0.10839844,-0.9727173,0.08880615,-3.21875,-0.234375,-1.96875
324,1695742432186,0.0949707,-1.0088501,0.0692749,-0.9375,4.734375,-1.578125
325,1695742432225,0.1015625,-1.0181274,0.049743652,1.3125,7.234375,-2.109375
326,1695742432261,0.052734375,-0.9866333,0.093444824,6.78125,7.078125,2.328125
327,1695742432300,0.088378906,-0.98638916,0.05731201,7.21875,8.59375,2.578125
328,1695742432341,0.09448242,-0.9883423,0.05731201,8.734375,3.0625,0.40625
329,1695742432384,0.036376953,-0.98638916,0.010925293,13.15625,4.765625,1.890625
330,1695742432419,0.13134766,-0.9949341,0.028259277,-3.734375,17.921875,5.421875
331,1695742432458,0.091552734,-0.9758911,0.054382324,9.328125,0.40625,0.15625
332,1695742432499,0.06323242,-0.9602661,-0.018127441,6.484375,5.125,4.390625
333,1695742432540,0.12915039,-0.9963989,0.018981934,5.796875,5.140625,3.09375
334,1695742432580,0.091796875,-0.95147705,-0.0051879883,2.734375,-1.421875,-0.25
335,1695742432616,0.095458984,-0.97491455,-0.039611816,5.734375,-0.859375,2.765625
336,1695742432659,0.13720703,-1.0059204,-0.0056762695,0.546875,3.578125,1.859375
337,1695742432701,0.08251953,-0.96759033,-0.026916504,2.46875,-2.015625,0.75
338,1695742432742,0.10229492,-0.9631958,-0.030090332,0.515625,0.609375,1.375
339,1695742432781,0.122802734,-0.94732666,-0.04058838,-1.09375,-6.421875,-2.171875
340,1695742432820,0.13647461,-0.9678345,-0.010070801,-3.671875,-2.515625,-0.21875
341,1695742432860,0.12792969,-0.97076416,-0.012023926,-5.71875,-2.015625,-1.703125
342,1695742432899,0.096191406,-0.9631958,-0.016418457,-7.0625,-7.546875,-2.296875
343,1695742432960,0.09887695,-0.9741821,-0.0012817383,-7.6875,-8.078125,-2.34375
344,1695742432980,0.1274414,-0.99713135,0.015563965,-6.625,-6.5,-5.0625
345,1695742433020,0.091308594,-1.010315,0.03314209,-8.078125,-3.96875,-1.640625
346,1695742433061,0.08081055,-0.98809814,0.031677246,-7.546875,-7.40625,-2.078125
347,1695742433100,0.12890625,-0.9795532,0.030944824,-4.0625,-2.6875,-1.609375
348,1695742433142,0.13354492,-1.0010376,0.034851074,-5.140625,-0.765625,-2.140625
349,1695742433181,0.11254883,-0.97784424,0.038024902,-6.53125,-0.171875,-3.0625
350,1695742433220,0.06982422,-0.98223877,0.066589355,-4.15625,0.9375,-2.578125
351,1695742433261,0.06762695,-0.99420166,0.042419434,-3.875,-3.234375,-2.359375
352,1695742433305,0.10595703,-0.9800415,0.062927246,-4.59375,-0.078125,-3.09375
353,1695742433319,0.07104492,-0.98931885,0.07318115,-4.78125,2.671875,-3.15625
354,1695742433365,0.044677734,-1.0093384,0.08392334,-6.40625,-1.234375,-3.421875
355,1695742433399,0.08081055,-0.96221924,0.07904053,-6.21875,-1.265625,-3.28125
356,1695742433439,0.0859375,-0.9834595,0.08831787,-3.5625,1.59375,-3.953125
357,1695742433478,0.068603516,-0.9993286,0.09954834,-5.515625,1.0625,-3.71875
358,1695742433520,0.06201172,-0.97979736,0.090026855,-4.0,-1.0625,-2.671875
359,1695742433561,0.10571289,-1.0186157,0.09979248,2.21875,4.34375,-2.5
360,1695742433598,0.053955078,-1.0120239,0.101257324,1.78125,8.5,-1.9375
361,1695742433638,0.040039062,-0.96832275,0.09832764,6.90625,4.28125,-0.4375
362,1695742433680,0.032958984,-0.9837036,0.070495605,3.1875,4.734375,0.546875
363,1695742433722,0.08300781,-0.9824829,0.09881592,0.40625,7.0,-1.34375
364,1695742433763,0.040527344,-0.99591064,0.070495605,5.65625,3.71875,0.078125
365,1695742433803,0.04321289,-1.0239868,0.06390381,5.578125,6.296875,1.171875
366,1695742433844,0.07299805,-0.9680786,0.05706787,5.125,4.0,0.890625
367,1695742433886,0.088134766,-0.9624634,0.04901123,6.1875,2.75,1.296875
368,1695742433925,0.04711914,-1.000061,0.0289917,5.375,4.015625,4.953125
369,1695742433968,0.07397461,-1.0195923,0.03289795,4.109375,3.84375,2.015625
370,1695742434004,0.055664062,-0.99468994,0.0079956055,8.3125,3.375,2.09375
371,1695742434040,0.07128906,-0.9624634,0.016296387,4.578125,4.921875,1.9375
372,1695742434083,0.080322266,-0.9492798,-0.003479004,1.703125,-1.53125,1.890625
373,1695742434128,0.07910156,-0.95684814,-0.0049438477,-1.0625,-3.609375,1.203125
374,1695742434169,0.09741211,-0.9985962,0.010925293,-2.390625,-5.375,-0.421875
375,1695742434205,0.068359375,-0.9866333,0.031433105,-3.140625,-2.734375,0.0
376,1695742434246,0.06982422,-0.9561157,0.0065307617,-6.1875,-9.359375,-1.0625
377,1695742434286,0.072021484,-0.97442627,0.020935059,-6.09375,-9.09375,-1.40625
378,1695742434330,0.0847168,-1.0132446,0.04486084,-7.453125,-5.171875,-0.53125
379,1695742434367,0.055419922,-1.0054321,0.034851074,-9.234375,-9.0625,-1.828125
380,1695742434400,0.107177734,-0.9656372,0.047302246,-6.265625,-5.1875,-2.6875
381,1695742434441,0.079589844,-1.006897,0.09075928,-5.453125,-0.53125,-0.15625
382,1695742434481,0.08691406,-0.9768677,0.08416748,-6.015625,-4.328125,-2.765625
383,1695742434522,0.08251953,-0.9990845,0.07293701,-4.375,-4.78125,-4.453125
384,1695742434562,0.056884766,-0.9968872,0.09075928,-1.671875,-1.703125,-4.09375
385,1695742434582,0.061523438,-0.99664307,0.07196045,-3.125,-4.90625,-6.03125
386,1695742434623,0.052001953,-1.0234985,0.09613037,-3.421875,0.515625,-3.375
387,1695742434664,0.03955078,-0.9883423,0.08709717,-3.15625,-3.65625,-3.09375
388,1695742434701,0.041015625,-0.96466064,0.0914917,-7.25,2.265625,-2.96875
389,1695742434742,0.040039062,-0.99786377,0.10443115,-5.046875,0.390625,-1.65625
390,1695742434781,0.05126953,-1.0042114,0.11883545,-7.078125,0.015625,-1.859375
391,1695742434821,0.049072266,-0.9924927,0.12200928,-3.5,-0.03125,-1.734375
392,1695742434862,0.048095703,-0.98931885,0.1239624,-4.3125,1.25,-1.625
393,1695742434904,0.045898438,-0.99835205,0.14447021,2.78125,6.578125,0.75
394,1695742434943,0.02709961,-1.0110474,0.113464355,7.890625,3.9375,0.703125
395,1695742434979,0.037353516,-0.98516846,0.09881592,8.5,3.390625,1.71875
396,1695742435021,0.024169922,-0.9639282,0.08660889,9.296875,4.34375,2.78125
397,1695742435061,0.075683594,-0.9961548,0.09613037,3.234375,5.5,2.8125
398,1695742435101,0.0390625,-1.0056763,0.097839355,11.6875,0.28125,0.03125
399,1695742435142,0.008544922,-1.00177,0.017028809,13.65625,3.609375,2.265625
400,1695742435181,0.09399414,-1.0254517,0.029968262,4.578125,7.078125,4.25
401,1695742435221,0.041748047,-0.9729614,0.001159668,13.8125,2.953125,2.796875
402,1695742435261,0.071777344,-0.9746704,0.002380371,9.21875,9.84375,2.28125
403,1695742435311,0.056396484,-0.94317627,-0.0071411133,2.59375,2.84375,1.28125
404,1695742435341,0.04711914,-0.9697876,-0.003479004,3.78125,-1.203125,1.59375
405,1695742435380,0.08129883,-1.0108032,0.006286621,-1.09375,3.734375,1.171875
406,1695742435417,0.05078125,-0.95196533,-0.002746582,-1.59375,-5.421875,-1.4375
407,1695742435458,0.060058594,-0.9631958,-0.031799316,-3.03125,-7.53125,-2.234375
408,1695742435498,0.067871094,-1.0039673,-0.0068969727,-4.34375,0.703125,-1.640625
409,1695742435540,0.05493164,-0.96173096,0.0079956055,-10.78125,-5.53125,-3.703125
410,1695742435581,0.03466797,-0.956604,-0.006652832,-11.109375,-15.140625,-5.25
411,1695742435622,0.048583984,-0.98883057,0.035095215,-7.328125,-5.625,-0.625
412,1695742435662,0.1352539,-1.0581665,0.082458496,-5.96875,0.484375,-1.625
413,1695742435702,0.07763672,-0.9824829,0.03753662,-8.078125,-3.296875,-1.640625
414,1695742435742,0.032470703,-0.9612427,0.04925537,-6.265625,-1.75,-0.890625
415,1695742435783,0.047607422,-1.0020142,0.0770874,-4.8125,-1.875,-2.40625
416,1695742435804,0.083740234,-1.0073853,0.07635498,-4.921875,-2.875,-2.1875
417,1695742435845,0.064208984,-0.9873657,0.077819824,-6.5625,-0.296875,-3.671875
418,1695742435884,0.024414062,-0.9932251,0.08074951,-3.75,-0.734375,-3.59375
419,1695742435922,0.010009766,-0.9932251,0.09979248,-3.4375,-3.890625,-4.859375
420,1695742435965,0.041503906,-0.98687744,0.08123779,-5.90625,-1.359375,-4.65625
421,1695742436000,0.038330078,-1.0003052,0.105895996,-7.90625,4.109375,-2.171875
422,1695742436042,0.013183594,-0.9885864,0.117614746,-2.703125,-2.5,-0.75
423,1695742436086,0.023925781,-0.98638916,0.08782959,-5.5625,-0.15625,-2.421875
424,1695742436121,0.032958984,-1.0120239,0.13201904,-3.515625,3.25,-1.265625
425,1695742436169,0.0087890625,-0.98394775,0.1005249,-1.984375,-1.875,-0.75
426,1695742436214,0.049560547,-0.9898071,0.12835693,-3.1875,6.890625,0.296875
427,1695742436241,0.0014648438,-1.0176392,0.124694824,3.421875,3.515625,1.546875
428,1695742436282,0.008544922,-1.0239868,0.13201904,5.296875,6.203125,0.703125
429,1695742436319,0.02734375,-0.9492798,0.08416748,6.046875,3.296875,1.03125
430,1695742436359,0.024169922,-0.99298096,0.08929443,5.515625,4.671875,3.296875
431,1695742436400,0.052978516,-0.9937134,0.09906006,4.171875,2.703125,2.65625
432,1695742436438,0.04321289,-1.0059204,0.07122803,6.78125,3.15625,3.890625
433,1695742436478,0.057617188,-0.9824829,0.08880615,2.8125,6.984375,1.96875
434,1695742436518,0.022705078,-1.0059204,0.05682373,9.703125,3.8125,3.140625
435,1695742436559,0.028320312,-0.97906494,0.042419434,0.734375,2.390625,3.265625
436,1695742436600,0.07080078,-1.005188,0.03704834,3.6875,2.90625,2.890625
437,1695742436640,0.080078125,-0.99005127,0.07635498,-0.5,5.859375,2.296875
438,1695742436678,0.07080078,-0.9536743,0.035583496,0.4375,-4.5625,1.625
439,1695742436718,0.0769043,-0.9817505,0.055847168,-0.90625,-1.890625,0.84375
440,1695742436757,0.050048828,-0.9951782,0.053649902,0.796875,-8.046875,0.5625
441,1695742436797,0.07373047,-0.98394775,0.025817871,2.375,-11.359375,-1.15625
442,1695742436837,0.084472656,-0.9824829,0.04852295,-4.5625,-4.5625,-1.953125
443,1695742436877,0.067871094,-0.9351196,0.02142334,-9.125,-11.25,-4.046875
444,1695742436916,0.030273438,-1.0076294,0.0848999,-9.765625,-6.625,0.59375
445,1695742436957,0.06542969,-0.9949341,0.078063965,-6.671875,-9.34375,-2.296875
446,1695742437017,0.079589844,-1.0073853,0.09100342,-4.390625,-5.953125,-2.140625
447,1695742437036,0.026123047,-0.9956665,0.093688965,-3.265625,-3.328125,1.890625
448,1695742437057,0.050048828,-0.94903564,0.053649902,-9.609375,-10.03125,-0.828125
449,1695742437136,0.052978516,-0.9956665,0.109802246,-7.140625,-1.046875,1.484375
450,1695742437137,0.08227539,-1.0115356,0.14642334,-7.984375,1.9375,1.078125
451,1695742437177,0.060058594,-0.9990845,0.14007568,-7.21875,1.5,0.75
452,1695742437221,0.056640625,-0.9680786,0.13787842,-4.421875,0.890625,0.40625
453,1695742437257,0.068847656,-0.987854,0.137146,-4.34375,-0.78125,-0.453125
454,1695742437296,0.0847168,-1.0149536,0.1437378,-5.25,2.4375,-1.25
455,1695742437336,0.057373047,-0.9873657,0.16912842,-3.046875,1.78125,-3.28125
456,1695742437377,0.052490234,-0.9702759,0.1408081,-2.359375,1.421875,-4.453125
457,1695742437419,0.031982422,-0.9834595,0.14105225,-4.984375,2.171875,-0.859375
458,1695742437457,0.06201172,-0.9866333,0.17230225,-3.84375,1.125,-1.0625
459,1695742437497,0.056884766,-1.0076294,0.15618896,-1.796875,6.0625,1.109375
460,1695742437537,0.06225586,-1.0044556,0.18011475,1.125,8.65625,-0.296875
461,1695742437578,0.045410156,-0.97320557,0.14593506,6.078125,2.5,-0.859375
462,1695742437617,0.024658203,-0.9915161,0.11273193,6.78125,3.6875,3.140625
463,1695742437658,0.13134766,-1.0078735,0.1618042,-3.65625,14.546875,1.578125
464,1695742437700,0.0793457,-0.9854126,0.16229248,13.25,-0.453125,-0.484375
465,1695742437740,0.032226562,-0.9927368,0.07293701,10.828125,7.6875,2.0625
466,1695742437780,0.06982422,-0.9883423,0.12835693,-0.375,9.875,2.828125
467,1695742437821,0.047607422,-0.9768677,0.10369873,11.59375,-4.203125,1.734375
468,1695742437860,0.111328125,-1.0186157,0.022888184,6.015625,7.34375,4.734375
469,1695742437904,0.115234375,-0.99053955,0.13983154,1.25,10.953125,5.296875
470,1695742437943,0.08569336,-0.9627075,0.08685303,20.625,-8.0625,2.875
471,1695742437984,0.06225586,-0.98760986,-0.04425049,11.921875,2.046875,4.765625
472,1695742438020,0.099853516,-1.0073853,0.055847168,0.359375,7.328125,7.0
473,1695742438060,0.13500977,-0.98565674,0.06561279,13.375,-1.1875,3.5625
474,1695742438105,0.091796875,-0.96221924,-0.024719238,1.0625,-2.125,2.28125
475,1695742438144,0.11767578,-0.95880127,0.04095459,0.53125,-0.703125,1.25
476,1695742438181,0.11791992,-0.93634033,-0.04083252,-3.515625,-14.28125,-1.234375
477,1695742438217,0.12988281,-0.975647,0.028259277,-4.671875,-4.34375,0.59375
478,1695742438237,0.11425781,-0.9837036,0.07537842,-15.390625,-1.328125,-1.71875
479,1695742438277,0.07543945,-0.96661377,-0.022277832,-15.015625,-19.15625,-1.5
480,1695742438318,0.18725586,-0.99835205,0.113708496,-1.359375,8.359375,-1.546875
481,1695742438361,0.119140625,-1.0247192,0.07635498,-11.53125,-4.75,-1.96875
482,1695742438401,0.04248047,-0.9585571,0.090270996,-6.3125,-6.53125,1.609375
483,1695742438441,0.1586914,-0.9710083,0.06732178,-5.96875,-1.703125,-1.65625
484,1695742438484,0.11010742,-0.9973755,0.0914917,-8.140625,-4.953125,-4.625
485,1695742438524,0.11645508,-0.9885864,0.13250732,-4.03125,-0.921875,-1.0625
486,1695742438558,0.09838867,-0.9793091,0.10418701,-5.375,-3.21875,-2.71875
487,1695742438599,0.111328125,-0.97857666,0.12371826,-4.609375,-7.125,-3.921875
488,1695742438642,0.123291016,-0.99957275,0.12298584,-3.78125,-2.625,-2.234375
489,1695742438680,0.07885742,-0.98883057,0.12005615,-2.828125,-0.9375,-2.71875
490,1695742438720,0.08227539,-0.97247314,0.12664795,-7.40625,-1.59375,-3.1875
491,1695742438762,0.087890625,-0.9890747,0.13787842,-3.609375,-0.59375,-2.40625
492,1695742438804,0.07080078,-0.9873657,0.1515503,-5.578125,1.21875,-2.4375
493,1695742438844,0.07861328,-0.975647,0.17108154,-3.359375,1.15625,-3.0625
494,1695742438884,0.0703125,-0.9920044,0.13397217,-4.078125,3.8125,-2.609375
495,1695742438923,0.06762695,-0.9985962,0.15423584,0.1875,4.40625,-1.40625
496,1695742438961,0.10107422,-0.98565674,0.1708374,-1.34375,9.609375,-0.484375
497,1695742439000,0.072753906,-1.0110474,0.19134521,9.015625,5.734375,-0.90625
498,1695742439044,0.037841797,-0.9619751,0.10345459,9.15625,0.703125,-2.78125
499,1695742439079,0.06738281,-0.97735596,0.09564209,-3.40625,8.015625,-0.5
500,1695742439118,0.08935547,-1.0025024,0.16986084,3.03125,2.65625,-0.40625
501,1695742439160,0.0703125,-1.003479,0.11395264,5.25,5.03125,-0.90625
502,1695742439200,0.099609375,-0.9776001,0.116882324,1.53125,5.671875,-2.28125
503,1695742439241,0.022216797,-0.96417236,0.09954834,9.8125,-1.4375,-2.515625
504,1695742439281,0.046875,-0.9788208,0.06854248,-3.28125,4.75,0.09375
505,1695742439317,0.099121094,-1.0098267,0.15618896,-3.1875,5.078125,0.140625
506,1695742439358,0.078125,-0.973938,0.09906006,6.796875,-6.171875,-3.359375
507,1695742439401,0.076171875,-0.9834595,0.08148193,1.484375,1.875,-0.34375
508,1695742439441,0.0690918,-0.98638916,0.112976074,3.4375,-1.140625,-0.21875
509,1695742439480,0.064697266,-0.99005127,0.08074951,0.203125,-4.359375,0.6875
510,1695742439500,0.08642578,-0.96295166,0.07733154,-0.5625,-6.90625,-1.34375
511,1695742439543,0.076171875,-0.9783325,0.08392334,-2.71875,-6.5,-1.375
512,1695742439582,0.07348633,-0.98223877,0.10858154,-4.984375,-5.953125,-0.4375
513,1695742439620,0.043701172,-0.97735596,0.101745605,-5.796875,-9.546875,-1.046875
514,1695742439660,0.048339844,-1.000061,0.1251831,-3.84375,-5.40625,-0.53125
515,1695742439697,0.060791016,-1.0012817,0.120788574,-3.578125,-4.75,0.28125
516,1695742439737,0.041748047,-0.99957275,0.10491943,-4.390625,-10.28125,-1.109375
517,1695742439776,0.091796875,-0.9776001,0.14202881,-7.390625,-2.328125,-1.171875
518,1695742439817,0.05908203,-0.9985962,0.14569092,-6.46875,-2.890625,-5.6875
519,1695742439857,0.019042969,-1.017395,0.13739014,-4.796875,-3.84375,-2.046875
520,1695742439898,0.06225586,-0.99224854,0.14569092,-10.015625,1.421875,-2.78125
521,1695742439941,0.04248047,-0.9812622,0.15692139,-6.1875,-0.34375,-2.734375
522,1695742439976,0.06762695,-0.99102783,0.19329834,-8.0,1.046875,-3.25
523,1695742440017,0.0041503906,-0.99224854,0.1762085,-4.265625,-0.609375,-4.40625
524,1695742440056,0.0021972656,-0.98687744,0.17279053,-5.09375,-0.46875,-2.546875
525,1695742440097,0.019042969,-0.9692993,0.18133545,-6.90625,0.015625,-2.3125
526,1695742440138,0.028076172,-0.98394775,0.20697021,-5.015625,1.609375,-3.21875
527,1695742440178,0.010498047,-0.987854,0.19940186,-2.84375,1.875,-1.84375
528,1695742440218,0.041992188,-0.98321533,0.20648193,1.4375,6.4375,1.125
529,1695742440258,0.010253906,-1.0066528,0.18304443,1.453125,1.984375,2.3125
530,1695742440297,0.057373047,-0.9746704,0.20306396,4.0,7.84375,1.625
531,1695742440337,0.018798828,-0.9819946,0.19940186,8.46875,4.953125,2.484375
532,1695742440377,0.009521484,-0.9998169,0.15350342,6.859375,1.109375,2.484375
533,1695742440418,0.060791016,-0.98638916,0.16107178,2.484375,8.0,2.03125
534,1695742440462,0.016845703,-0.9873657,0.18182373,10.0625,2.046875,3.1875
535,1695742440497,0.057617188,-1.0007935,0.11126709,8.8125,4.328125,3.4375
536,1695742440538,0.07055664,-0.9812622,0.152771,2.0625,7.9375,1.78125
537,1695742440578,0.041259766,-0.9734497,0.14813232,10.8125,-1.9375,2.078125
538,1695742440618,0.06982422,-0.9968872,0.09295654,3.03125,6.0,2.109375
539,1695742440658,0.05493164,-0.99346924,0.13690186,9.296875,-1.875,0.34375
540,1695742440720,0.046142578,-1.0032349,0.042419434,7.25,1.28125,1.671875
541,1695742440722,0.095214844,-0.9788208,0.12347412,0.125,3.828125,2.515625
542,1695742440761,0.046875,-0.9834595,0.059509277,3.296875,-4.203125,2.5
543,1695742440801,0.08300781,-0.97247314,0.06903076,-1.109375,-1.9375,2.921875
544,1695742440841,0.0769043,-0.98931885,0.093444824,-2.6875,0.078125,0.75
545,1695742440882,0.07080078,-0.99176025,0.08709717,-1.796875,-2.046875,1.09375
546,1695742440922,0.07885742,-0.97369385,0.07659912,-1.09375,-2.640625,-0.1875
547,1695742440961,0.064941406,-0.956604,0.07269287,-4.21875,-6.125,-2.375
548,1695742441003,0.057128906,-0.9859009,0.1149292,-5.84375,-6.5,-0.9375
549,1695742441038,0.068847656,-1.0149536,0.11566162,-5.84375,-6.765625,-0.390625
550,1695742441077,0.12402344,-1.0076294,0.12542725,-6.9375,3.25,-2.21875
551,1695742441117,0.0690918,-0.9768677,0.12567139,-4.6875,-5.890625,-4.109375
552,1695742441160,0.02319336,-0.9846802,0.097839355,-6.75,-8.046875,-0.40625
553,1695742441202,0.11230469,-0.989563,0.12322998,-4.421875,-5.25,-2.421875
554,1695742441240,0.095214844,-1.0144653,0.1642456,-3.640625,-0.046875,-1.125
555,1695742441281,0.051513672,-0.99176025,0.14349365,-2.140625,-1.3125,-0.78125
556,1695742441319,0.025878906,-0.9846802,0.11151123,-4.75,-1.75,-1.796875
557,1695742441360,0.059570312,-0.97369385,0.14129639,-6.046875,0.1875,-3.5
558,1695742441412,0.05883789,-0.989563,0.16326904,-5.5625,2.375,-1.15625
559,1695742441442,0.087890625,-0.9883423,0.16864014,-3.28125,-0.03125,-0.15625
560,1695742441484,0.06689453,-0.9776001,0.15692139,-4.546875,0.609375,-0.453125
561,1695742441529,0.043945312,-0.98443604,0.16351318,-1.640625,0.828125,-1.75
562,1695742441562,0.049072266,-0.9927368,0.15325928,-1.375,0.109375,-2.078125
563,1695742441602,0.071777344,-0.9824829,0.17767334,-2.9375,5.234375,-2.0
564,1695742441639,0.072265625,-1.0046997,0.17694092,4.484375,5.546875,0.171875
565,1695742441680,0.02758789,-0.97662354,0.15106201,7.21875,4.15625,0.796875
566,1695742441720,0.05444336,-0.99713135,0.14520264,-0.984375,12.515625,0.5
567,1695742441761,0.056640625,-0.9885864,0.1671753,7.5625,0.34375,1.359375
568,1695742441800,0.056152344,-0.9678345,0.12591553,5.6875,5.4375,1.203125
569,1695742441842,0.08081055,-1.0137329,0.1515503,4.53125,7.9375,2.78125
570,1695742441883,0.038330078,-1.0032349,0.12591553,12.359375,0.453125,2.28125
571,1695742441941,0.0715332,-0.9793091,0.06829834,8.296875,0.265625,2.109375
572,1695742441961,0.08544922,-0.987854,0.10076904,0.59375,5.703125,1.875
573,1695742441983,0.07104492,-1.0003052,0.11907959,10.40625,2.46875,2.234375
574,1695742442023,0.060546875,-0.9829712,0.050964355,2.96875,-0.34375,1.109375
575,1695742442060,0.084472656,-0.9932251,0.050964355,7.125,-0.234375,1.0625
576,1695742442104,0.083740234,-1.0108032,0.085876465,2.75,6.015625,1.515625
577,1695742442140,0.08105469,-0.95391846,0.05999756,3.703125,-2.265625,0.53125
578,1695742442182,0.07446289,-0.95758057,0.030212402,-1.578125,-4.375,1.140625
579,1695742442222,0.09350586,-0.9776001,0.04827881,-3.703125,-5.375,0.25
580,1695742442260,0.079833984,-1.0108032,0.06488037,-5.421875,-1.375,0.828125
581,1695742442300,0.099609375,-0.95318604,0.06097412,-8.15625,-5.046875,-2.28125
582,1695742442343,0.08081055,-0.9859009,0.08319092,-5.046875,-2.96875,-2.140625
583,1695742442381,0.06201172,-0.9993286,0.11126709,-3.265625,-1.5,-1.59375
584,1695742442420,0.092285156,-0.97369385,0.07513428,-6.65625,-10.484375,-3.375
585,1695742442460,0.052734375,-0.98687744,0.113708496,-7.65625,-7.109375,-1.484375
586,1695742442499,0.10522461,-1.0125122,0.094177246,-5.21875,-4.890625,-4.640625
587,1695742442538,0.09472656,-1.0269165,0.12762451,-2.828125,-0.71875,-3.890625
588,1695742442578,0.048828125,-0.97613525,0.11566162,-2.5,-0.203125,-1.859375
589,1695742442617,0.071777344,-0.9685669,0.07977295,-4.390625,-2.546875,-2.328125
590,1695742442658,0.0690918,-1.0007935,0.1293335,-4.765625,2.125,-2.265625
591,1695742442699,0.060791016,-1.0088501,0.1449585,-4.328125,2.484375,-2.171875
592,1695742442737,0.048095703,-1.0003052,0.12420654,-3.90625,1.8125,-1.671875
593,1695742442778,0.055664062,-0.97784424,0.1515503,-4.421875,1.296875,-1.8125
594,1695742442818,0.029785156,-0.9829712,0.1395874,-5.546875,1.171875,-2.953125
595,1695742442859,0.041259766,-1.0020142,0.17230225,-5.21875,4.765625,-0.609375
596,1695742442899,0.0690918,-0.9927368,0.17425537,-3.875,-2.59375,-3.625
597,1695742442939,0.041992188,-0.9692993,0.13641357,-2.640625,0.4375,-3.3125
598,1695742442979,0.05908203,-1.0193481,0.16741943,-3.5625,8.53125,-0.703125
599,1695742443020,0.06982422,-1.0044556,0.2086792,6.234375,-0.34375,-1.90625
600,1695742443061,0.01928711,-0.97198486,0.09661865,2.5,-3.484375,0.0625
601,1695742443098,0.047607422,-0.99957275,0.14959717,0.78125,7.65625,1.359375
602,1695742443137,0.049560547,-0.98272705,0.184021,7.4375,-0.171875,-0.234375
603,1695742443180,0.004638672,-0.9717407,0.11175537,7.875,-3.921875,0.859375
604,1695742443202,0.044189453,-1.0054321,0.11029053,2.015625,1.6875,2.671875
605,1695742443240,0.060791016,-0.98443604,0.14178467,6.046875,-1.046875,1.078125
606,1695742443279,0.045166016,-0.98443604,0.08074951,9.21875,-3.5,0.8125
607,1695742443318,0.041259766,-0.9890747,0.078552246,3.421875,0.21875,2.71875
608,1695742443359,0.07543945,-0.97784424,0.10223389,6.21875,-6.03125,-0.671875
609,1695742443400,0.03100586,-0.97198486,0.040222168,4.734375,-5.296875,-1.21875
610,1695742443441,0.06958008,-0.97906494,0.08709717,-1.40625,1.21875,1.96875
611,1695742443486,0.060791016,-0.9981079,0.093933105,8.890625,-6.9375,0.34375
612,1695742443523,0.01977539,-0.96539307,0.03265381,7.8125,-3.8125,0.828125
613,1695742443562,0.048095703,-0.972229,0.04437256,2.953125,-0.828125,1.578125
614,1695742443602,0.060791016,-0.9763794,0.051696777,4.828125,-3.3125,3.234375
615,1695742443642,0.06713867,-0.98443604,0.043640137,4.3125,-4.140625,3.703125
616,1695742443687,0.061767578,-0.972229,0.04437256,2.28125,-1.796875,3.5625
617,1695742443719,0.036132812,-0.9795532,0.034118652,-0.375,-5.625,1.578125
618,1695742443761,0.044189453,-0.9907837,0.034118652,-2.359375,-8.15625,1.8125
619,1695742443802,0.092285156,-1.0310669,0.034851074,-8.15625,-4.453125,4.109375
620,1695742443842,0.1496582,-1.0100708,0.078552246,-6.0625,-1.265625,-0.109375
621,1695742443885,0.09326172,-1.0117798,0.08880615,0.15625,-2.625,0.40625
622,1695742443922,0.068603516,-0.99542236,0.055603027,0.015625,-2.34375,0.9375
623,1695742443960,0.079833984,-0.96539307,0.029724121,-3.765625,-4.859375,1.015625
624,1695742444000,0.09448242,-0.9944458,0.07537842,-5.28125,0.046875,1.0625
625,1695742444040,0.07910156,-0.98223877,0.08148193,-3.5,-0.359375,2.5
626,1695742444081,0.083740234,-0.9902954,0.062683105,-1.40625,-3.921875,1.203125
627,1695742444121,0.075683594,-0.98687744,0.06781006,-5.203125,1.828125,3.0625
628,1695742444159,0.103515625,-0.99713135,0.09442139,-4.953125,2.421875,1.421875
629,1695742444198,0.08935547,-0.9793091,0.085632324,-1.25,-1.28125,1.1875
630,1695742444241,0.111572266,-0.9871216,0.089538574,-6.0,1.21875,0.875
631,1695742444281,0.11401367,-0.9783325,0.09661865,-3.765625,-0.21875,1.40625
632,1695742444321,0.08105469,-0.9866333,0.10003662,-1.3125,0.25,0.671875
633,1695742444361,0.095703125,-0.987854,0.09613037,-3.296875,1.0625,0.34375
634,1695742444421,0.11035156,-0.9915161,0.101257324,1.390625,2.859375,0.28125
635,1695742444426,0.1171875,-1.0032349,0.11517334,-1.390625,3.4375,1.734375
636,1695742444471,0.10620117,-0.9727173,0.11419678,3.453125,-0.53125,-0.1875
637,1695742444506,0.099853516,-0.9939575,0.06439209,2.296875,0.859375,1.625
638,1695742444538,0.14013672,-0.9871216,0.08856201,-2.21875,1.5,-1.390625
639,1695742444577,0.12719727,-0.9758911,0.10760498,0.703125,2.96875,-3.734375
640,1695742444617,0.099609375,-0.9817505,0.07537842,1.3125,1.171875,-4.296875
641,1695742444657,0.09033203,-1.0066528,0.06561279,-0.828125,4.203125,-3.296875
642,1695742444697,0.10595703,-0.97491455,0.09515381,-0.40625,1.625,-3.0
643,1695742444738,0.11230469,-0.97198486,0.055603027,3.671875,1.890625,-3.96875
644,1695742444777,0.09277344,-1.0029907,0.09466553,1.484375,8.640625,-2.015625
645,1695742444816,0.08154297,-0.9841919,0.055847168,6.265625,2.46875,-3.0625
646,1695742444857,0.06689453,-1.0090942,0.024841309,2.6875,7.9375,-0.375
647,1695742444899,0.107910156,-0.9963989,0.07489014,-0.890625,11.328125,-1.203125
648,1695742444940,0.10131836,-0.95562744,0.054626465,6.515625,2.984375,-1.609375
649,1695742444980,0.083984375,-0.94366455,0.051208496,-7.34375,8.109375,-0.703125
650,1695742445018,0.08081055,-0.9570923,0.04046631,-3.46875,-0.25,-1.09375
651,1695742445057,0.09350586,-0.96051025,0.04510498,-4.0,-3.03125,-1.1875
652,1695742445098,0.09106445,-0.9795532,0.09295654,-6.390625,2.0,-2.078125
653,1695742445138,0.06298828,-0.99835205,0.04949951,-6.5625,-5.40625,-0.78125
654,1695742445177,0.09472656,-0.9780884,0.09564209,-3.4375,0.546875,-1.046875
655,1695742445219,0.1184082,-0.98443604,0.070251465,-4.453125,0.046875,-3.09375
656,1695742445258,0.057373047,-1.005188,0.11175537,-2.1875,-0.71875,-1.4375
657,1695742445299,0.07397461,-0.9873657,0.0758667,-3.71875,-0.875,-0.671875
658,1695742445340,0.09008789,-0.9771118,0.086364746,-3.703125,1.0625,-1.515625
659,1695742445379,0.080078125,-1.0054321,0.10028076,-4.8125,2.65625,-2.109375
660,1695742445417,0.056640625,-0.98809814,0.08929443,-4.421875,0.234375,-1.703125
661,1695742445457,0.0703125,-1.005188,0.12249756,-2.609375,-0.015625,-2.421875
662,1695742445498,0.05859375,-0.98028564,0.101745605,-2.3125,0.4375,-2.421875
663,1695742445540,0.06274414,-0.972229,0.113464355,-4.234375,1.625,-3.1875
664,1695742445580,0.04272461,-0.9902954,0.12908936,-4.78125,0.65625,-2.5
665,1695742445641,0.05517578,-0.9961548,0.1293335,-1.453125,-0.375,-1.765625
666,1695742445658,0.02734375,-0.9951782,0.10784912,-2.703125,0.765625,0.0625
667,1695742445678,0.072021484,-0.97662354,0.14886475,-0.96875,6.640625,-0.875
668,1695742445719,0.049072266,-1.0188599,0.11444092,2.9375,4.484375,1.578125
669,1695742445760,0.030029297,-1.0066528,0.10809326,5.046875,3.453125,2.390625
670,1695742445799,0.061767578,-0.9649048,0.093933105,4.859375,4.71875,2.203125
671,1695742445840,0.057617188,-1.0012817,0.10247803,5.703125,7.359375,2.140625
672,1695742445878,0.047851562,-1.0037231,0.09490967,4.625,4.4375,1.171875
673,1695742445920,0.05517578,-0.9956665,0.07318115,7.625,5.40625,2.265625
674,1695742445961,0.0925293,-0.98687744,0.07220459,5.921875,4.265625,2.921875
675,1695742445998,0.067871094,-0.9685669,0.074645996,7.3125,4.875,3.03125
676,1695742446042,0.075683594,-1.0054321,0.047058105,5.59375,4.203125,3.671875
677,1695742446084,0.0546875,-1.0093384,0.029968262,2.515625,6.0,2.21875
678,1695742446126,0.0859375,-0.9661255,0.047058105,4.71875,4.59375,2.3125
679,1695742446162,0.09887695,-0.9795532,0.013122559,5.734375,4.03125,2.25
680,1695742446200,0.11352539,-1.017395,0.04827881,6.5,8.171875,2.5625
681,1695742446239,0.06518555,-0.9619751,0.007751465,2.65625,-0.4375,1.515625
682,1695742446283,0.09643555,-0.9463501,0.001159668,2.296875,0.671875,0.53125
683,1695742446322,0.09838867,-0.9536743,-0.017150879,-2.921875,-6.625,-2.21875
684,1695742446361,0.11450195,-0.99420166,0.029968262,-2.65625,-2.234375,0.9375
685,1695742446403,0.10253906,-0.9817505,0.00018310547,-3.375,0.484375,-0.234375
686,1695742446447,0.072509766,-0.9590454,0.031677246,-3.328125,-3.359375,-0.578125
687,1695742446485,0.07885742,-0.93951416,-0.003967285,-2.59375,-7.25,-1.6875
688,1695742446523,0.095947266,-1.0005493,0.022644043,-6.28125,-10.234375,-2.15625
689,1695742446568,0.12915039,-1.000061,0.07611084,-3.8125,4.25,-0.03125
690,1695742446608,0.05883789,-1.0039673,0.009460449,-6.609375,-3.734375,0.421875
691,1695742446649,0.09350586,-0.9536743,0.028747559,-7.515625,-5.5625,-1.609375
692,1695742446682,0.15209961,-0.9866333,0.06097412,-8.125,-1.9375,-3.953125
693,1695742446734,0.078125,-1.0215454,0.06317139,-3.25,-1.21875,-2.5
694,1695742446762,0.087646484,-0.9944458,0.08294678,-2.015625,-2.046875,0.8125
695,1695742446800,0.06665039,-0.97857666,0.06317139,-2.9375,-1.0,-0.96875
696,1695742446839,0.078125,-0.98101807,0.07366943,-4.21875,-2.046875,-3.015625
697,1695742446879,0.096191406,-1.0020142,0.078308105,-2.546875,0.15625,-2.625
698,1695742446904,0.09350586,-1.0105591,0.081970215,-5.84375,-0.953125,-1.234375
699,1695742446937,0.09033203,-0.97125244,0.093688965,-3.546875,0.296875,-1.203125
700,1695742446977,0.049316406,-0.99224854,0.08514404,-3.40625,2.890625,-1.140625
701,1695742447019,0.048095703,-1.0037231,0.10296631,-6.109375,2.796875,-1.046875
702,1695742447061,0.09472656,-0.97369385,0.10076904,-3.703125,4.703125,-1.4375
703,1695742447102,0.08691406,-0.9944458,0.09490967,0.59375,4.984375,-1.125
704,1695742447144,0.059570312,-1.0046997,0.11199951,1.9375,3.0625,1.25
705,1695742447180,0.046142578,-0.9837036,0.09197998,3.640625,2.046875,0.3125
706,1695742447220,0.08203125,-0.9805298,0.08099365,6.375,2.203125,-0.1875
707,1695742447261,0.083496094,-0.97662354,0.08392334,4.96875,5.515625,0.546875
708,1695742447302,0.05810547,-1.0003052,0.06707764,4.1875,2.75,1.640625
709,1695742447343,0.1003418,-0.99835205,0.07244873,4.1875,5.109375,1.78125
710,1695742447383,0.091796875,-0.98931885,0.047302246,2.828125,3.875,1.53125
711,1695742447421,0.08251953,-0.9849243,0.06414795,3.28125,4.703125,2.078125
712,1695742447462,0.08300781,-0.98565674,0.039733887,3.328125,3.171875,0.609375
713,1695742447502,0.09741211,-0.9973755,0.038269043,5.640625,2.15625,1.09375
714,1695742447541,0.11206055,-0.98883057,0.0368042,6.03125,6.625,1.8125
715,1695742447585,0.07861328,-1.0029907,0.023620605,4.515625,3.0625,3.3125
716,1695742447622,0.09887695,-0.9573364,0.00579834,1.46875,0.703125,-0.109375
717,1695742447662,0.09082031,-0.98028564,0.0018920898,3.15625,0.5625,2.453125
718,1695742447701,0.103759766,-0.9692993,0.008483887,0.0,-2.8125,-0.265625
719,1695742447744,0.10864258,-0.95806885,-0.0056762695,-1.296875,-4.5625,0.203125
720,1695742447779,0.10986328,-0.9819946,0.018493652,-1.453125,-1.3125,0.625
721,1695742447818,0.106933594,-0.9495239,0.016540527,-5.703125,-1.59375,-1.328125
722,1695742447861,0.07373047,-0.9841919,0.00970459,-6.65625,-7.625,-0.875
723,1695742447899,0.07714844,-0.987854,0.06097412,-2.953125,-5.1875,1.0625
724,1695742447939,0.08618164,-0.9963989,-0.016662598,-8.265625,-13.078125,-1.078125
725,1695742447981,0.16674805,-0.9890747,0.053649902,-4.234375,-4.390625,-3.46875
726,1695742448021,0.1315918,-1.0125122,0.07904053,-4.046875,4.390625,0.078125
727,1695742448061,0.07495117,-0.9837036,0.026306152,-5.25,-3.25,0.28125
728,1695742448101,0.10205078,-0.9456177,0.05291748,-3.546875,-2.84375,0.453125
729,1695742448121,0.12475586,-0.98809814,0.06097412,-5.84375,-1.75,-3.859375
730,1695742448161,0.072021484,-1.015686,0.10076904,-3.984375,1.71875,-2.484375
731,1695742448201,0.0793457,-1.0227661,0.082214355,-3.703125,-3.875,-1.078125
732,1695742448245,0.11035156,-0.9614868,0.05706787,-2.0,-1.09375,-1.390625
733,1695742448281,0.09692383,-0.9819946,0.070251465,-4.0625,0.984375,-2.796875
734,1695742448320,0.064941406,-1.0007935,0.0848999,-5.71875,0.5625,-2.21875
735,1695742448362,0.076416016,-1.0112915,0.09246826,-5.15625,-0.1875,-1.0
736,1695742448403,0.09106445,-0.98516846,0.09539795,-2.015625,2.25,-0.125
737,1695742448446,0.09033203,-0.97857666,0.081726074,-4.0625,1.46875,-1.25
738,1695742448479,0.08300781,-0.98565674,0.11004639,-3.5625,1.875,-1.015625
739,1695742448518,0.0847168,-1.0098267,0.101745605,-1.265625,2.515625,0.171875
740,1695742448559,0.08276367,-1.0061646,0.12298584,1.84375,3.5625,2.125
741,1695742448600,0.10253906,-0.9678345,0.09124756,1.1875,3.046875,-0.578125
742,1695742448645,0.06689453,-1.0046997,0.10272217,3.984375,5.046875,1.96875
743,1695742448680,0.09375,-0.9944458,0.08734131,3.6875,3.859375,2.171875
744,1695742448720,0.11035156,-0.9800415,0.061706543,4.28125,4.03125,0.890625
745,1695742448758,0.0847168,-0.97979736,0.081726074,1.703125,5.171875,2.578125
746,1695742448797,0.10107422,-0.9834595,0.07562256,2.421875,2.5,0.984375
747,1695742448838,0.11376953,-1.0007935,0.06317139,3.328125,3.546875,2.359375
748,1695742448881,0.10498047,-0.9927368,0.06048584,4.421875,3.546875,1.9375
749,1695742448922,0.10546875,-0.97662354,0.04876709,2.84375,3.78125,2.046875
750,1695742448962,0.10888672,-0.98101807,0.03265381,2.671875,1.140625,1.609375
751,1695742449001,0.12475586,-0.98565674,0.058776855,5.171875,4.046875,1.84375
752,1695742449041,0.095458984,-0.9854126,0.031188965,0.546875,2.078125,0.21875
753,1695742449082,0.11645508,-0.96099854,0.026306152,0.875,-1.8125,-0.09375
754,1695742449122,0.103759766,-0.9871216,0.054138184,2.03125,2.96875,0.59375
755,1695742449163,0.11303711,-0.96099854,0.02166748,-1.25,-5.84375,-0.984375
756,1695742449199,0.11621094,-0.95562744,0.02508545,-1.09375,-7.515625,-1.0625
757,1695742449242,0.13598633,-0.97125244,0.047302246,-2.359375,-2.28125,-1.578125
758,1695742449281,0.11450195,-0.960022,0.04876709,-6.765625,-3.5,-1.0
759,1695742449320,0.08154297,-0.9741821,0.024597168,-7.1875,-8.65625,-1.4375
760,1695742449341,0.12402344,-0.9944458,0.08782959,-3.53125,-3.96875,-2.3125
761,1695742449383,0.13232422,-1.0027466,0.051208496,-5.203125,-2.734375,-2.203125
762,1695742449422,0.08105469,-0.97198486,0.074157715,-6.625,-5.1875,-0.84375
763,1695742449462,0.111572266,-0.9793091,0.08148193,-2.921875,-3.5,-0.421875
764,1695742449502,0.12597656,-1.008606,0.07904053,-5.609375,-3.484375,-3.078125
765,1695742449545,0.1262207,-0.9690552,0.08319092,-4.609375,-2.8125,-2.21875
766,1695742449586,0.1105957,-0.99957275,0.09295654,-4.75,-1.390625,-2.3125
767,1695742449640,0.09350586,-1.0090942,0.11004639,-2.59375,-0.21875,-1.4375
768,1695742449660,0.079589844,-0.9714966,0.09100342,-3.234375,-4.296875,-3.203125
769,1695742449699,0.095703125,-0.9902954,0.101257324,-2.921875,1.59375,-1.703125
770,1695742449740,0.088134766,-0.9963989,0.1005249,-3.1875,1.296875,-0.765625
771,1695742449779,0.08862305,-0.9849243,0.11639404,-6.9375,3.109375,-1.421875
772,1695742449819,0.100097656,-0.9727173,0.1329956,-1.71875,2.5625,-1.796875
773,1695742449860,0.07543945,-0.987854,0.086364746,-0.75,2.65625,1.5625
774,1695742449899,0.15429688,-0.99346924,0.15667725,0.3125,10.5,1.859375
775,1695742449942,0.068115234,-0.9915161,0.12664795,12.265625,0.09375,-1.40625
776,1695742449982,0.04736328,-0.98150635,0.039733887,10.15625,1.109375,0.28125
777,1695742450023,0.055419922,-0.9968872,0.058776855,4.421875,6.46875,4.796875
778,1695742450062,0.1315918,-0.9907837,0.113220215,5.484375,3.84375,0.359375
779,1695742450103,0.091308594,-0.9902954,0.05340576,13.015625,5.59375,3.125
780,1695742450141,0.11230469,-0.98101807,0.046325684,8.546875,2.234375,2.234375
781,1695742450184,0.09790039,-0.9788208,0.023864746,11.8125,-0.4375,1.328125
782,1695742450226,0.08984375,-0.9854126,-0.028625488,11.71875,3.9375,3.28125
783,1695742450268,0.12963867,-1.0071411,0.0072631836,1.453125,7.1875,2.171875
784,1695742450305,0.08496094,-0.9915161,0.017028809,11.1875,5.59375,1.265625
785,1695742450342,0.10888672,-0.9558716,-0.03375244,9.78125,5.203125,2.15625
786,1695742450381,0.092041016,-0.9829712,-0.050598145,7.34375,1.578125,1.921875
787,1695742450420,0.12036133,-0.94903564,-0.062072754,-0.515625,0.859375,2.359375
788,1695742450461,0.1315918,-0.9649048,-0.03692627,-1.953125,0.65625,-0.140625
789,1695742450502,0.11303711,-0.9685669,-0.03741455,-5.09375,-2.15625,0.28125
790,1695742450546,0.12133789,-0.9585571,-0.05303955,-3.890625,-3.6875,-1.34375
791,1695742450579,0.13134766,-0.9873657,-0.0154418945,-2.40625,1.375,-1.015625
792,1695742450599,0.10986328,-0.95025635,-0.038391113,-6.171875,-5.40625,-2.515625
793,1695742450638,0.09741211,-0.95025635,-0.015930176,-6.71875,-6.609375,-3.984375
794,1695742450677,0.11279297,-0.99102783,-0.013244629,-4.890625,-6.875,-3.953125
795,1695742450718,0.13232422,-1.0200806,0.02557373,-6.296875,-1.421875,0.703125
796,1695742450762,0.10986328,-0.975647,-0.008361816,-11.234375,-7.515625,-1.046875
797,1695742450801,0.111816406,-0.94073486,-0.0010375977,-5.84375,-5.46875,-2.390625
798,1695742450842,0.11206055,-0.987854,0.046813965,-6.40625,-1.0,-2.421875
799,1695742450883,0.10058594,-1.0176392,0.04559326,-8.265625,-1.40625,-2.90625
800,1695742450921,0.111816406,-1.0032349,0.04437256,-4.421875,-1.0625,-3.28125
801,1695742450961,0.09082031,-0.98443604,0.026062012,0.90625,-1.6875,-5.03125
802,1695742451001,0.10913086,-0.95806885,0.026550293,-4.328125,3.578125,-3.40625
803,1695742451044,0.11450195,-0.99346924,0.070251465,-8.953125,6.4375,-1.125
804,1695742451085,0.092041016,-0.9939575,0.09906006,-1.671875,4.125,-0.546875
805,1695742451125,0.059570312,-0.9697876,0.054138184,3.703125,-2.109375,-2.28125
806,1695742451166,0.042236328,-0.9920044,0.008728027,-1.1875,0.828125,-0.546875
807,1695742451202,0.095458984,-0.989563,0.0848999,-7.546875,2.28125,-2.28125
808,1695742451240,0.068603516,-0.98760986,0.07098389,2.265625,-1.046875,-1.140625
809,1695742451281,0.09765625,-1.0366821,0.043884277,0.375,3.328125,0.984375
810,1695742451320,0.08203125,-0.9993286,0.07684326,5.453125,4.671875,-0.140625
811,1695742451357,0.06762695,-0.9663696,0.043884277,6.703125,2.296875,0.140625
812,1695742451397,0.05883789,-0.9783325,0.012878418,5.59375,1.75,2.25
813,1695742451440,0.09814453,-0.99346924,0.029968262,-2.703125,6.15625,-0.3125
814,1695742451480,0.10205078,-0.99786377,0.055603027,5.515625,3.09375,-0.28125
815,1695742451520,0.10498047,-0.9907837,-0.0076293945,3.609375,4.484375,0.5625
816,1695742451561,0.091552734,-0.9783325,0.018249512,2.59375,3.890625,1.359375
817,1695742451601,0.100097656,-0.9812622,-0.0068969727,3.640625,1.046875,0.09375
818,1695742451639,0.09082031,-0.9973755,-0.006164551,3.65625,6.4375,0.65625
819,1695742451681,0.09472656,-1.0049438,0.015319824,2.984375,4.203125,0.46875
820,1695742451744,0.0859375,-0.97320557,-0.02960205,5.375,0.1875,1.046875
821,1695742451766,0.06665039,-0.98687744,-0.024719238,8.8125,3.8125,1.265625
822,1695742451797,0.12646484,-0.9902954,-0.014709473,3.9375,4.40625,0.578125
823,1695742451829,0.08081055,-0.9492798,-0.05621338,2.640625,-3.0,1.171875
824,1695742451858,0.09814453,-0.95196533,-0.042053223,4.046875,-0.21875,1.8125
825,1695742451898,0.09887695,-0.9817505,-0.0413208,-1.671875,-4.140625,-0.8125
826,1695742451938,0.096191406,-0.94122314,-0.047912598,-6.84375,-7.765625,-2.796875
827,1695742451980,0.079833984,-0.9663696,-0.030090332,-5.609375,-6.953125,-2.46875
828,1695742452018,0.09838867,-0.9883423,0.007507324,-10.6875,-8.015625,-0.890625
829,1695742452058,0.0925293,-0.99224854,-0.019592285,-6.75,-9.859375,-0.59375
830,1695742452099,0.087402344,-1.0025024,0.0079956055,-5.1875,-2.8125,-0.921875
831,1695742452138,0.11279297,-0.9824829,-0.007873535,-8.484375,-8.03125,-2.421875
832,1695742452178,0.11645508,-0.97052,0.035339355,-4.28125,-2.375,-1.328125
833,1695742452218,0.11230469,-0.9937134,0.023864746,-5.90625,-3.140625,-0.859375
834,1695742452258,0.083496094,-1.0151978,0.019470215,-4.1875,-2.5625,-0.78125
835,1695742452298,0.10107422,-0.97735596,0.035095215,-3.328125,-1.84375,-0.6875
836,1695742452339,0.09399414,-0.9717407,0.04925537,-4.265625,0.859375,-2.75
837,1695742452377,0.0949707,-0.9885864,0.038757324,-4.265625,-2.09375,-2.390625
838,1695742452418,0.0847168,-1.0105591,0.061462402,-4.21875,-2.859375,-1.21875
839,1695742452458,0.07495117,-0.98272705,0.05340576,-2.859375,-1.875,-2.09375
840,1695742452499,0.05493164,-1.0015259,0.06365967,-2.265625,3.375,0.125
841,1695742452537,0.0925293,-0.9776001,0.050720215,-4.078125,-1.5,-0.171875
842,1695742452577,0.099365234,-0.9915161,0.05218506,-5.421875,1.921875,-0.6875
843,1695742452618,0.08935547,-0.99224854,0.074645996,-2.640625,2.703125,0.609375
844,1695742452658,0.08227539,-1.0108032,0.05731201,1.28125,5.453125,1.078125
845,1695742452700,0.08886719,-0.99786377,0.049743652,2.8125,3.96875,0.484375
846,1695742452742,0.080322266,-0.99102783,0.07611084,5.421875,10.8125,2.234375
847,1695742452780,0.0769043,-0.97125244,0.040222168,4.828125,4.84375,2.21875
848,1695742452820,0.11352539,-0.9631958,0.054626465,4.828125,6.1875,1.453125
849,1695742452861,0.10913086,-0.9956665,0.02166748,4.3125,4.984375,1.671875
850,1695742452901,0.099853516,-1.003479,0.03387451,4.015625,6.015625,1.59375
851,1695742452944,0.09643555,-0.9536743,0.00579834,6.5,3.859375,1.984375
852,1695742452981,0.095458984,-0.9973755,0.012390137,5.84375,6.109375,1.25
853,1695742453041,0.10253906,-0.98101807,-0.0044555664,1.234375,1.953125,0.484375
854,1695742453062,0.08666992,-0.97784424,-0.024230957,3.59375,2.015625,0.90625
855,1695742453084,0.12475586,-0.9819946,0.008239746,1.234375,2.875,-0.78125
856,1695742453162,0.095947266,-0.97857666,-0.00592041,1.25,1.921875,0.25
857,1695742453166,0.08276367,-0.9697876,-0.019104004,-0.765625,1.171875,1.265625
858,1695742453203,0.0847168,-0.96221924,-0.035217285,-1.140625,-4.734375,-1.015625
859,1695742453242,0.1171875,-0.9849243,0.001159668,1.109375,-1.296875,-1.21875
860,1695742453278,0.107666016,-0.9771118,-0.0115356445,-2.890625,-1.984375,-1.578125
861,1695742453321,0.09716797,-0.95440674,-0.006652832,-5.25,-3.40625,-1.34375
862,1695742453361,0.08959961,-0.9607544,-0.008117676,-7.421875,-3.890625,-1.53125
863,1695742453400,0.09887695,-0.99542236,0.012634277,-5.765625,-7.1875,-4.28125
864,1695742453445,0.123535156,-0.9990845,0.023132324,-2.546875,-1.4375,-2.109375
865,1695742453481,0.09838867,-0.99420166,0.011413574,-5.046875,-5.40625,0.625
866,1695742453519,0.08569336,-0.97052,0.047790527,-3.546875,-0.984375,-0.578125
867,1695742453559,0.09277344,-1.0044556,0.028259277,-5.90625,-1.84375,-2.046875
868,1695742453599,0.099853516,-0.9907837,0.04949951,-4.375,-0.546875,-3.25
869,1695742453637,0.10253906,-0.9939575,0.059020996,-4.625,1.078125,-1.703125
870,1695742453678,0.08691406,-0.9651489,0.051208496,-3.8125,0.203125,-2.265625
871,1695742453720,0.0847168,-0.9998169,0.04852295,-3.5625,-2.53125,-2.59375
872,1695742453761,0.072509766,-1.0020142,0.06414795,-1.328125,-0.046875,-2.703125
873,1695742453800,0.084228516,-0.9937134,0.06121826,-2.75,4.421875,-2.328125
874,1695742453842,0.06958008,-0.99298096,0.051696777,-5.375,2.375,-0.625
875,1695742453885,0.08105469,-0.9487915,0.070007324,-2.515625,-0.078125,-0.71875
876,1695742453924,0.08325195,-0.9846802,0.058044434,-2.484375,1.390625,-1.453125
877,1695742453964,0.04248047,-1.00177,0.077819824,0.484375,1.390625,-0.390625
878,1695742454000,0.079589844,-1.0022583,0.058532715,2.578125,4.109375,-0.109375
879,1695742454041,0.07836914,-0.98883057,0.04852295,2.03125,2.09375,0.875
880,1695742454081,0.07128906,-0.9710083,0.061706543,3.3125,4.8125,0.3125
881,1695742454120,0.07861328,-1.0037231,0.031188965,3.84375,2.84375,1.5625
882,1695742454161,0.07836914,-0.9998169,0.053649902,4.96875,3.984375,1.5
883,1695742454204,0.08666992,-0.9524536,0.014831543,5.578125,4.25,1.90625
884,1695742454241,0.061279297,-1.0025024,0.022399902,6.140625,2.6875,1.609375
885,1695742454282,0.08911133,-0.9841919,0.016052246,5.3125,4.4375,1.0
886,1695742454302,0.071777344,-0.98638916,-0.00030517578,4.5,2.515625,1.8125
887,1695742454341,0.09423828,-0.9697876,-0.004211426,4.890625,1.828125,1.3125
888,1695742454384,0.114746094,-1.0093384,-0.006652832,6.265625,6.015625,2.828125
889,1695742454422,0.092285156,-0.99957275,-0.031799316,6.4375,6.453125,2.421875
890,1695742454463,0.061523438,-0.9534302,-0.035949707,4.015625,2.390625,1.828125
891,1695742454501,0.08496094,-0.9678345,-0.046447754,4.328125,-0.25,1.0
892,1695742454540,0.118652344,-0.9985962,-0.031066895,2.46875,1.453125,0.328125
893,1695742454582,0.09887695,-0.9697876,-0.05621338,0.359375,-3.296875,-0.421875
894,1695742454618,0.10180664,-0.9487915,-0.04815674,-0.21875,-2.484375,1.6875
895,1695742454657,0.10546875,-0.95440674,-0.062316895,-4.6875,-4.40625,-1.09375
896,1695742454697,0.11254883,-0.9873657,-0.026916504,-4.328125,-3.484375,-1.75
897,1695742454741,0.08959961,-0.96539307,-0.02154541,-7.375,-1.703125,-0.984375
898,1695742454782,0.068359375,-0.9829712,-0.06085205,-7.453125,-12.28125,-3.15625
899,1695742454824,0.13647461,-0.97540283,0.029968262,-0.9375,-0.734375,-0.640625
900,1695742454864,0.13085938,-1.0188599,-0.030090332,-6.671875,-1.40625,0.609375
901,1695742454903,0.061035156,-0.9692993,-0.0056762695,-8.578125,-5.890625,-1.625
902,1695742454944,0.09765625,-0.9678345,-0.0020141602,-3.9375,-3.328125,-1.984375
903,1695742454986,0.119384766,-0.99884033,0.018005371,-4.0625,-3.984375,-3.890625
904,1695742455030,0.12426758,-1.0022583,0.024841309,-6.15625,-2.046875,-2.546875
905,1695742455060,0.10253906,-0.9890747,0.014343262,-4.03125,0.3125,-0.09375
906,1695742455102,0.08178711,-0.9619751,0.026550293,-4.15625,-1.828125,-1.921875
907,1695742455142,0.06738281,-0.989563,0.016540527,-3.625,-2.203125,-1.609375
908,1695742455182,0.08276367,-0.9795532,0.031921387,-3.9375,-2.3125,-1.625
909,1695742455222,0.08178711,-1.0044556,0.05291748,-3.6875,-0.8125,-0.609375
910,1695742455263,0.09277344,-0.99053955,0.046813965,-3.78125,0.203125,-0.921875
911,1695742455300,0.08300781,-0.9780884,0.034362793,-2.5625,-1.25,-1.0625
912,1695742455339,0.08959961,-0.98394775,0.048034668,-2.46875,-0.140625,-1.859375
913,1695742455378,0.08959961,-1.024231,0.04144287,-0.5625,3.390625,0.359375
