,timestamp,accel_x,accel_y,accel_z,gyro_x,gyro_y,gyro_z
0,1695773868665,-0.09423828,-0.819397,-0.010314941,12.390625,4.09375,-58.125
1,1695773868704,0.27563477,-1.0794067,0.03289795,26.875,7.84375,-45.890625
2,1695773868744,0.46411133,-0.96173096,0.17132568,42.078125,7.015625,-4.546875
3,1695773868784,0.15795898,-0.57281494,-0.054260254,15.921875,10.78125,15.078125
4,1695773868825,-0.19506836,-0.597229,-0.4373169,-34.125,-26.890625,-16.109375
5,1695773868864,-0.93408203,-1.5176392,-0.37042236,-31.703125,-60.546875,-20.28125
6,1695773868904,-0.7416992,-1.1921997,0.14715576,31.015625,9.28125,-85.640625
7,1695773868944,-0.27294922,-1.3276978,-0.16339111,55.5625,47.6875,-51.234375
8,1695773868986,0.4013672,-0.94415283,0.010925293,53.328125,61.9375,9.140625
9,1695773869026,0.3190918,-0.55792236,-0.3826294,-23.640625,-37.140625,12.875
10,1695773869064,0.013916016,-0.7263794,-0.4282837,-64.328125,-75.21875,-18.21875
11,1695773869104,-0.47436523,-1.5664673,-0.117248535,-49.1875,-34.40625,-6.390625
12,1695773869145,-0.55859375,-1.2788696,-0.07208252,21.625,-11.40625,8.0
13,1695773869184,-0.41333008,-0.9470825,-0.043029785,21.234375,-6.359375,34.8125
14,1695773869224,-0.06982422,-0.8233032,-0.4734497,-1.65625,-7.71875,43.59375
15,1695773869265,-0.11767578,-0.86260986,-0.3538208,-2.109375,-25.75,75.515625
16,1695773869308,-0.43115234,-0.65216064,-0.0044555664,-5.328125,-26.71875,67.390625
17,1695773869347,-0.35766602,-0.82232666,-0.12359619,-4.015625,-0.296875,14.421875
18,1695773869389,-0.4597168,-0.95562744,-0.12579346,-11.65625,11.21875,-28.34375
19,1695773869427,-0.18774414,-0.92803955,-0.12628174,-30.765625,8.75,-34.359375
20,1695773869468,0.019042969,-0.94854736,-0.061584473,-19.828125,23.796875,-1.59375
21,1695773869507,0.40625,-0.9800415,-0.19732666,5.6875,6.671875,44.671875
22,1695773869548,0.36035156,-0.9663696,-0.09552002,25.453125,11.5,69.953125
23,1695773869590,0.33618164,-1.2839966,-0.15704346,-23.703125,-2.515625,39.75
24,1695773869629,-0.40014648,-1.3521118,0.26507568,-28.140625,-24.75,4.640625
25,1695773869670,-0.110839844,-0.82110596,-0.08111572,17.75,95.53125,-45.53125
26,1695773869706,0.56689453,-0.8032837,-0.70562744,9.625,63.078125,-21.625
27,1695773869747,0.8515625,-0.8491821,-0.25250244,8.171875,-19.34375,11.5
28,1695773869791,0.74975586,-0.97906494,0.0028686523,6.3125,-35.875,36.515625
29,1695773869829,0.15551758,-0.8904419,-0.015197754,-8.640625,-36.703125,-4.9375
30,1695773869848,-0.14794922,-0.75909424,-0.08111572,2.96875,-20.296875,-29.203125
31,1695773869889,-0.12231445,-0.6223755,0.016052246,15.078125,-9.640625,-48.484375
32,1695773869928,0.030029297,-0.87823486,-0.10723877,38.296875,19.765625,-44.015625
33,1695773869968,-0.20581055,-1.0359497,0.20135498,13.390625,29.1875,-38.515625
34,1695773870007,-0.37353516,-1.133606,-0.40509033,-46.34375,48.84375,-20.59375
35,1695773870048,-0.38085938,-0.6790161,-0.6397095,-0.03125,-1.3125,-3.234375
36,1695773870089,0.38012695,-2.0,-0.25445557,81.671875,3.140625,-53.28125
37,1695773870128,-0.060058594,-1.0747681,0.36712646,64.890625,52.515625,-32.984375
38,1695773870167,0.13891602,-0.5371704,-0.4072876,-34.84375,2.953125,-36.53125
39,1695773870207,-0.13696289,-0.4866333,-0.65338135,-55.53125,-30.609375,-8.921875
40,1695773870246,-0.4645996,-0.7007446,-0.35968018,-10.359375,-43.453125,-5.25
41,1695773870288,-0.421875,-1.375061,-0.047668457,6.421875,-10.65625,-1.515625
42,1695773870328,-0.20385742,-1.28302,-0.17828369,7.453125,7.40625,16.109375
43,1695773870368,-0.1484375,-1.0339966,-0.32037354,2.515625,-10.859375,10.71875
44,1695773870407,-0.43652344,-1.1506958,-0.004211426,-11.96875,3.125,54.609375
45,1695773870446,-0.5698242,-0.4553833,-0.6272583,0.28125,30.96875,85.359375
46,1695773870486,-0.36621094,-0.51153564,-0.18756104,12.296875,15.34375,47.65625
47,1695773870526,-0.17260742,-1.1860962,-0.08013916,-13.53125,16.640625,2.65625
48,1695773870566,-0.0048828125,-1.0708618,-0.0134887695,-29.53125,11.671875,-8.125
49,1695773870607,0.35473633,-1.1062622,-0.06036377,-20.71875,-14.0625,20.96875
50,1695773870645,0.035888672,-0.7085571,-0.38555908,-2.8125,-16.46875,79.984375
51,1695773870686,-0.09667969,-0.91290283,-0.04473877,-39.109375,-11.421875,29.5625
52,1695773870727,-0.1315918,-1.4299927,0.20111084,-2.265625,1.734375,-0.6875
53,1695773870766,0.16918945,-1.0891724,-0.09625244,9.890625,55.0,-12.703125
54,1695773870806,0.4194336,-0.5623169,-0.50567627,21.875,47.296875,16.03125
55,1695773870846,0.60375977,-0.55841064,-0.35308838,13.578125,-28.5625,1.375
56,1695773870886,0.64990234,-0.8855591,0.08831787,-11.46875,-25.109375,-7.59375
57,1695773870928,0.28881836,-1.1721802,-0.08380127,-50.765625,-25.078125,-29.90625
58,1695773870968,-0.29345703,-1.2178345,0.06488037,21.765625,-31.734375,-18.453125
59,1695773871007,0.3720703,-0.69122314,0.042663574,69.84375,-19.4375,-31.46875
60,1695773871051,0.56591797,-0.8870239,0.02166748,24.4375,-54.703125,-15.15625
61,1695773871066,0.27270508,-0.82891846,-0.14141846,-12.6875,-11.921875,29.234375
62,1695773871110,-0.17675781,-0.8255005,0.086120605,-35.796875,0.203125,23.296875
63,1695773871148,-0.65405273,-1.2815552,-0.4902954,-8.5625,-6.703125,2.40625
64,1695773871186,-0.9272461,-0.3652954,-0.08306885,-8.75,8.5,-93.4375
65,1695773871226,0.14379883,-1.2666626,-0.7979126,47.765625,43.078125,-114.265625
66,1695773871266,0.09863281,-2.0,0.7321167,36.015625,-45.0625,-55.546875
67,1695773871307,0.43408203,-1.0877075,-0.0803833,4.703125,61.25,12.390625
68,1695773871345,-0.030517578,-0.56915283,-0.6045532,-30.53125,29.4375,59.375
69,1695773871387,-0.5605469,-0.4776001,-0.506897,-26.984375,-37.421875,-7.6875
70,1695773871427,-0.67626953,-1.0159302,-0.128479,31.015625,-5.9375,-66.78125
71,1695773871469,0.16040039,-1.2102661,-0.19366455,-18.5,-3.46875,-28.125
72,1695773871507,0.076416016,-1.123352,-0.2666626,-4.5,-16.296875,3.375
73,1695773871547,-0.28466797,-1.2688599,-0.024475098,-7.46875,5.984375,38.625
74,1695773871585,-0.5053711,-0.9229126,-0.18682861,-4.9375,25.3125,60.078125
75,1695773871625,-0.27001953,-0.49761963,-0.4163208,-0.390625,-2.953125,49.34375
76,1695773871666,-0.1730957,-0.772522,-0.19732666,1.765625,0.96875,13.96875
77,1695773871706,0.025390625,-1.0169067,-0.051086426,-0.578125,1.28125,13.140625
78,1695773871747,0.012207031,-1.1206665,0.10614014,-12.515625,-20.5,26.984375
79,1695773871789,-0.0026855469,-0.78985596,-0.42242432,-16.0625,-8.359375,48.078125
80,1695773871828,-0.2849121,-0.6592407,-0.10675049,-22.921875,-27.71875,31.375
81,1695773871866,0.61083984,-1.5684204,-0.08355713,-30.15625,-3.125,-26.65625
82,1695773871906,0.43896484,-1.2197876,-0.17022705,-12.421875,-25.6875,49.21875
83,1695773871945,-0.05029297,-0.86383057,-0.042053223,18.546875,49.328125,10.546875
84,1695773871988,-0.22509766,-0.6133423,-0.33892822,18.015625,27.6875,-22.84375
85,1695773872029,0.30004883,-0.4187622,-0.15289307,33.5625,-2.4375,-37.40625
86,1695773872069,0.49975586,-1.1592407,0.13861084,-14.140625,-34.265625,-55.59375
87,1695773872107,0.08105469,-1.3372192,0.06072998,11.6875,30.5,-1.578125
88,1695773872148,0.15844727,-0.7720337,-0.17388916,27.828125,25.375,2.96875
89,1695773872190,-0.100097656,-0.6878052,-0.04034424,3.46875,11.609375,-19.953125
90,1695773872226,-0.54785156,-0.5928345,-0.2678833,-36.0625,15.625,-54.96875
91,1695773872290,-0.72802734,-1.045227,-0.4290161,-26.28125,10.328125,-118.203125
92,1695773872294,-0.15820312,-1.8843384,0.026062012,48.140625,-26.46875,-56.421875
93,1695773872328,-0.13476562,-1.4124146,0.33392334,39.8125,43.734375,-8.734375
94,1695773872368,0.26123047,-0.7798462,-0.30670166,1.53125,52.9375,36.734375
95,1695773872407,-0.055419922,-0.45269775,-0.40948486,-28.515625,-14.546875,38.1875
96,1695773872448,-0.4777832,-0.56329346,-0.38580322,7.109375,-26.109375,16.78125
97,1695773872489,-0.68847656,-0.7876587,-0.23980713,2.6875,-23.09375,-48.1875
98,1695773872527,-0.5344238,-1.2510376,0.0848999,-21.8125,-32.65625,-49.296875
99,1695773872566,-0.21191406,-1.067688,-0.27105713,0.484375,2.65625,-8.96875
100,1695773872608,-0.18701172,-1.0335083,-0.32476807,-12.84375,-12.421875,5.703125
101,1695773872650,-0.37524414,-0.7498169,-0.24517822,12.046875,-6.5,21.796875
102,1695773872689,-0.5097656,-0.86920166,-0.23028564,-7.171875,-7.671875,17.78125
103,1695773872728,-0.39575195,-0.99957275,-0.2263794,0.78125,-3.375,25.5625
104,1695773872767,-0.17895508,-0.97003174,-0.113342285,26.390625,-2.234375,32.140625
105,1695773872807,-0.24023438,-1.1289673,0.008483887,6.90625,5.15625,53.03125
106,1695773872849,-0.1237793,-0.8345337,-0.23175049,-18.765625,-8.453125,63.40625
107,1695773872888,0.03149414,-0.77838135,-0.16656494,8.078125,-18.796875,53.9375
108,1695773872928,0.107910156,-0.878479,-0.37677002,31.0625,-5.53125,73.484375
109,1695773872968,0.0126953125,-0.7402954,-0.22662354,-31.828125,-22.5,22.515625
110,1695773873008,0.4650879,-2.0,-0.0044555664,-16.40625,-36.265625,13.921875
111,1695773873051,-0.12695312,-1.1792603,0.23260498,-31.75,32.8125,-23.765625
112,1695773873086,-0.044921875,-1.0559692,-0.20733643,1.390625,89.078125,-10.578125
113,1695773873125,0.09692383,-0.39508057,-0.7432251,20.8125,35.71875,13.578125
114,1695773873165,0.3984375,-0.3665161,-0.26202393,23.09375,1.46875,-1.28125
115,1695773873206,0.4453125,-0.6819458,-0.023010254,17.375,15.234375,-16.6875
116,1695773873248,0.0036621094,-1.185852,-0.15093994,-37.796875,31.265625,-40.140625
117,1695773873288,-0.27075195,-1.1055298,0.019226074,19.171875,12.0,-39.9375
118,1695773873328,0.013183594,-0.42633057,-0.105529785,44.0625,62.09375,-43.0
119,1695773873368,0.04663086,-0.6526489,-0.66851807,-47.421875,35.421875,-83.71875
120,1695773873409,-0.171875,-1.5444946,-0.4553833,-88.953125,-41.953125,-35.296875
121,1695773873449,-0.7282715,-1.6069946,0.27069092,29.875,-58.0625,-12.296875
122,1695773873509,0.091552734,-1.1633911,0.09320068,41.53125,100.421875,8.59375
123,1695773873526,0.087646484,-0.4031372,-0.6741333,-45.65625,-40.71875,-0.875
124,1695773873547,-0.21704102,-0.41827393,-0.40289307,-23.25,-47.171875,-12.03125
125,1695773873588,-0.42529297,-0.76885986,-0.3320923,-6.234375,-23.171875,8.921875
126,1695773873629,-0.5666504,-1.0601196,-0.11480713,-23.78125,-23.484375,16.59375
127,1695773873665,-0.47973633,-0.96881104,-0.020568848,26.4375,3.921875,13.0625
128,1695773873709,-0.05444336,-1.00177,-0.07940674,2.453125,-6.5,5.859375
129,1695773873750,0.05078125,-1.0618286,-0.09039307,6.25,1.953125,51.828125
130,1695773873790,-0.06323242,-0.95098877,-0.28961182,-14.828125,-11.609375,58.328125
131,1695773873826,-0.09301758,-1.0674438,-0.02178955,-10.71875,-24.109375,48.90625
132,1695773873869,-0.31298828,-0.9204712,-0.3826294,-20.53125,-45.3125,38.4375
133,1695773873910,-0.06616211,-0.7739868,0.15252686,22.21875,7.015625,11.359375
134,1695773873947,0.10424805,-1.5628052,0.16278076,-63.796875,-25.25,1.578125
135,1695773873989,-0.5419922,-0.90216064,-0.27349854,-59.234375,-9.890625,-16.515625
136,1695773874028,-0.06762695,-0.79815674,-0.124572754,47.40625,90.515625,-24.6875
137,1695773874069,0.6201172,-0.9055786,-0.34527588,20.609375,63.875,-32.859375
138,1695773874109,0.67285156,-1.5186157,0.36395264,-47.34375,-33.359375,-5.125
139,1695773874146,0.28710938,-0.75665283,-0.3789673,-8.40625,-17.59375,38.625
140,1695773874189,-0.26464844,-0.8694458,0.13812256,15.140625,2.015625,4.109375
141,1695773874228,-0.048828125,-0.60040283,-0.10845947,44.390625,19.921875,-19.703125
142,1695773874268,0.15112305,-0.5684204,-0.23638916,28.59375,18.4375,-22.921875
143,1695773874308,0.27539062,-0.8418579,-0.13824463,35.796875,8.390625,-22.796875
144,1695773874348,-0.059814453,-0.9038696,-0.08868408,19.6875,-1.109375,-15.046875
145,1695773874389,-0.15600586,-1.0496216,-0.2276001,-6.859375,10.140625,-30.109375
146,1695773874429,-0.3791504,-1.4487915,-0.47003174,-35.796875,-25.0,-26.71875
147,1695773874471,-0.61279297,-1.6536255,-0.06500244,8.5625,-55.6875,-54.59375
148,1695773874507,-0.15527344,-1.2988892,-0.10992432,35.5625,28.40625,-9.34375
149,1695773874548,-0.05053711,-0.67388916,-0.2564087,-1.21875,-11.0,7.390625
150,1695773874589,-0.10571289,-0.41705322,-0.39898682,-26.0625,-38.921875,-17.90625
151,1695773874628,-0.65625,-0.67022705,-0.33648682,-24.140625,-36.25,-43.40625
152,1695773874669,-0.35620117,-0.84259033,-0.049865723,0.9375,-0.515625,-19.03125
153,1695773874709,-0.23461914,-0.9299927,-0.17877197,-16.6875,-9.578125,-5.75
154,1695773874728,-0.27807617,-1.0796509,-0.23370361,-9.359375,-10.390625,6.78125
155,1695773874769,-0.38793945,-1.0010376,-0.2510376,-7.015625,-10.28125,31.09375
156,1695773874809,-0.26586914,-0.8518677,-0.085998535,17.609375,7.390625,54.734375
157,1695773874849,-0.0031738281,-0.8418579,-0.082336426,25.125,7.625,63.375
158,1695773874890,-0.048339844,-0.866272,-0.01763916,13.40625,-28.703125,66.8125
159,1695773874930,0.18261719,-0.70147705,-0.37457275,-8.28125,15.3125,29.53125
160,1695773874967,-0.19067383,-1.5120239,-0.61920166,-18.375,4.546875,-3.015625
161,1695773875010,-0.43139648,-1.819397,0.6066284,-7.71875,-18.015625,24.734375
162,1695773875046,-0.07055664,-0.7476196,-0.07672119,33.859375,112.796875,18.015625
163,1695773875089,0.16455078,-0.7017212,-0.48150635,-12.578125,55.046875,22.671875
164,1695773875128,0.38964844,-0.31793213,-0.6140747,-5.734375,1.828125,7.140625
165,1695773875167,0.53515625,-0.83013916,-0.4446411,-43.6875,-42.59375,20.875
166,1695773875209,0.4465332,-1.2893677,0.20721436,-15.125,3.09375,23.859375
167,1695773875249,0.057128906,-1.0684204,0.0028686523,42.734375,28.0625,12.703125
168,1695773875289,0.15112305,-0.87823486,-0.11993408,-15.578125,-17.171875,-22.4375
169,1695773875327,0.34448242,-0.7546997,-0.21417236,20.9375,8.46875,-14.640625
170,1695773875368,0.3779297,-0.83843994,-0.16973877,15.234375,-5.9375,9.359375
171,1695773875408,0.15454102,-0.61724854,-0.15533447,13.1875,-7.390625,5.671875
172,1695773875446,-0.16748047,-0.6367798,-0.023010254,20.21875,-2.53125,-16.953125
173,1695773875489,-0.5463867,-0.661438,-0.20220947,-9.28125,-1.171875,-81.015625
174,1695773875529,-0.34448242,-0.80596924,-0.53912354,-36.484375,36.640625,-99.421875
175,1695773875569,-0.018798828,-1.0332642,-0.78302,10.5,12.46875,-40.796875
176,1695773875609,0.2680664,-2.0,-0.40582275,77.90625,-76.46875,-4.484375
177,1695773875649,-0.33520508,-1.2368774,0.27996826,37.140625,107.984375,23.109375
178,1695773875691,-0.26586914,-0.43756104,-0.96881104,-31.4375,25.046875,26.1875
179,1695773875731,-0.5185547,-0.3748169,-0.6409302,-8.015625,-50.34375,-60.53125
180,1695773875768,-0.064697266,-1.2456665,-0.15484619,27.734375,-18.203125,-19.921875
181,1695773875809,0.0009765625,-1.2634888,-0.20074463,-17.75,-0.859375,21.34375
182,1695773875848,-0.28198242,-0.7354126,-0.50201416,-27.671875,19.46875,29.453125
183,1695773875889,-0.47924805,-0.9692993,-0.42218018,-6.671875,-18.25,8.84375
184,1695773875947,-0.1730957,-0.85357666,-0.3508911,7.203125,-21.34375,27.390625
185,1695773875970,0.14208984,-0.82647705,-0.2805786,-11.640625,-39.015625,20.890625
186,1695773875989,0.24536133,-0.83477783,-0.24615479,-9.109375,-47.328125,19.8125
187,1695773876029,0.044189453,-0.7058716,-0.2835083,-36.75,-72.4375,19.625
188,1695773876068,-0.075683594,-0.88653564,0.06414795,-36.28125,-35.046875,29.484375
189,1695773876109,-0.030517578,-1.5947876,-0.08746338,-73.125,-8.515625,41.34375
190,1695773876148,-0.95043945,-1.0825806,0.06781006,-45.1875,-44.09375,3.09375
191,1695773876191,-0.26586914,-0.89312744,0.15716553,24.0,109.5,-39.65625
192,1695773876227,0.3244629,-0.8296509,-0.48101807,-3.859375,79.75,-29.203125
193,1695773876266,0.50756836,-1.0681763,-0.14971924,-17.09375,-3.21875,-20.0
194,1695773876308,0.30273438,-1.2332153,0.16326904,-20.96875,42.15625,20.234375
195,1695773876346,0.014160156,-0.82891846,0.015075684,0.4375,38.078125,25.0625
196,1695773876389,-0.19213867,-0.6878052,-0.08013916,17.5625,23.234375,-11.46875
197,1695773876431,0.19335938,-0.5161743,-0.16851807,13.828125,40.375,-38.671875
198,1695773876466,0.49975586,-0.89801025,-0.2510376,27.359375,-0.53125,-21.609375
199,1695773876508,0.5253906,-1.1902466,-0.22589111,22.359375,-25.78125,4.6875
200,1695773876549,0.21289062,-1.0137329,-0.1182251,52.84375,-15.90625,38.171875
201,1695773876589,0.092285156,-0.7163696,-0.09161377,56.71875,-3.0,26.1875
202,1695773876629,-0.21289062,-0.76226807,-0.11505127,38.859375,-14.34375,-29.90625
203,1695773876669,-0.42089844,-0.65289307,-0.51397705,-49.34375,-26.484375,-91.875
204,1695773876710,-0.33740234,-1.1021118,-0.5967407,-27.78125,-20.234375,-117.171875
205,1695773876752,-0.29541016,-1.9282837,-0.5742798,53.03125,-51.671875,8.5
206,1695773876789,-0.48168945,-1.6292114,0.168396,17.5625,-16.828125,19.359375
207,1695773876830,-0.03491211,-0.85894775,-0.4373169,-7.8125,56.75,50.453125
208,1695773876870,-0.30664062,-0.49542236,-0.64019775,-24.65625,6.109375,53.375
209,1695773876909,-0.5288086,-0.27105713,-0.3814087,-3.875,-1.140625,-9.5
210,1695773876951,-0.15673828,-0.91729736,-0.27520752,-21.96875,3.578125,-26.640625
211,1695773876991,0.079589844,-0.9644165,-0.21710205,-23.3125,-0.9375,1.109375
212,1695773877031,0.25561523,-0.95025635,-0.27764893,-6.265625,-20.09375,22.234375
213,1695773877068,0.45629883,-0.97442627,-0.190979,-13.09375,-82.421875,39.609375
214,1695773877111,-0.001953125,-0.98687744,-0.40264893,-29.0625,-54.9375,54.734375
215,1695773877147,-0.19824219,-0.5444946,-0.24761963,-8.484375,2.84375,57.0625
216,1695773877188,-0.0007324219,-1.8237915,-0.17266846,-50.0,-60.8125,-1.578125
217,1695773877207,-0.56347656,-1.09552,0.1906128,15.40625,66.578125,-24.9375
218,1695773877248,-0.018798828,-0.9505005,-0.1729126,14.296875,80.578125,-7.25
219,1695773877290,0.37597656,-0.46051025,-0.62994385,7.828125,49.078125,-6.625
220,1695773877331,0.5517578,-0.8635864,-0.25006104,-48.421875,-27.140625,-18.40625
221,1695773877367,0.45874023,-1.1729126,0.27069092,-31.578125,19.453125,0.984375
222,1695773877408,-0.014892578,-1.3630981,-0.08282471,15.84375,73.359375,-13.890625
223,1695773877448,-0.03881836,-0.82598877,-0.1795044,12.125,8.984375,-14.078125
224,1695773877488,0.22851562,-0.5046997,-0.22857666,-3.25,1.296875,-27.71875
225,1695773877530,0.41381836,-0.8352661,-0.28033447,-1.453125,-24.453125,-36.59375
226,1695773877567,0.22192383,-1.2136841,0.109313965,-0.3125,-49.296875,-12.296875
227,1695773877608,0.088134766,-0.9273071,-0.07696533,38.265625,-9.1875,3.359375
228,1695773877648,-0.006591797,-0.74591064,-0.09967041,41.984375,-10.953125,-4.109375
229,1695773877689,-0.33520508,-0.49298096,-0.2107544,13.578125,-13.46875,-43.828125
230,1695773877728,-0.4716797,-0.7490845,-0.42559814,-0.421875,2.078125,-83.65625
231,1695773877769,-0.34375,-1.1152954,-0.4590454,-47.640625,-39.875,-60.875
232,1695773877809,-0.31689453,-1.6189575,-0.44952393,43.5,-34.9375,-7.078125
233,1695773877848,-0.34204102,-1.364563,0.13763428,67.03125,15.71875,49.84375
234,1695773877889,0.068115234,-0.6885376,-0.30963135,-3.28125,48.96875,46.96875
235,1695773877929,-0.22338867,-0.6795044,-0.6638794,-84.859375,-1.890625,20.703125
236,1695773877966,-0.38134766,-0.7998657,-0.6255493,19.375,3.296875,20.0625
237,1695773878008,-0.12866211,-1.3272095,-0.1260376,33.515625,-21.921875,26.625
238,1695773878048,-0.19677734,-1.0003052,-0.13775635,-10.9375,12.578125,56.59375
239,1695773878087,-0.03173828,-0.7136841,-0.46539307,-34.125,-3.03125,22.640625
240,1695773878130,-0.14916992,-1.1087036,-0.23468018,-33.546875,-33.078125,5.484375
241,1695773878166,0.15014648,-0.9968872,-0.27911377,-27.703125,-14.5625,27.234375
242,1695773878208,0.06616211,-0.9365845,-0.19244385,-7.65625,-12.71875,49.125
243,1695773878249,0.28149414,-0.98883057,-0.116760254,-10.75,-4.640625,56.484375
244,1695773878288,-0.32373047,-1.1133423,-0.062072754,-68.578125,-32.9375,16.953125
245,1695773878329,-0.41918945,-0.8899536,0.12371826,-31.984375,57.484375,-46.6875
246,1695773878368,0.15185547,-0.7229614,-0.3369751,3.328125,75.265625,-53.921875
247,1695773878406,0.9589844,-1.0488892,-0.2930298,12.96875,17.140625,-39.265625
248,1695773878426,0.55908203,-1.1714478,0.04510498,-26.578125,1.046875,35.015625
249,1695773878472,0.21679688,-0.6079712,-0.20587158,-8.765625,3.578125,20.21875
250,1695773878508,-0.36865234,-1.1204224,0.3151245,-2.921875,-8.453125,-32.890625
251,1695773878549,-0.2319336,-0.77349854,0.002380371,4.5,26.265625,-55.765625
252,1695773878587,0.34838867,-0.8753052,-0.17193604,10.375,17.421875,-56.140625
253,1695773878629,0.38134766,-1.0098267,0.016540527,15.15625,-1.40625,-42.1875
254,1695773878669,0.17456055,-0.7908325,0.03387451,14.09375,-0.625,-9.921875
255,1695773878706,-0.14916992,-0.76275635,0.0770874,-2.765625,-1.171875,-5.875
256,1695773878748,-0.41918945,-1.0274048,-0.08380127,-9.25,5.03125,-9.90625
257,1695773878789,-0.34838867,-1.05719,-0.3604126,0.453125,-20.84375,-29.34375
258,1695773878828,-0.31176758,-1.2283325,-0.074035645,10.46875,-21.109375,-43.3125
259,1695773878868,-0.12890625,-1.2507935,-0.018371582,4.1875,12.03125,-35.0
260,1695773878908,-0.08666992,-0.94903564,-0.01373291,14.125,2.5,6.375
261,1695773878948,-0.075927734,-0.7608032,-0.28131104,-8.046875,-26.671875,17.375
262,1695773878988,-0.34106445,-0.9163208,-0.15362549,-6.453125,-27.5,-0.859375
263,1695773879030,-0.48608398,-0.9451294,-0.128479,-16.140625,-7.59375,7.484375
264,1695773879068,-0.29467773,-0.9807739,-0.23345947,-24.34375,-10.265625,19.265625
265,1695773879110,-0.28857422,-1.0733032,-0.105773926,2.0625,-21.203125,30.21875
266,1695773879147,-0.1352539,-1.0374146,-0.009094238,6.25,-6.609375,35.5625
267,1695773879190,-0.04638672,-1.1060181,-0.0068969727,11.609375,-0.5,52.390625
268,1695773879230,-0.06616211,-0.8255005,-0.19195557,-2.203125,-23.984375,51.96875
269,1695773879268,-0.0048828125,-0.89190674,-0.13311768,-0.40625,-27.921875,46.859375
270,1695773879308,-0.16479492,-0.973938,-0.21002197,-21.65625,-26.84375,45.984375
271,1695773879347,0.119628906,-0.9829712,0.12738037,1.875,-14.734375,36.265625
272,1695773879393,0.055419922,-1.2415161,0.20404053,-33.90625,2.40625,5.53125
273,1695773879427,-0.11816406,-1.144104,0.00091552734,-30.46875,55.03125,-28.734375
274,1695773879468,-0.1003418,-0.8081665,-0.25860596,9.203125,52.796875,-23.71875
275,1695773879510,0.5378418,-0.8010864,-0.36871338,15.453125,42.84375,-28.25
276,1695773879548,0.8413086,-1.3987427,0.2814331,-27.953125,-5.734375,-17.4375
277,1695773879590,0.38476562,-0.942688,0.0053100586,4.359375,11.359375,17.5
278,1695773879632,0.0690918,-0.8530884,0.01727295,-3.890625,-16.71875,-9.296875
279,1695773879645,0.20288086,-0.7493286,0.029968262,5.421875,-19.6875,-32.984375
280,1695773879684,0.23657227,-0.8543091,0.11102295,6.96875,-20.65625,-24.0
281,1695773879725,-0.05493164,-0.91973877,-0.016418457,-2.1875,-14.984375,-9.140625
282,1695773879767,-0.4555664,-0.7139282,0.13690186,7.59375,1.90625,-30.109375
283,1695773879806,-0.4025879,-0.5310669,-0.113586426,27.421875,28.84375,-63.890625
284,1695773879845,-0.4104004,-0.8982544,-0.54766846,-21.890625,9.046875,-82.28125
285,1695773879885,-0.6098633,-1.4107056,-0.23101807,21.953125,-14.09375,-53.921875
286,1695773879925,-0.2890625,-1.479065,0.035583496,48.703125,29.875,-17.5625
287,1695773879966,-0.22338867,-1.1279907,-0.13775635,41.609375,55.6875,36.96875
288,1695773880008,0.056152344,-0.5593872,-0.40509033,11.40625,15.296875,50.15625
289,1695773880045,-0.17211914,-0.61553955,-0.27764893,15.84375,-12.359375,9.453125
290,1695773880085,-0.3815918,-1.1502075,-0.1416626,-4.75,-1.34375,-1.140625
291,1695773880125,-0.24853516,-1.0379028,-0.1585083,2.34375,-4.84375,8.046875
292,1695773880165,-0.0847168,-0.9451294,-0.24932861,12.796875,-3.828125,11.90625
293,1695773880207,-0.16601562,-1.0813599,-0.13018799,-25.6875,-32.59375,35.015625
294,1695773880248,-0.020263672,-1.0349731,-0.06549072,-21.8125,-40.03125,60.609375
295,1695773880285,0.09790039,-0.9758911,-0.4343872,-24.78125,-47.703125,61.03125
296,1695773880325,-0.004638672,-0.8296509,-0.25177002,6.34375,-38.703125,43.609375
297,1695773880365,0.69970703,-1.5657349,-0.0791626,-14.734375,-50.515625,16.078125
298,1695773880405,0.10131836,-0.93829346,-0.023010254,-25.171875,-62.078125,54.453125
299,1695773880446,-0.18554688,-0.71417236,0.018493652,-25.0625,9.578125,-7.578125
300,1695773880485,-0.38745117,-0.6123657,-0.29888916,-19.046875,-16.46875,-44.796875
301,1695773880525,0.15185547,-0.6177368,-0.16705322,2.671875,-6.9375,-46.015625
302,1695773880565,0.45629883,-1.6863403,0.6893921,-10.484375,-8.5625,-11.171875
303,1695773880605,0.16259766,-1.0317993,-0.21270752,-8.84375,57.875,39.28125
304,1695773880644,-0.009277344,-0.8665161,-0.020080566,10.890625,17.03125,19.484375
305,1695773880685,-0.0021972656,-0.60894775,0.090026855,31.484375,38.71875,-2.03125
306,1695773880725,-0.03173828,-0.7637329,0.026550293,10.21875,64.515625,-48.828125
307,1695773880766,-0.2368164,-0.86431885,-0.16998291,26.875,58.125,-92.9375
308,1695773880805,-0.43115234,-1.0142212,-0.28033447,5.09375,53.28125,-90.484375
309,1695773880866,-0.16137695,-1.0073853,-0.3587036,-6.625,76.078125,-31.921875
310,1695773880869,0.0715332,-1.8294067,-0.28375244,43.8125,11.0,-0.09375
311,1695773880905,0.32470703,-1.3699341,0.086120605,26.90625,36.75,28.265625
312,1695773880945,0.31689453,-0.57940674,-0.48468018,-5.859375,-13.046875,19.609375
313,1695773880985,-0.12207031,-0.7888794,-0.35699463,-15.1875,-41.34375,-25.53125
314,1695773881025,-0.48583984,-0.6773071,-0.33306885,-19.21875,-37.8125,-55.109375
315,1695773881065,-0.5046387,-0.9507446,-0.3069458,-24.078125,-51.46875,-61.59375
316,1695773881106,-0.5095215,-1.031311,-0.13092041,6.765625,-28.8125,2.671875
317,1695773881144,-0.28808594,-1.0232544,-0.16607666,15.921875,-6.40625,53.484375
318,1695773881185,-0.27001953,-1.0767212,-0.17779541,9.515625,-13.578125,64.578125
319,1695773881226,0.00024414062,-0.95635986,-0.22052002,40.703125,-9.359375,76.0625
320,1695773881266,0.076416016,-0.7571411,-0.26812744,1.953125,-18.921875,70.0
321,1695773881305,-0.071777344,-0.741272,-0.44293213,-7.234375,-38.828125,78.765625
322,1695773881345,0.068115234,-0.87335205,-0.22271729,15.828125,-40.25,28.15625
323,1695773881385,-0.1640625,-0.79937744,-0.4439087,-24.796875,-66.328125,18.28125
324,1695773881426,-0.22802734,-0.7420044,0.14398193,-9.421875,-3.65625,-23.703125
325,1695773881465,0.40795898,-1.8806763,-0.32110596,-35.5625,8.546875,-13.171875
326,1695773881506,-0.10864258,-1.359436,0.07537842,-2.484375,70.984375,15.640625
327,1695773881545,0.11816406,-0.6860962,-0.56036377,29.09375,62.71875,12.96875
328,1695773881585,0.27416992,-0.46099854,-0.26812744,37.359375,59.875,-18.078125
329,1695773881625,0.6582031,-0.88287354,-0.24542236,8.84375,34.90625,-43.5625
330,1695773881665,0.27661133,-0.8362427,-0.1560669,-33.4375,39.1875,-25.234375
331,1695773881705,-0.1484375,-0.84552,-0.24468994,-14.359375,38.34375,-37.078125
332,1695773881745,-0.23266602,-0.6963501,-0.28814697,4.578125,36.25,-53.859375
333,1695773881790,0.21118164,-1.0862427,-0.4446411,2.171875,28.40625,-26.53125
334,1695773881826,0.41918945,-1.6633911,-0.20880127,-12.15625,-18.359375,-6.375
335,1695773881865,0.16430664,-0.96954346,-0.24249268,-16.390625,-32.125,-1.203125
336,1695773881905,-0.099365234,-0.9302368,-0.2991333,-12.40625,-33.125,-25.453125
337,1695773881945,-0.3659668,-0.8245239,-0.2107544,-26.25,-39.984375,-1.96875
338,1695773881985,-0.4074707,-0.5679321,-0.28741455,-41.625,-36.875,-10.171875
339,1695773882025,-0.49951172,-0.8545532,-0.28790283,-28.515625,-19.796875,-24.53125
340,1695773882086,-0.3720703,-1.0855103,-0.09234619,-25.625,-10.125,-11.5
341,1695773882105,-0.30688477,-1.0422974,-0.11846924,-23.875,-16.265625,19.234375
342,1695773882124,-0.28393555,-1.0142212,-0.12530518,-33.328125,-21.40625,25.515625
343,1695773882166,-0.35546875,-1.0310669,-0.05328369,-35.359375,13.921875,30.296875
344,1695773882205,-0.17407227,-0.92071533,0.04095459,5.578125,16.25,36.140625
345,1695773882245,-0.15527344,-0.6367798,0.1239624,11.34375,6.078125,51.640625
346,1695773882285,0.7858887,-0.49298096,-0.28668213,20.765625,-25.625,-4.125
347,1695773882327,0.40307617,-2.0,0.19207764,-2.6875,-45.578125,1.0
348,1695773882364,0.75146484,-1.1812134,-0.09185791,40.15625,45.859375,97.15625
349,1695773882405,-0.119384766,-0.5237427,0.5319214,-20.15625,-49.484375,29.046875
350,1695773882445,-1.2290039,-1.0928345,-0.49053955,0.3125,-48.3125,-24.78125
351,1695773882485,-0.3515625,-0.07281494,-0.44610596,7.9375,47.09375,-75.046875
352,1695773882525,0.77246094,-1.0027466,-0.46514893,39.765625,48.703125,-76.4375
353,1695773882565,0.39404297,-2.0,0.9335327,2.375,29.515625,-3.25
354,1695773882605,-0.00048828125,-0.7991333,-0.35357666,31.875,33.890625,48.375
355,1695773882645,-0.040527344,-0.7839966,-0.029846191,59.8125,41.40625,14.75
356,1695773882684,0.07104492,-0.48712158,-0.055725098,39.71875,15.84375,-21.890625
357,1695773882724,-0.10986328,-0.53790283,-0.35723877,-15.9375,10.1875,-64.1875
358,1695773882765,-0.30273438,-0.97052,-0.6174927,-53.65625,7.421875,-70.78125
359,1695773882806,-0.6333008,-1.6599731,-0.34405518,-6.46875,-13.90625,-24.5
360,1695773882846,-0.068359375,-1.6599731,0.0680542,79.84375,14.359375,18.78125
361,1695773882886,0.044433594,-0.93463135,-0.105285645,31.859375,55.375,18.609375
362,1695773882925,-0.15893555,-0.61676025,-0.60479736,-46.703125,4.53125,40.546875
363,1695773882965,-0.43774414,-0.34429932,-0.5786743,-28.828125,-37.984375,40.765625
364,1695773883005,-0.24243164,-0.96173096,0.01361084,-9.578125,-23.0,-11.71875
365,1695773883045,-0.009765625,-1.5830688,0.113708496,-14.6875,-1.609375,10.21875
366,1695773883085,-0.056884766,-0.83917236,-0.41119385,-34.1875,-10.59375,23.140625
367,1695773883125,-0.29492188,-0.8989868,-0.19708252,-42.328125,-41.71875,27.078125
368,1695773883165,0.18017578,-1.0579224,0.11199951,-35.140625,-14.71875,-2.0
369,1695773883208,0.1081543,-1.3147583,0.006286621,-30.15625,-14.359375,29.0
370,1695773883253,0.1538086,-0.72491455,-0.14117432,-3.109375,-25.953125,29.25
371,1695773883289,0.03540039,-0.7842407,-0.00982666,10.359375,14.265625,3.5
372,1695773883308,0.24902344,-0.93756104,-0.12261963,-2.015625,-17.359375,-12.890625
373,1695773883350,0.072021484,-0.9932251,0.113464355,-15.265625,-34.546875,-2.96875
374,1695773883387,-0.2043457,-0.90631104,0.23431396,9.046875,16.640625,-9.296875
375,1695773883426,-0.0390625,-0.8208618,-0.10211182,36.96875,28.09375,-26.40625
376,1695773883467,0.2253418,-0.6670532,-0.13848877,55.390625,7.671875,-23.28125
377,1695773883507,0.056640625,-0.6616821,-0.011291504,47.703125,18.0,-10.484375
378,1695773883546,-0.17260742,-0.5762329,-0.2420044,40.703125,31.734375,-5.78125
379,1695773883585,-0.35742188,-0.81695557,-0.49468994,10.640625,36.65625,-29.046875
380,1695773883625,-0.26586914,-1.204895,-0.57598877,9.4375,35.046875,-42.171875
381,1695773883665,0.13574219,-1.944397,-0.44439697,12.875,-30.859375,-24.28125
382,1695773883705,-0.2854004,-1.6792603,0.03314209,5.84375,-18.90625,-7.0625
383,1695773883748,-0.20141602,-0.6519165,-0.37017822,-14.609375,20.171875,1.3125
384,1695773883789,-0.38378906,-0.49786377,-0.5762329,3.203125,-29.71875,-15.5625
385,1695773883827,-0.46655273,-0.69317627,-0.38702393,-29.046875,-15.640625,0.09375
386,1695773883869,-0.055419922,-1.117981,-0.26446533,-8.859375,-9.5625,36.234375
387,1695773883910,-0.068847656,-1.0579224,-0.039611816,-1.03125,-1.03125,62.078125
388,1695773883948,0.13183594,-0.614563,-0.27545166,-15.5625,-15.328125,65.359375
389,1695773883987,-0.08911133,-0.6814575,-0.24468994,-17.734375,-43.015625,26.9375
390,1695773884027,-0.104003906,-0.7090454,-0.3814087,-30.625,-47.8125,10.015625
391,1695773884068,0.12133789,-0.69854736,-0.13140869,6.296875,6.03125,-17.09375
392,1695773884110,-0.083496094,-2.0,0.66741943,-77.09375,-81.6875,-7.59375
393,1695773884148,-0.099365234,-1.0239868,-0.24664307,-13.578125,55.890625,19.34375
394,1695773884190,0.1015625,-0.74835205,-0.24053955,5.828125,44.109375,1.71875
395,1695773884228,0.5253906,-0.47247314,-0.4343872,14.84375,-4.71875,-11.765625
396,1695773884269,0.7121582,-0.8167114,0.05316162,-20.25,-58.8125,-15.296875
397,1695773884311,0.21972656,-1.0376587,0.038024902,-29.84375,-14.640625,30.75
398,1695773884348,-0.21166992,-1.0747681,0.12713623,8.09375,-23.15625,16.640625
399,1695773884387,-0.07006836,-0.6572876,-0.027648926,32.8125,-3.625,-16.390625
400,1695773884426,0.14990234,-0.5454712,-0.09576416,3.59375,6.65625,-34.828125
401,1695773884470,0.07470703,-0.84161377,-0.050842285,9.84375,21.0625,-29.9375
402,1695773884527,-0.3137207,-0.94073486,0.043640137,4.21875,41.90625,-34.0
403,1695773884551,-0.40527344,-0.82403564,-0.3201294,3.796875,35.1875,-48.15625
404,1695773884568,-0.26953125,-1.0979614,-0.4055786,-2.8125,19.09375,-72.359375
405,1695773884610,-0.14868164,-1.675354,-0.1375122,46.796875,5.046875,-21.859375
406,1695773884650,-0.0859375,-1.0982056,0.043395996,32.5625,58.96875,9.6875
407,1695773884689,0.091552734,-0.7456665,-0.3526001,-5.5625,31.21875,32.015625
408,1695773884727,-0.20166016,-0.70025635,-0.44659424,-16.109375,-24.65625,8.546875
409,1695773884765,-0.26757812,-1.180481,-0.0020141602,4.203125,-8.0,-15.546875
410,1695773884807,-0.18603516,-1.2805786,-0.14215088,-19.828125,0.34375,25.953125
411,1695773884845,-0.28857422,-0.7283325,-0.37872314,-4.890625,-11.390625,24.15625
412,1695773884912,-0.43798828,-0.94244385,-0.1921997,-9.0625,-11.5625,-1.421875
413,1695773884928,-0.21142578,-0.8999634,-0.020324707,-10.09375,-4.625,14.484375
414,1695773884963,-0.047607422,-0.93096924,-0.06866455,-3.90625,-9.9375,29.296875
415,1695773885004,0.083740234,-0.86431885,-0.08892822,-8.828125,-9.96875,38.296875
416,1695773885044,0.2763672,-1.0193481,-0.13140869,0.609375,-32.59375,46.28125
417,1695773885085,-0.06542969,-0.8394165,-0.3670044,-29.53125,-65.421875,50.5
418,1695773885128,0.2536621,-0.8936157,0.032409668,9.609375,-14.234375,-10.984375
419,1695773885165,0.07910156,-1.5227661,0.2909546,-33.34375,-43.109375,35.984375
420,1695773885206,-0.099853516,-1.1314087,0.0028686523,-12.0,50.046875,6.453125
421,1695773885246,-0.3305664,-0.74835205,-0.40216064,-4.015625,33.34375,7.109375
422,1695773885285,0.16137695,-0.41558838,-0.39678955,22.265625,41.03125,-7.484375
423,1695773885328,0.73950195,-0.9404907,0.007019043,-12.90625,6.234375,-19.671875
424,1695773885367,0.75341797,-1.578186,0.12200928,-9.03125,17.0,10.703125
425,1695773885407,0.16015625,-1.005188,-0.022033691,5.53125,-23.859375,9.8125
426,1695773885448,0.22583008,-0.69732666,-0.0005493164,24.40625,-21.546875,-8.234375
427,1695773885487,0.40356445,-0.6411743,0.03338623,25.109375,-12.28125,-16.5625
428,1695773885531,0.4873047,-0.87701416,-0.06109619,-6.828125,-52.515625,-14.6875
429,1695773885564,0.22045898,-0.8897095,0.042419434,-19.671875,-68.6875,-23.9375
430,1695773885606,-0.118652344,-0.90289307,0.061950684,2.515625,-48.171875,-27.671875
431,1695773885647,-0.29418945,-0.925354,0.10614014,16.8125,-1.203125,-26.78125
432,1695773885689,-0.5048828,-0.86676025,-0.06427002,4.171875,27.265625,-31.359375
433,1695773885726,-0.37817383,-1.0962524,-0.48712158,-17.046875,20.34375,-55.875
434,1695773885766,-0.33203125,-1.2879028,-0.34454346,9.265625,13.640625,-52.34375
435,1695773885785,0.23461914,-1.4314575,0.2975464,41.625,41.4375,-21.0625
436,1695773885827,-0.13916016,-0.8960571,-0.0635376,-1.390625,62.03125,28.84375
437,1695773885867,-0.53466797,-0.60040283,-0.49127197,-21.65625,38.703125,33.875
438,1695773885907,-0.6003418,-0.54937744,-0.29327393,6.203125,35.53125,-33.75
439,1695773885947,-0.19628906,-1.1680298,-0.07720947,-17.90625,37.875,-44.484375
440,1695773885984,-0.17553711,-1.3213501,0.27923584,-1.4375,32.03125,-4.046875
441,1695773886024,-0.099853516,-1.1445923,-0.008361816,-14.0625,40.140625,16.203125
442,1695773886064,-0.3317871,-0.9993286,0.09197998,-25.09375,17.890625,34.078125
443,1695773886104,-0.03149414,-0.7966919,0.109069824,-2.125,9.875,42.1875
444,1695773886144,0.40234375,-1.0476685,-0.21343994,-2.328125,-16.671875,65.609375
445,1695773886186,0.6328125,-0.8989868,0.09857178,-1.765625,-60.296875,53.046875
446,1695773886226,0.35742188,-1.3875122,0.19866943,-15.109375,-37.78125,34.34375
447,1695773886264,-0.5827637,-0.96343994,0.55926514,14.015625,-59.90625,37.921875
448,1695773886304,0.06689453,-0.62091064,-0.62628174,-3.609375,-6.265625,-0.125
449,1695773886343,0.107666016,-0.65631104,-0.29180908,35.265625,-4.484375,25.296875
450,1695773886385,0.21826172,-0.70196533,0.09686279,29.34375,1.1875,10.609375
451,1695773886424,0.41577148,-0.99102783,0.08416748,-12.0,-19.09375,1.421875
452,1695773886464,0.07421875,-1.1377563,0.109069824,3.796875,35.71875,-4.234375
453,1695773886506,0.10229492,-0.9651489,-0.022033691,33.09375,43.4375,-12.8125
454,1695773886544,0.26000977,-0.82598877,-0.10235596,35.578125,23.421875,-0.75
455,1695773886584,0.3413086,-0.8440552,-0.22808838,42.625,19.109375,5.890625
456,1695773886626,0.16381836,-0.81329346,-0.13067627,51.59375,39.671875,3.34375
457,1695773886664,-0.16821289,-1.0210571,-0.11529541,31.265625,45.671875,-16.265625
458,1695773886704,-0.22460938,-0.8364868,-0.058898926,31.5,36.0625,-38.578125
459,1695773886745,0.040527344,-0.58135986,-0.24127197,-15.296875,38.109375,-97.765625
460,1695773886784,0.25927734,-1.2058716,-0.49639893,38.3125,46.234375,-41.859375
461,1695773886824,0.15942383,-2.0,-0.67803955,20.75,-63.953125,-42.765625
462,1695773886873,0.032958984,-1.2527466,-0.013244629,-9.140625,18.25,41.515625
463,1695773886905,-0.0690918,-0.5779419,-0.62335205,-28.984375,0.703125,33.765625
464,1695773886945,-0.82666016,-0.5366821,-0.6243286,-27.34375,-27.453125,0.53125
465,1695773886984,-0.48168945,-0.4085083,-0.08746338,-41.75,-16.015625,-48.234375
466,1695773887006,-0.2397461,-1.1450806,-0.06304932,-52.0625,-23.296875,-21.890625
467,1695773887044,-0.037353516,-1.1296997,-0.19268799,-32.71875,3.296875,18.140625
468,1695773887086,0.11767578,-1.0991821,0.07928467,-27.671875,-40.296875,33.875
469,1695773887127,0.18237305,-0.94244385,-0.24029541,-42.796875,-56.28125,54.046875
470,1695773887167,-0.3095703,-0.66070557,-0.5510864,-82.90625,-60.421875,46.53125
471,1695773887208,0.114990234,-1.5803833,0.5946655,33.34375,-33.875,20.3125
472,1695773887248,-0.061767578,-1.2901001,0.08416748,-14.984375,-22.625,40.5
473,1695773887286,-0.16308594,-0.9002075,0.15252686,-11.65625,45.421875,-4.015625
474,1695773887326,-0.26098633,-0.536438,-0.12628174,-23.90625,1.078125,-34.875
475,1695773887368,0.19946289,-0.659729,-0.028381348,2.234375,8.5625,-45.390625
476,1695773887408,0.59814453,-1.3753052,0.5409546,-22.375,2.234375,-10.8125
477,1695773887449,0.27978516,-1.0337524,-0.078186035,19.125,16.25,26.109375
478,1695773887488,-0.10961914,-0.6843872,0.04901123,20.6875,20.4375,-2.5625
479,1695773887526,-0.18310547,-0.6453247,0.04437256,9.984375,17.265625,-38.734375
480,1695773887565,0.059326172,-0.7727661,0.10028076,18.046875,26.296875,-54.171875
481,1695773887608,0.13574219,-1.1050415,0.23187256,16.25,24.625,-38.109375
482,1695773887647,-0.0056152344,-0.9199829,-0.18218994,-3.015625,19.453125,-24.015625
483,1695773887686,-0.42504883,-1.2068481,-0.43585205,9.421875,-28.28125,2.53125
484,1695773887727,-0.8166504,-1.2532349,-0.21807861,46.09375,24.875,-12.015625
485,1695773887766,-0.29125977,-0.788147,0.024108887,52.28125,70.109375,-38.84375
486,1695773887807,-0.011962891,-0.86602783,-0.11016846,41.71875,56.578125,-12.875
487,1695773887849,0.2548828,-0.81500244,-0.31744385,-21.765625,-13.5,-11.578125
488,1695773887886,0.19482422,-1.3496704,-0.16607666,-33.5625,-45.3125,11.046875
489,1695773887926,-0.37597656,-1.4717407,0.15472412,-13.1875,-11.515625,65.0625
490,1695773887966,-0.6582031,-0.8970337,-0.15924072,12.734375,8.609375,58.171875
491,1695773888006,-0.39135742,-0.5791626,-0.19537354,-0.515625,-9.90625,6.984375
492,1695773888045,-0.11376953,-0.7901001,-0.05645752,-29.8125,-23.3125,-4.3125
493,1695773888088,0.2163086,-0.9985962,-0.2498169,-32.96875,-36.0,2.234375
494,1695773888125,0.2368164,-1.8296509,0.21478271,-43.59375,-79.625,16.359375
495,1695773888165,0.06933594,-1.53302,0.17913818,-9.375,9.40625,69.71875
496,1695773888205,-0.5690918,-0.85821533,0.055603027,-35.0625,-24.890625,37.890625
497,1695773888226,-0.27197266,-0.58795166,-0.0005493164,7.421875,35.5625,-14.078125
498,1695773888266,0.19677734,-0.51275635,-0.18023682,4.3125,18.625,-16.890625
499,1695773888307,0.49145508,-1.055481,0.23236084,-35.28125,-32.046875,-1.09375
500,1695773888347,0.3305664,-1.1746216,0.14715576,-30.203125,-23.796875,22.953125
501,1695773888391,-0.0769043,-0.87384033,0.17596436,2.296875,15.796875,8.953125
502,1695773888429,-0.1694336,-0.69537354,0.07977295,24.75,35.0,-17.9375
503,1695773888477,-0.038330078,-0.6555786,-0.0056762695,39.640625,41.828125,-29.171875
504,1695773888508,0.13598633,-0.9846802,0.0060424805,34.96875,24.734375,-20.109375
505,1695773888548,0.061279297,-1.0042114,0.043640137,42.125,37.734375,-5.203125
506,1695773888586,-0.07055664,-0.8616333,0.02532959,68.46875,60.84375,14.078125
507,1695773888628,-0.022216797,-0.569397,-0.105529785,41.390625,47.453125,-0.96875
508,1695773888665,0.042236328,-0.6152954,-0.2420044,14.078125,28.15625,-40.640625
509,1695773888704,-0.009521484,-0.89630127,-0.26885986,10.46875,33.5625,-53.359375
510,1695773888744,0.27197266,-2.0,-1.131897,20.546875,-81.359375,-78.296875
511,1695773888785,-0.47338867,-1.3306274,0.137146,-4.71875,16.96875,38.625
512,1695773888823,-0.051757812,-0.30621338,-0.5186157,-15.984375,27.90625,45.328125
513,1695773888864,-0.5864258,-0.3106079,-0.4368286,36.3125,-21.859375,-17.234375
514,1695773888904,-0.35668945,-0.6296997,-0.2637329,-23.265625,-9.4375,-22.484375
515,1695773888944,-0.036376953,-1.1643677,-0.19854736,-55.078125,-12.265625,-0.53125
516,1695773888984,-0.1665039,-1.1067505,-0.1350708,-21.53125,-19.140625,27.1875
517,1695773889024,-0.06640625,-0.73809814,-0.1453247,5.796875,-2.0,38.140625
518,1695773889064,-0.09692383,-0.6670532,-0.3147583,-53.859375,-32.515625,5.9375
519,1695773889105,0.19946289,-1.2593384,-0.31011963,-34.640625,-29.359375,-4.5625
520,1695773889144,0.3864746,-2.0,0.60028076,-11.234375,-53.09375,47.671875
521,1695773889185,-0.040527344,-0.75787354,-0.14678955,-11.828125,26.875,37.546875
522,1695773889223,-0.051757812,-0.49908447,-0.20562744,-5.4375,-13.390625,8.46875
523,1695773889264,0.017822266,-0.15118408,-0.21270752,-17.953125,-67.328125,-29.4375
524,1695773889307,0.578125,-0.62164307,0.0026245117,-37.890625,-67.03125,-37.375
525,1695773889344,0.6972656,-1.850647,0.47406006,-14.046875,-30.265625,27.5625
526,1695773889386,-0.14672852,-1.0725708,0.0848999,21.453125,-55.953125,54.65625
527,1695773889444,-0.15698242,-0.5767212,0.097351074,19.296875,-43.015625,24.921875
528,1695773889447,-0.26293945,-0.54766846,0.09246826,15.625,0.671875,-10.140625
529,1695773889484,-0.4086914,-0.62994385,0.017028809,24.890625,35.265625,-44.09375
530,1695773889524,-0.2861328,-0.75494385,-0.347229,18.765625,55.5,-77.125
531,1695773889564,-0.026367188,-1.2842407,-0.4031372,7.40625,43.75,-71.71875
532,1695773889605,-0.11303711,-1.6792603,-0.21368408,-0.546875,1.40625,-24.859375
533,1695773889647,-0.17016602,-1.2922974,-0.055236816,31.953125,43.71875,-17.859375
534,1695773889685,-0.19506836,-1.0637817,0.062927246,33.1875,80.84375,33.703125
535,1695773889723,-0.07763672,-0.5132446,-0.53741455,2.09375,18.125,32.015625
536,1695773889768,-0.34204102,-0.90045166,-0.26055908,-16.609375,-5.875,-44.734375
537,1695773889804,-0.2800293,-1.196106,-0.028381348,2.359375,15.859375,-25.609375
538,1695773889845,-0.111816406,-1.27594,0.017028809,3.96875,18.3125,6.609375
539,1695773889884,0.025878906,-0.9373169,-0.14093018,-3.375,2.84375,35.40625
540,1695773889926,0.052734375,-0.9055786,0.18450928,16.046875,-5.140625,63.578125
541,1695773889965,0.18652344,-0.7293091,-0.3953247,-21.546875,-31.515625,72.84375
542,1695773890005,-0.13305664,-0.45562744,-0.5039673,-59.640625,-67.171875,29.4375
543,1695773890045,0.7451172,-1.9651489,0.16473389,-25.078125,-70.0625,-44.15625
544,1695773890085,-0.025878906,-1.3001099,0.4508667,-6.421875,-9.890625,39.390625
545,1695773890125,-0.38012695,-1.045227,-0.11553955,-36.421875,1.796875,-0.296875
546,1695773890164,-0.5383301,-0.48931885,-0.27374268,-9.75,-9.984375,-16.6875
547,1695773890205,0.22949219,-0.3682251,-0.25860596,36.40625,20.375,-15.453125
548,1695773890245,0.6748047,-1.3389282,0.4442749,-29.9375,-31.0,-1.0625
549,1695773890287,0.45361328,-1.140686,-0.1987915,-4.515625,2.890625,45.984375
550,1695773890324,-0.114746094,-0.8543091,0.3739624,5.71875,-12.734375,-0.96875
551,1695773890365,0.02734375,-0.7481079,0.078552246,11.625,4.40625,-32.0
552,1695773890404,0.14697266,-0.7822876,0.070251465,14.546875,-6.421875,-34.390625
553,1695773890445,0.24072266,-1.1065063,0.21038818,9.359375,-9.921875,-18.34375
554,1695773890485,0.05102539,-0.83721924,0.14398193,14.421875,-5.875,-3.703125
555,1695773890525,-0.1484375,-0.8171997,0.1918335,17.03125,2.203125,-22.4375
556,1695773890564,-0.39746094,-0.76519775,-0.17510986,15.6875,16.671875,-39.8125
557,1695773890605,-0.46118164,-1.0305786,-0.56207275,-8.4375,6.546875,-44.34375
558,1695773890666,-0.6945801,-1.0913696,-0.30523682,14.03125,-1.46875,-25.4375
559,1695773890685,-0.114746094,-1.5112915,-0.16436768,38.765625,30.3125,-41.78125
560,1695773890704,0.064208984,-1.2891235,0.27020264,54.0,64.546875,15.671875
561,1695773890744,0.0068359375,-0.7276001,-0.31280518,2.0625,40.046875,48.765625
562,1695773890784,-0.17993164,-0.6709595,-0.40460205,-16.453125,-9.15625,21.046875
563,1695773890824,-0.50805664,-1.0379028,-0.04058838,13.3125,9.90625,7.21875
564,1695773890865,-0.30517578,-0.98223877,-0.093811035,-26.15625,1.234375,-1.03125
565,1695773890905,-0.21044922,-1.0332642,0.0014038086,11.625,4.828125,6.640625
566,1695773890945,0.096191406,-0.86676025,0.026306152,5.578125,2.5,34.3125
567,1695773890985,0.1899414,-0.9558716,-0.3640747,-28.140625,-16.78125,58.5
568,1695773891024,0.3779297,-0.8735962,-0.39556885,-8.484375,-43.484375,53.375
569,1695773891066,0.6677246,-1.9797974,0.31414795,-38.640625,-86.75,-10.09375
570,1695773891106,-0.40942383,-1.2024536,0.28363037,-24.4375,-37.734375,9.59375
571,1695773891144,-0.4272461,-1.2156372,-0.069885254,-16.234375,30.03125,-41.8125
572,1695773891186,-0.24365234,-0.43463135,-0.29718018,0.265625,15.171875,-11.953125
573,1695773891226,0.55249023,-0.48590088,-0.19268799,16.984375,-30.875,-8.765625
574,1695773891266,0.517334,-1.3357544,0.5910034,-44.484375,-65.796875,29.171875
575,1695773891305,0.20288086,-0.8345337,-0.23370361,-36.0625,-47.15625,37.140625
576,1695773891345,-0.10205078,-0.9727173,0.28045654,11.890625,-12.625,3.0625
577,1695773891385,0.0012207031,-0.7595825,0.18035889,11.234375,-1.8125,-14.546875
578,1695773891426,0.15063477,-0.80181885,0.12054443,9.296875,-1.890625,-21.234375
579,1695773891465,0.13647461,-0.9873657,0.13348389,1.53125,-15.265625,-13.296875
580,1695773891506,-0.017578125,-0.82476807,0.2098999,0.28125,-12.90625,-7.59375
581,1695773891545,-0.064697266,-0.91973877,0.2597046,5.703125,7.03125,-19.5
582,1695773891585,-0.1616211,-0.93707275,0.20599365,9.015625,11.640625,-38.4375
583,1695773891625,-0.3076172,-1.1467896,0.070007324,5.75,27.375,-50.328125
584,1695773891666,-0.60961914,-1.2212524,-0.20343018,-13.921875,22.1875,-47.640625
585,1695773891706,-0.23925781,-1.0547485,-0.13677979,9.15625,24.84375,-40.515625
586,1695773891745,-0.14941406,-0.88897705,0.1539917,61.84375,50.546875,9.765625
587,1695773891784,0.20019531,-0.8718872,-0.121398926,25.390625,25.765625,17.03125
588,1695773891824,0.10131836,-1.2192993,-0.1338501,-35.078125,-27.484375,15.109375
589,1695773891865,-0.24975586,-1.1150513,-0.051574707,-3.65625,-17.859375,39.015625
590,1695773891885,-0.545166,-1.1731567,0.07684326,6.234375,-8.203125,18.0625
591,1695773891924,-0.34423828,-0.7168579,-0.06378174,14.6875,11.015625,19.171875
592,1695773891965,-0.12182617,-0.7359009,-0.049621582,10.953125,-3.796875,20.875
593,1695773892005,0.05493164,-0.7258911,-0.05255127,-5.796875,-9.296875,26.984375
594,1695773892044,-0.04736328,-1.1404419,-0.081848145,-49.875,-30.828125,28.859375
595,1695773892085,-0.09643555,-1.7930298,0.8287964,-19.34375,-31.390625,23.21875
596,1695773892126,-0.33203125,-1.1360474,-0.04473877,-21.640625,27.96875,29.53125
597,1695773892165,-0.3425293,-0.7295532,0.054382324,3.09375,71.765625,-19.234375
598,1695773892207,0.16235352,-0.6321411,-0.20928955,42.734375,68.703125,-3.5
599,1695773892249,0.59350586,-0.71051025,-0.2312622,7.609375,-4.15625,-1.015625
600,1695773892287,0.61816406,-1.3171997,0.3756714,-47.59375,-25.828125,12.625
601,1695773892328,0.21435547,-1.1306763,0.15106201,-31.515625,-2.90625,17.421875
602,1695773892368,-0.3076172,-1.1243286,0.24603271,32.078125,38.578125,-10.34375
603,1695773892411,0.016601562,-0.7217407,-0.0134887695,13.53125,12.171875,-26.75
604,1695773892448,0.27929688,-0.7505493,0.0026245117,10.84375,-0.140625,-28.484375
605,1695773892488,0.31518555,-1.0151978,0.18084717,9.09375,2.5625,-15.21875
606,1695773892527,0.16967773,-0.91192627,0.02166748,-0.671875,-3.484375,-0.34375
607,1695773892566,0.11206055,-0.88238525,0.16595459,16.921875,-7.21875,-7.28125
608,1695773892605,0.1081543,-0.86920166,0.15716553,16.34375,1.015625,-29.0625
609,1695773892644,0.02758789,-0.8406372,0.13250732,10.890625,9.46875,-23.015625
610,1695773892684,-0.1899414,-0.9819946,-0.4570923,-18.53125,-17.296875,-22.90625
611,1695773892724,-1.0083008,-1.43927,-0.00079345703,3.25,-19.03125,-10.28125
612,1695773892764,-0.35742188,-1.2581177,0.014587402,56.265625,49.703125,-34.71875
613,1695773892804,0.09326172,-0.94122314,-0.13580322,45.359375,50.390625,-10.1875
614,1695773892845,0.20166016,-0.5742798,-0.3189087,20.359375,13.015625,-14.71875
615,1695773892884,-0.11279297,-0.94122314,-0.5149536,-21.890625,-52.015625,3.875
616,1695773892924,-0.49145508,-1.286438,0.07757568,-15.265625,-31.21875,37.578125
617,1695773892965,-0.390625,-1.3084106,0.06072998,34.140625,18.96875,50.515625
618,1695773893004,-0.12402344,-0.56573486,-0.33770752,-1.75,-1.859375,34.984375
619,1695773893044,0.026367188,-0.6699829,-0.24615479,-16.6875,-21.046875,10.65625
620,1695773893106,0.14428711,-1.0454712,-0.36260986,-21.15625,-57.96875,19.390625
621,1695773893124,0.015136719,-1.536438,0.18426514,-26.484375,-41.03125,30.828125
622,1695773893144,0.20800781,-1.2402954,0.24920654,1.265625,17.515625,37.765625
623,1695773893184,-0.32055664,-0.8616333,-0.22540283,-34.9375,-13.46875,8.796875
624,1695773893225,-0.23364258,-0.6045532,-0.046691895,0.03125,31.890625,-31.1875
625,1695773893265,0.047851562,-0.6030884,-0.26617432,12.9375,56.625,-25.0
626,1695773893304,0.7668457,-1.0003052,-0.2522583,-6.46875,-0.46875,-18.125
627,1695773893345,0.6916504,-1.4932251,0.26776123,-16.859375,-14.40625,31.078125
628,1695773893386,0.111328125,-0.956604,0.07220459,-21.234375,-8.609375,33.375
629,1695773893424,-0.29418945,-1.015686,0.14837646,-1.734375,-8.6875,-2.90625
630,1695773893466,-0.053710938,-0.6897583,-0.061584473,13.984375,14.78125,-36.234375
631,1695773893504,0.25317383,-0.8152466,-0.04425049,27.65625,17.859375,-25.578125
632,1695773893544,0.21313477,-0.9258423,0.10443115,10.0625,8.390625,-13.796875
633,1695773893586,0.19726562,-0.79815674,-0.028869629,0.734375,-4.484375,-14.09375
634,1695773893624,-0.08569336,-0.7515259,0.059753418,1.71875,4.515625,-17.046875
635,1695773893665,-0.2631836,-0.79937744,-0.21417236,21.234375,14.0625,-43.96875
636,1695773893704,-0.2290039,-1.2710571,-0.47564697,-6.265625,-15.9375,-53.171875
637,1695773893745,-0.11767578,-1.5510864,-0.09649658,13.71875,-32.1875,-25.78125
638,1695773893786,-0.19238281,-1.1775513,0.0836792,32.71875,19.59375,-10.5625
639,1695773893825,-0.17651367,-0.8748169,-0.26397705,10.078125,27.609375,7.578125
640,1695773893865,-0.20385742,-0.60406494,-0.552063,-19.203125,-25.71875,15.890625
641,1695773893908,-0.49047852,-0.9834595,-0.2822876,-21.78125,-33.78125,-12.359375
642,1695773893948,-0.4230957,-1.4255981,0.07537842,-8.984375,2.5625,-14.109375
643,1695773893991,-0.19189453,-0.97052,-0.15533447,9.625,27.796875,6.515625
644,1695773894026,-0.16210938,-0.6951294,-0.37530518,-11.6875,-11.484375,16.3125
645,1695773894066,-0.13598633,-0.77545166,-0.13067627,-26.125,-19.265625,21.296875
646,1695773894109,0.028076172,-0.9656372,-0.028137207,-21.59375,-20.15625,22.0625
647,1695773894149,0.020996094,-0.89434814,-0.03253174,-19.671875,-38.015625,32.421875
648,1695773894185,-0.14111328,-1.0269165,-0.15093994,-42.515625,-42.65625,13.953125
649,1695773894226,0.30810547,-1.68927,0.6256714,-18.28125,-69.78125,5.203125
650,1695773894268,0.12841797,-1.4973755,0.1708374,-20.765625,19.609375,60.4375
651,1695773894308,-0.6130371,-0.84820557,-0.2871704,-64.109375,-28.953125,35.71875
652,1695773894347,-0.86328125,-0.23394775,-0.1350708,0.34375,22.890625,-9.0
653,1695773894367,0.28637695,-0.34527588,-0.17144775,19.671875,46.125,-0.390625
654,1695773894408,0.92944336,-1.242981,0.7037964,-25.640625,-1.046875,-9.0625
655,1695773894449,0.6315918,-1.4109497,-0.0017700195,-13.734375,-12.0625,42.640625
656,1695773894488,-0.09375,-0.8049927,0.09466553,-5.515625,13.671875,17.78125
657,1695773894529,-0.13964844,-0.6682739,0.17230225,28.234375,20.828125,-12.625
658,1695773894568,0.13110352,-0.87994385,0.18475342,9.25,7.875,-31.84375
659,1695773894605,0.5305176,-1.2859497,0.28240967,9.046875,8.578125,-20.515625
660,1695773894648,0.23925781,-0.954895,0.15838623,19.140625,14.828125,1.671875
661,1695773894686,0.13183594,-0.79937744,0.18963623,35.15625,9.125,1.75
662,1695773894726,0.024169922,-0.72735596,0.14447021,11.875,6.890625,-11.328125
663,1695773894766,-0.061035156,-0.7371216,0.13226318,8.15625,17.96875,-29.703125
664,1695773894807,-0.11230469,-0.7654419,0.11224365,15.28125,29.921875,-44.390625
665,1695773894846,-0.40722656,-0.8413696,-0.37164307,-8.578125,39.90625,-60.015625
666,1695773894886,-0.26660156,-1.3262329,-0.6658325,-28.046875,9.375,-56.703125
667,1695773894934,-0.18603516,-2.0,-0.057434082,40.84375,-47.46875,-10.421875
668,1695773894964,0.07348633,-1.3467407,0.9406128,75.703125,71.40625,-4.0
669,1695773895005,0.11791992,-0.7962036,-0.031555176,-3.546875,46.375,52.265625
670,1695773895045,-0.20141602,-0.31549072,-0.7554321,-60.09375,-78.75,8.9375
671,1695773895084,-0.88549805,-0.83551025,-0.17999268,-20.796875,-43.546875,-47.125
672,1695773895127,-0.38427734,-1.3113403,0.14935303,-12.953125,31.546875,-49.0
673,1695773895164,-0.34887695,-1.0635376,0.08880615,13.1875,31.625,-15.953125
674,1695773895204,-0.1003418,-0.81988525,-0.36383057,14.703125,24.0625,-5.484375
675,1695773895245,-0.13476562,-0.7888794,-0.12237549,13.71875,1.890625,31.1875
676,1695773895285,-0.22460938,-0.7246704,-0.14385986,3.328125,-15.578125,44.3125
677,1695773895326,-0.21606445,-0.77301025,-0.10333252,25.578125,8.734375,30.15625
678,1695773895365,-0.15161133,-0.86920166,-0.10797119,11.046875,-0.875,9.625
679,1695773895406,0.040039062,-1.2078247,-0.062072754,-26.921875,-38.078125,18.265625
680,1695773895445,0.1381836,-1.6228638,-0.16168213,-15.34375,-44.203125,64.578125
681,1695773895486,0.37841797,-1.4509888,0.44647217,17.1875,-18.140625,50.03125
682,1695773895524,-0.4099121,-1.0159302,-0.082336426,-55.9375,-12.75,40.96875
683,1695773895565,-1.1054688,-0.82110596,0.1539917,-30.046875,14.0,-29.359375
684,1695773895586,-0.35375977,-0.35968018,-0.22027588,11.625,88.625,-38.8125
685,1695773895625,0.58325195,-0.8713989,-0.40826416,-13.53125,41.359375,-4.046875
686,1695773895665,1.1940918,-2.0,0.9430542,-37.21875,23.421875,27.5
687,1695773895705,0.11816406,-0.59820557,-0.09649658,-48.734375,-38.765625,63.40625
688,1695773895745,-0.39111328,-1.0337524,0.2904663,-10.578125,16.140625,7.21875
689,1695773895785,-0.41088867,-0.80841064,0.09295654,9.765625,62.84375,-38.09375
690,1695773895825,-0.01953125,-0.70513916,-0.12530518,20.921875,97.921875,-46.390625
691,1695773895865,0.10253906,-0.770813,-0.12261963,16.640625,89.3125,-31.8125
692,1695773895906,0.12109375,-0.61798096,-0.21783447,30.40625,88.0625,-17.828125
693,1695773895945,-0.071777344,-0.6157837,-0.09893799,28.28125,88.328125,-17.75
694,1695773895985,-0.18237305,-0.769104,-0.38653564,12.0625,85.5625,-47.921875
695,1695773896025,-0.48046875,-1.3027954,-0.70806885,-4.578125,89.890625,-60.5625
696,1695773896065,0.029052734,-1.9646606,-0.012512207,67.84375,42.0625,-34.03125
697,1695773896105,-0.33911133,-1.281311,-0.046203613,85.65625,120.828125,35.265625
698,1695773896145,-0.006591797,-0.7554321,-0.4932251,-9.59375,71.078125,40.90625
699,1695773896185,-0.08154297,-0.20269775,-0.45391846,14.34375,-15.703125,46.71875
700,1695773896225,-0.015136719,-0.49127197,-0.3345337,26.0,-0.8125,-1.171875
701,1695773896265,-0.32617188,-1.1560669,-0.061828613,-14.328125,-4.625,7.28125
702,1695773896305,-0.27783203,-1.342102,-0.10650635,-19.8125,-7.921875,8.53125
703,1695773896346,-0.13574219,-1.1499634,-0.26617432,7.09375,17.609375,10.9375
704,1695773896384,-0.020019531,-1.3782349,-0.113342285,-3.203125,28.921875,49.421875
705,1695773896425,-0.017333984,-1.2671509,-0.0803833,-59.203125,16.1875,47.765625
706,1695773896465,-0.43896484,-0.9055786,-0.21124268,-29.015625,41.0,68.5625
707,1695773896505,-0.22167969,-0.5420532,0.007751465,9.359375,46.875,6.984375
708,1695773896544,0.16381836,-0.8303833,-0.09307861,-21.5625,34.078125,-12.734375
709,1695773896585,0.22875977,-1.2749634,-0.047912598,-105.140625,5.265625,9.75
710,1695773896625,0.12939453,-1.050354,0.0770874,-28.21875,35.953125,62.203125
711,1695773896665,-0.068115234,-1.0527954,0.06756592,-5.25,49.171875,38.6875
712,1695773896705,0.043945312,-0.75079346,-0.057434082,-21.421875,46.3125,14.890625
713,1695773896745,0.2019043,-0.7053833,0.1305542,-18.96875,54.984375,-2.15625
714,1695773896785,0.2902832,-0.95147705,-0.0051879883,-20.46875,46.25,-19.921875
715,1695773896807,0.30371094,-1.0005493,0.12713623,-4.109375,33.5625,-10.78125
716,1695773896846,0.22192383,-1.052063,0.13201904,4.921875,50.96875,1.734375
717,1695773896885,0.11035156,-0.991272,0.081970215,-6.671875,34.5625,-5.296875
718,1695773896925,0.084228516,-0.90997314,0.1071167,3.859375,47.15625,-20.5
719,1695773896966,0.13745117,-0.85601807,0.012390137,10.78125,59.71875,-27.484375
720,1695773897005,0.052001953,-0.87213135,0.01751709,5.765625,45.609375,-28.734375
721,1695773897046,0.01953125,-0.84698486,0.035095215,13.28125,58.671875,-30.9375
722,1695773897085,-0.040039062,-0.7715454,-0.03326416,21.40625,64.828125,-36.578125
723,1695773897125,-0.10913086,-0.8179321,-0.085510254,11.484375,53.703125,-57.203125
724,1695773897168,-0.14746094,-0.89556885,-0.3135376,-21.1875,49.75,-46.734375
725,1695773897205,0.056884766,-1.6072388,-0.35772705,-5.78125,-5.71875,-20.328125
726,1695773897244,-0.25585938,-1.638977,0.45672607,69.3125,17.984375,4.984375
727,1695773897285,-0.234375,-0.9595337,-0.16680908,30.34375,68.53125,16.75
728,1695773897325,-0.8288574,-0.49005127,-0.5684204,-21.265625,-0.984375,-0.9375
729,1695773897365,-0.5234375,-0.2053833,-0.3345337,1.625,28.890625,-33.328125
730,1695773897405,-0.005126953,-1.2617798,-0.23712158,-18.375,-4.1875,-0.59375
731,1695773897446,-0.046875,-1.5632935,0.14666748,6.28125,22.484375,43.109375
732,1695773897484,0.08276367,-1.0291138,0.008972168,9.359375,20.03125,58.421875
733,1695773897526,-0.12695312,-0.7974243,-0.20611572,-28.15625,-29.828125,61.75
734,1695773897564,-0.41064453,-0.8088989,-0.28619385,-36.828125,-28.15625,51.953125
735,1695773897605,-0.34399414,-0.72857666,0.10467529,10.734375,28.984375,21.921875
736,1695773897645,0.24169922,-1.6211548,-0.030090332,-35.3125,3.421875,-22.640625
737,1695773897684,-0.25439453,-1.3206177,0.43499756,-17.3125,39.109375,-8.390625
738,1695773897725,0.026367188,-0.9631958,-0.028869629,-10.171875,70.703125,3.921875
739,1695773897765,0.21850586,-0.57525635,-0.29083252,7.1875,30.5625,8.140625
740,1695773897806,0.44580078,-0.8352661,-0.0154418945,-2.8125,-3.75,16.28125
741,1695773897845,0.5078125,-1.0808716,0.19207764,-28.4375,-5.6875,26.9375
742,1695773897885,0.076171875,-1.0508423,0.2538452,-16.515625,-29.3125,3.359375
743,1695773897926,-0.13793945,-0.99957275,0.27191162,15.859375,12.046875,-16.765625
744,1695773897964,0.09082031,-0.78619385,-0.04034424,10.421875,9.890625,-15.296875
745,1695773898025,0.25341797,-0.8010864,0.04876709,23.125,11.71875,-4.46875
746,1695773898028,0.11767578,-0.8027954,0.08294678,24.96875,10.15625,9.046875
747,1695773898066,-0.24145508,-0.7925415,0.16546631,-7.46875,-2.1875,-18.4375
748,1695773898105,-0.43408203,-0.81744385,0.18817139,15.0625,33.234375,-60.765625
749,1695773898145,-0.39526367,-1.0515747,-0.35894775,-10.21875,35.984375,-81.28125
750,1695773898184,-0.2927246,-1.0344849,-0.46051025,0.765625,7.96875,-53.46875
751,1695773898224,-0.08276367,-1.7700806,-0.24908447,42.828125,2.703125,-23.796875
752,1695773898266,-0.16479492,-1.2141724,0.41278076,38.625,72.203125,-4.28125
753,1695773898306,-0.115478516,-1.0344849,-0.14117432,-17.921875,23.390625,27.34375
754,1695773898344,-0.25805664,-0.6445923,-0.3916626,-4.765625,-9.15625,28.671875
755,1695773898385,-0.51831055,-1.0186157,-0.004699707,8.015625,-0.28125,-0.40625
756,1695773898424,-0.44262695,-0.94976807,-0.05670166,-6.203125,12.65625,11.375
757,1695773898465,-0.35229492,-0.8272095,-0.18682861,-6.046875,10.171875,7.40625
758,1695773898505,-0.33081055,-0.954895,-0.035705566,-10.515625,3.703125,-0.984375
759,1695773898544,-0.28344727,-1.0588989,0.09197998,-13.84375,8.578125,15.015625
760,1695773898584,-0.119140625,-0.9898071,-0.008361816,-15.421875,3.265625,26.234375
761,1695773898624,-0.06225586,-0.77178955,0.0033569336,-7.171875,-3.578125,37.296875
762,1695773898666,-0.1159668,-0.9151001,-0.15557861,-44.078125,-32.265625,39.125
763,1695773898705,-0.19677734,-0.9121704,0.18670654,21.90625,-16.5625,37.578125
764,1695773898745,0.39111328,-1.6104126,0.2802124,-5.828125,9.078125,7.546875
765,1695773898784,-0.028076172,-1.0093384,0.07904053,-12.015625,7.109375,9.265625
766,1695773898825,0.035888672,-0.84161377,-0.012756348,8.703125,32.515625,-2.234375
767,1695773898868,0.21850586,-0.6777954,-0.11090088,11.953125,-5.796875,10.46875
768,1695773898905,0.44140625,-0.9126587,0.078552246,2.890625,-29.796875,3.1875
769,1695773898946,0.42456055,-1.234436,0.14056396,-22.71875,-38.671875,14.84375
770,1695773898984,-0.022949219,-1.1008911,0.18377686,4.546875,-29.546875,12.96875
771,1695773899025,-0.03125,-0.86260986,0.09246826,39.421875,5.390625,-4.171875
772,1695773899065,-0.051513672,-0.8049927,0.0836792,28.84375,0.75,-2.765625
773,1695773899106,0.025878906,-0.6865845,0.042907715,23.15625,4.59375,-10.390625
774,1695773899144,-0.13647461,-0.7473755,0.0524292,12.0625,21.0625,-27.453125
775,1695773899186,-0.2763672,-0.6848755,0.08123779,36.203125,43.078125,-46.59375
776,1695773899245,-0.17456055,-0.7835083,-0.2937622,12.328125,33.140625,-74.375
777,1695773899265,-0.051513672,-1.296936,-0.6116333,-59.546875,6.8125,-71.46875
778,1695773899284,-0.2626953,-2.0,0.1630249,58.03125,-84.171875,19.109375
779,1695773899365,-0.18359375,-1.2354126,0.1593628,53.734375,71.28125,28.34375
780,1695773899369,-0.29345703,-0.4570923,-0.5432739,-12.828125,23.03125,44.75
781,1695773899405,-0.7312012,-0.32403564,-0.4817505,-31.953125,-26.375,-32.96875
782,1695773899447,-0.29760742,-0.9439087,-0.1951294,-10.765625,13.421875,-29.9375
783,1695773899484,-0.16064453,-1.3828735,0.18548584,-24.390625,9.203125,11.921875
784,1695773899525,-0.45239258,-1.0125122,-0.124572754,0.453125,59.78125,32.859375
785,1695773899566,-0.3630371,-0.57159424,-0.41168213,-2.796875,11.671875,4.0
786,1695773899605,-0.29345703,-0.9067993,0.08685303,-15.6875,1.734375,-15.953125
787,1695773899645,-0.02368164,-0.96881104,0.10687256,-15.234375,14.53125,10.0
788,1695773899686,0.125,-0.87091064,-0.15631104,-17.109375,-10.6875,26.0625
789,1695773899726,0.030273438,-1.0977173,-0.093566895,-21.078125,-17.671875,32.0
790,1695773899765,0.2541504,-1.3984985,0.17449951,-12.125,-23.109375,36.046875
791,1695773899806,-0.0043945312,-1.1904907,0.06854248,-23.640625,-19.296875,49.765625
792,1695773899846,-0.19628906,-0.87213135,0.06512451,-4.765625,-0.828125,19.921875
793,1695773899884,-0.014404297,-0.6260376,-0.014465332,17.6875,9.8125,-7.140625
794,1695773899925,0.14208984,-0.77056885,-0.022277832,-12.75,-27.390625,-23.859375
795,1695773899965,0.30737305,-1.3289185,0.36444092,-36.28125,-47.609375,-11.375
796,1695773900004,0.15063477,-1.2251587,0.1828003,-5.15625,-8.53125,12.890625
797,1695773900045,-0.0024414062,-0.8291626,0.11566162,32.625,-10.125,10.21875
798,1695773900105,0.014404297,-0.6465454,0.08538818,26.265625,-11.140625,-10.1875
799,1695773900126,-0.1352539,-0.69537354,0.113220215,0.296875,-14.171875,-21.515625
800,1695773900166,-0.2290039,-0.8147583,0.17449951,-10.71875,-16.03125,-42.140625
801,1695773900206,-0.2421875,-0.833313,0.28070068,20.0625,17.71875,-50.65625
802,1695773900245,-0.21289062,-0.8381958,-0.27252197,-4.90625,15.03125,-48.796875
803,1695773900285,-0.2692871,-1.130188,-0.27008057,-15.546875,-4.9375,-32.265625
804,1695773900325,-0.3803711,-1.6848755,-0.05718994,18.578125,-26.140625,-31.0625
805,1695773900366,-0.28857422,-1.3533325,0.42840576,58.484375,41.578125,-2.0625
806,1695773900405,0.07421875,-0.78692627,-0.14385986,16.46875,13.21875,19.5
807,1695773900465,-0.13598633,-0.8635864,-0.2805786,-44.046875,-39.53125,-15.96875
808,1695773900488,-0.6694336,-1.1948853,0.030944824,-31.921875,-46.9375,-1.859375
809,1695773900507,-0.57788086,-0.75860596,-0.010803223,10.828125,11.4375,10.125
810,1695773900544,-0.45458984,-0.6983032,-0.25982666,11.765625,21.1875,2.234375
811,1695773900584,-0.4321289,-0.784729,-0.12335205,-1.21875,-2.125,-5.1875
812,1695773900624,-0.3720703,-0.90704346,0.06585693,-8.765625,13.125,2.484375
813,1695773900664,-0.44189453,-0.95880127,-0.06378174,-9.859375,32.625,9.40625
814,1695773900704,-0.4404297,-0.90167236,-0.09283447,18.953125,32.578125,8.375
815,1695773900744,-0.30419922,-0.85601807,0.10345459,7.65625,29.140625,13.234375
816,1695773900784,-0.14453125,-0.8579712,0.074401855,10.0,24.640625,35.8125
817,1695773900824,0.122558594,-0.7583618,-0.25079346,-15.375,10.453125,52.921875
818,1695773900865,0.7614746,-1.1140747,0.011657715,22.546875,-36.234375,21.78125
819,1695773900905,0.5498047,-1.8718872,0.5487671,-4.890625,-21.109375,61.53125
820,1695773900944,0.119384766,-1.1570435,0.015319824,-14.8125,-25.53125,56.5
821,1695773900984,-0.5788574,-1.0049438,-0.1987915,-9.703125,-43.53125,35.3125
822,1695773901025,-0.64404297,-0.487854,0.027526855,23.71875,-7.15625,-6.015625
823,1695773901065,0.2836914,-0.8206177,-0.12408447,43.359375,38.390625,-19.0625
824,1695773901105,0.53271484,-1.342102,0.21234131,6.140625,-19.84375,10.046875
825,1695773901145,0.25390625,-0.91412354,0.09539795,24.0625,24.828125,21.90625
826,1695773901184,-0.2355957,-0.60601807,0.039245605,10.84375,34.53125,-4.375
827,1695773901226,-0.54589844,-0.5125122,-0.124572754,0.171875,29.0625,-70.984375
828,1695773901266,-0.21508789,-0.49761963,-0.5984497,-4.171875,45.953125,-99.546875
829,1695773901308,0.040283203,-1.8457642,-0.70318604,10.46875,-16.15625,-62.96875
830,1695773901348,-0.19946289,-1.8687134,0.65618896,53.84375,-0.6875,15.984375
831,1695773901388,0.13574219,-0.81500244,-0.25567627,31.1875,58.734375,38.890625
832,1695773901427,-0.1616211,-0.4212036,-0.5527954,-14.453125,-11.0625,23.71875
833,1695773901468,-0.72094727,-0.50494385,-0.36602783,-23.078125,-25.28125,-46.953125
834,1695773901508,-0.20776367,-0.9981079,-0.26470947,-32.828125,-4.9375,-32.0625
835,1695773901556,-0.045898438,-1.343811,-0.1182251,-9.921875,-27.15625,11.625
836,1695773901589,0.20947266,-1.1411743,-0.2564087,14.03125,-13.078125,29.25
837,1695773901626,0.107910156,-0.784729,-0.4932251,11.28125,-51.21875,60.5625
838,1695773901667,0.11010742,-1.0305786,-0.07330322,3.625,-83.125,53.46875
839,1695773901687,-0.21191406,-0.51153564,0.22625732,36.96875,-8.71875,89.78125
840,1695773901728,-0.038085938,-0.5442505,-0.7041626,-47.109375,-29.421875,29.1875
841,1695773901769,-1.7409668,-1.2778931,-0.5562134,-103.984375,-65.953125,24.203125
842,1695773901807,0.98657227,-0.9746704,-0.23492432,35.328125,67.578125,-56.21875
843,1695773901849,0.5498047,-1.977356,1.4423218,51.40625,6.84375,13.125
844,1695773901891,0.45922852,-0.6572876,-0.68096924,38.71875,39.78125,66.40625
845,1695773901928,-0.045654297,-0.02154541,-0.17730713,10.40625,11.609375,-43.875
846,1695773901968,0.41357422,-0.81427,-0.47857666,22.71875,5.890625,-90.046875
847,1695773902006,0.10522461,-1.312561,0.24066162,-12.484375,-26.484375,-24.734375
848,1695773902048,-0.20092773,-1.0547485,0.15472412,18.8125,79.84375,26.671875
849,1695773902090,-0.11401367,-0.4500122,-0.3123169,-12.25,34.734375,-47.0625
850,1695773902127,-0.19555664,-0.5664673,-0.7114868,-54.109375,14.015625,-75.734375
851,1695773902168,-0.072265625,-1.4849243,-0.48980713,-72.6875,-28.59375,-64.734375
852,1695773902206,-0.4880371,-1.5510864,0.28826904,55.828125,-34.59375,-5.453125
853,1695773902247,-0.15356445,-0.91192627,0.046569824,44.671875,105.0625,13.296875
854,1695773902287,-0.23901367,-0.38165283,-0.6873169,-45.203125,-9.40625,22.890625
855,1695773902329,-0.4658203,-0.26934814,-0.43902588,-29.96875,-25.5625,-19.03125
856,1695773902368,-0.38256836,-1.2202759,-0.2642212,-24.65625,3.5,-28.578125
857,1695773902408,-0.654541,-1.3706665,0.44622803,-7.15625,2.59375,3.359375
858,1695773902448,-0.36987305,-0.73028564,-0.3789673,16.1875,33.9375,-7.265625
859,1695773902487,-0.52490234,-0.8230591,-0.11212158,-16.21875,1.1875,-7.03125
860,1695773902527,-0.46069336,-0.8237915,-0.09161377,3.71875,41.4375,27.0625
861,1695773902569,-0.31347656,-0.76446533,-0.120910645,-7.40625,29.09375,17.828125
862,1695773902610,-0.05859375,-0.74786377,0.055358887,17.46875,14.296875,12.3125
863,1695773902648,0.09716797,-1.1797485,-0.06304932,3.671875,-3.375,42.375
864,1695773902685,0.07788086,-1.3233032,-0.40631104,-7.078125,-13.828125,76.890625
865,1695773902725,0.60791016,-0.8484497,-0.20440674,28.328125,-35.125,28.0625
866,1695773902766,0.012939453,-1.3772583,0.20404053,-3.375,-16.703125,43.421875
867,1695773902807,-0.40649414,-0.81744385,-0.06695557,-8.078125,-31.046875,26.703125
868,1695773902846,-0.19140625,-0.64971924,-0.20196533,-13.296875,-5.09375,-8.3125
869,1695773902885,0.12524414,-0.61309814,-0.27349854,15.171875,12.8125,-30.484375
870,1695773902925,0.6508789,-1.6480103,0.07611084,-21.453125,-45.640625,-33.890625
871,1695773902945,0.20800781,-1.1712036,0.029968262,13.28125,22.59375,44.078125
872,1695773902985,-0.1694336,-0.7642212,-0.1428833,48.9375,21.921875,19.875
873,1695773903025,-0.25854492,-0.68829346,-0.042785645,35.984375,25.640625,-23.984375
874,1695773903065,-0.14575195,-0.5462036,-0.16778564,-10.484375,24.015625,-49.109375
875,1695773903106,-0.265625,-0.7263794,-0.29107666,-30.15625,56.6875,-65.578125
876,1695773903145,-0.2607422,-1.1714478,-0.73883057,-36.546875,24.171875,-107.96875
877,1695773903184,-0.4831543,-2.0,0.48846436,64.8125,-43.3125,-0.234375
878,1695773903225,-0.056152344,-1.0335083,0.051208496,-23.125,63.953125,14.3125
879,1695773903265,0.114990234,-0.4734497,-0.27764893,-13.640625,-0.25,0.84375
880,1695773903306,-0.17236328,-0.3838501,-0.5232544,-15.25,-32.8125,18.265625
881,1695773903345,-0.69799805,-0.7373657,-0.32647705,-31.25,-17.59375,-14.765625
882,1695773903384,-0.85717773,-1.3223267,0.2567749,-32.75,-35.40625,-18.09375
883,1695773903427,-0.32788086,-0.9204712,-0.17437744,19.078125,22.9375,-3.8125
884,1695773903466,-0.115478516,-0.8591919,-0.24127197,-10.125,-11.375,3.078125
885,1695773903506,-0.14990234,-0.8467407,-0.011779785,-15.015625,-8.90625,36.640625
886,1695773903550,-0.23583984,-0.7991333,-0.042785645,-2.78125,-11.09375,57.609375
887,1695773903588,-0.26000977,-0.7678833,-0.025939941,4.046875,-20.625,52.84375
888,1695773903629,-0.11816406,-0.8838501,-0.3430786,-7.28125,-28.40625,51.734375
889,1695773903666,0.05859375,-1.0012817,-0.0044555664,4.484375,-11.8125,15.5
890,1695773903707,0.70166016,-2.0,0.22283936,-23.125,-58.4375,12.515625
891,1695773903749,-0.012451172,-1.0020142,-0.054504395,-28.109375,-6.890625,51.53125
892,1695773903788,-0.21923828,-0.95318604,0.06781006,14.5,5.046875,31.40625
893,1695773903826,-0.1772461,-0.5449829,-0.06011963,37.90625,14.90625,5.078125
894,1695773903867,0.2697754,-0.8233032,-0.22857666,-22.3125,1.671875,-32.96875
895,1695773903906,0.28979492,-1.2634888,0.27435303,-50.421875,-29.578125,-8.5
896,1695773903948,0.045410156,-1.1680298,0.11834717,39.25,68.109375,12.875
897,1695773903986,0.049804688,-0.82696533,-0.17340088,25.515625,31.15625,5.265625
898,1695773904032,0.1850586,-0.6289673,-0.022521973,38.65625,26.703125,-0.296875
899,1695773904068,0.08496094,-0.7390747,-0.13043213,-7.234375,43.46875,-39.25
900,1695773904108,-0.104003906,-0.91241455,-0.05987549,-13.96875,25.84375,-55.828125
901,1695773904169,-0.21069336,-0.8635864,-0.097717285,14.5625,48.5,-65.8125
902,1695773904173,-0.12597656,-1.2251587,-0.30426025,-41.015625,14.1875,-66.34375
903,1695773904206,-0.19628906,-1.6050415,-0.2197876,19.109375,-37.40625,-38.3125
904,1695773904247,-0.20825195,-1.302063,0.15325928,35.625,21.65625,-17.578125
905,1695773904287,-0.24829102,-0.80133057,-0.14581299,-3.171875,15.90625,11.96875
906,1695773904328,-0.51220703,-0.46173096,-0.42022705,-4.625,1.265625,20.703125
907,1695773904368,-0.6062012,-0.77227783,-0.24908447,-3.28125,-10.03125,-19.15625
908,1695773904409,-0.3552246,-1.190979,-0.04547119,-15.9375,-15.84375,-7.46875
909,1695773904445,-0.14990234,-0.9944458,-0.055236816,-10.125,-2.75,17.390625
