,timestamp,accel_x,accel_y,accel_z,gyro_x,gyro_y,gyro_z,ind
0,1695772753554,-0.0390625,-0.9819946,0.10784912,-1.875,0.171875,-1.453125,0
1,1695772753594,-0.061035156,-1.0015259,0.09466553,-0.703125,-1.8125,0.359375,1
2,1695772753634,-0.021972656,-0.99957275,0.12835693,-0.578125,1.3125,-1.390625,2
3,1695772753674,-0.037353516,-1.0178833,0.09710693,-1.078125,0.3125,-0.515625,3
4,1695772753714,-0.053466797,-0.9807739,0.101501465,-1.78125,-1.640625,0.53125,4
5,1695772753754,-0.045654297,-0.9829712,0.11102295,-0.703125,-1.546875,-1.875,5
6,1695772753794,-0.036132812,-0.9902954,0.116882324,-0.96875,-0.890625,-0.75,6
7,1695772753834,-0.056884766,-1.000061,0.120788574,1.09375,-1.109375,0.828125,7
8,1695772753874,-0.046875,-1.0188599,0.113464355,-1.453125,-0.234375,-0.1875,8
9,1695772753914,-0.048095703,-0.9885864,0.11053467,-2.28125,0.8125,2.53125,9
10,1695772753954,-0.056396484,-0.97320557,0.12298584,3.171875,2.25,3.4375,10
11,1695772753994,-0.044189453,-0.9985962,0.121520996,-0.921875,0.84375,1.8125,11
12,1695772754034,-0.045166016,-0.9944458,0.09075928,-0.484375,2.3125,2.390625,12
13,1695772754074,-0.0034179688,-1.0010376,0.09613037,-1.078125,4.625,0.703125,13
14,1695772754114,-0.013916016,-0.99420166,0.10638428,-1.65625,0.21875,3.40625,14
15,1695772754154,-0.025390625,-0.9973755,0.11932373,-1.484375,1.9375,2.140625,15
16,1695772754194,0.0068359375,-0.989563,0.078063965,-2.625,0.6875,-0.625,16
17,1695772754234,-0.035888672,-0.9841919,0.11126709,-0.921875,0.890625,4.15625,17
18,1695772754274,-0.04321289,-0.9702759,0.14251709,6.890625,5.625,6.265625,18
19,1695772754314,0.0075683594,-1.02594,0.10784912,-2.65625,4.59375,2.578125,19
20,1695772754354,-0.008300781,-1.0027466,0.11151123,-0.359375,4.8125,3.3125,20
21,1695772754394,0.021728516,-0.9981079,0.07122803,-0.65625,6.921875,1.375,21
22,1695772754434,0.036621094,-0.9915161,0.08685303,-5.234375,1.125,2.28125,22
23,1695772754474,0.02368164,-0.9627075,0.093444824,-0.8125,-0.34375,0.25,23
24,1695772754514,0.012451172,-1.0108032,0.11175537,-1.15625,1.421875,-1.90625,24
25,1695772754554,0.011474609,-1.0083618,0.12786865,-2.5,-0.875,-2.53125,25
26,1695772754594,0.0068359375,-1.0020142,0.09710693,0.765625,-0.75,-5.171875,26
27,1695772754634,0.0009765625,-0.97369385,0.10614014,-0.15625,1.59375,-1.203125,27
28,1695772754674,-0.021972656,-1.0090942,0.11273193,1.46875,-1.40625,2.1875,28
29,1695772754714,0.016845703,-1.0046997,0.10369873,-1.796875,0.234375,0.40625,29
30,1695772754754,0.017578125,-0.975647,0.11029053,0.3125,-0.75,0.953125,30
31,1695772754794,-0.0087890625,-0.9819946,0.09661865,-0.84375,-2.0,0.296875,31
32,1695772754834,-0.006591797,-0.97662354,0.11444092,-3.125,-3.828125,-1.453125,32
33,1695772754874,-0.009765625,-1.0020142,0.11175537,-1.6875,-2.921875,-0.875,33
34,1695772754914,-0.004638672,-1.0105591,0.12200928,-2.921875,-0.046875,0.25,34
35,1695772754954,0.0146484375,-0.98931885,0.12835693,1.984375,1.8125,0.328125,35
36,1695772754994,0.0073242188,-0.9951782,0.12908936,1.828125,1.6875,-1.484375,36
37,1695772755034,0.037597656,-0.9849243,0.10028076,0.09375,1.03125,-1.578125,37
38,1695772755074,0.021728516,-0.9834595,0.1005249,-0.234375,-0.671875,-2.84375,38
39,1695772755114,0.007080078,-0.9890747,0.113708496,2.34375,-2.078125,-2.296875,39
40,1695772755154,-0.021484375,-1.00177,0.10467529,1.25,-1.46875,-2.828125,40
41,1695772755194,-0.05419922,-1.0022583,0.09320068,-4.28125,0.4375,-3.015625,41
42,1695772755234,-0.029785156,-0.9780884,0.12420654,2.28125,1.6875,-3.015625,42
43,1695772755274,-0.0107421875,-1.0105591,0.09490967,1.890625,2.671875,-1.5625,43
44,1695772755314,-0.02734375,-0.99591064,0.09564209,-3.046875,-0.140625,-0.296875,44
45,1695772755354,-0.030761719,-0.973938,0.09832764,1.34375,-0.453125,-3.203125,45
46,1695772755394,-0.03955078,-1.029602,0.112976074,0.734375,0.4375,-0.734375,46
47,1695772755434,-0.032714844,-0.9829712,0.09515381,-1.6875,0.03125,0.484375,47
48,1695772755474,-0.023925781,-0.97784424,0.093933105,-1.3125,2.9375,-1.40625,48
49,1695772755514,-0.0043945312,-1.0088501,0.08050537,2.359375,1.03125,1.609375,49
50,1695772755554,-0.02758789,-0.9949341,0.08416748,-0.28125,-2.125,2.640625,50
51,1695772755594,-0.0056152344,-0.9758911,0.11956787,3.046875,0.171875,-0.390625,51
52,1695772755634,-0.0036621094,-1.022522,0.08123779,3.234375,0.296875,-1.28125,52
53,1695772755674,-0.053955078,-0.9937134,0.0680542,-1.015625,-2.53125,2.21875,53
54,1695772755714,-0.049804688,-1.0049438,0.09613037,1.890625,0.09375,0.0,54
55,1695772755754,0.012451172,-0.98931885,0.08465576,1.09375,3.859375,0.40625,55
56,1695772755794,-0.0017089844,-0.9951782,0.06878662,2.15625,4.171875,-1.0625,56
57,1695772755834,0.01928711,-0.98101807,0.082458496,0.96875,2.046875,-1.9375,57
58,1695772755874,-0.010009766,-0.9890747,0.06048584,1.421875,-0.515625,-0.4375,58
59,1695772755914,-0.0234375,-1.0088501,0.062683105,0.125,-2.890625,-1.9375,59
60,1695772755954,-0.025146484,-0.99468994,0.07879639,4.828125,-1.484375,-3.375,60
61,1695772755994,-0.053222656,-1.022522,0.042419434,2.40625,0.34375,-0.875,61
62,1695772756034,-0.068603516,-0.9663696,0.07269287,2.84375,0.953125,-0.5625,62
63,1695772756074,-0.025634766,-1.0151978,0.051452637,3.015625,3.765625,0.109375,63
64,1695772756114,-0.017089844,-0.9854126,0.038024902,-2.515625,-0.6875,1.296875,64
65,1695772756154,-0.022949219,-0.9812622,0.070251465,0.90625,-2.1875,-2.640625,65
66,1695772756194,-0.03466797,-1.0012817,0.050231934,-2.109375,-1.609375,-2.53125,66
67,1695772756234,-0.044677734,-1.0120239,0.049743652,-1.671875,-1.3125,-1.109375,67
68,1695772756274,-0.032714844,-0.9834595,0.05633545,1.1875,1.03125,-0.140625,68
69,1695772756314,-0.039794922,-1.0037231,0.053894043,1.453125,-0.265625,0.34375,69
70,1695772756354,-0.051513672,-1.0071411,0.04852295,-0.75,0.5625,1.59375,70
71,1695772756394,-0.0048828125,-0.9817505,0.04144287,0.828125,1.15625,-1.484375,71
72,1695772756434,0.0012207031,-0.98931885,0.02923584,-1.9375,0.21875,-1.109375,72
73,1695772756474,-0.015380859,-0.9727173,0.04510498,2.28125,-1.453125,-1.234375,73
74,1695772756514,-0.0126953125,-1.0078735,0.042419434,1.171875,-3.625,-2.484375,74
75,1695772756554,-0.036621094,-0.98223877,0.027526855,-7.9375,-7.6875,-5.796875,75
76,1695772756594,-0.07739258,-0.99591064,0.050476074,-1.859375,-5.609375,-6.71875,76
77,1695772756634,-0.08081055,-1.0042114,0.070495605,3.734375,-1.0625,-2.5,77
78,1695772756674,-0.07299805,-0.991272,0.062438965,-1.421875,0.84375,1.296875,78
79,1695772756714,-0.04663086,-0.98565674,0.059509277,-1.125,1.84375,-0.796875,79
80,1695772756754,-0.046142578,-1.0205688,0.043151855,0.28125,1.328125,-1.71875,80
81,1695772756794,-0.059326172,-0.9973755,0.05340576,0.5625,0.84375,0.515625,81
82,1695772756834,-0.06762695,-0.97369385,0.01776123,-0.65625,1.09375,2.71875,82
83,1695772756874,-0.03491211,-0.9873657,0.070495605,-0.484375,-0.875,-1.203125,83
84,1695772756914,-0.057128906,-1.0396118,0.046813965,0.515625,-0.3125,0.546875,84
85,1695772756954,-0.05078125,-0.991272,0.039733887,0.21875,0.703125,-0.890625,85
86,1695772756994,-0.0637207,-0.97735596,0.023864746,-0.609375,1.5625,-1.359375,86
87,1695772757034,-0.044677734,-0.9834595,0.031677246,-2.109375,-0.78125,-0.0625,87
88,1695772757074,-0.044921875,-1.0203247,0.038513184,-4.6875,-2.09375,1.390625,88
89,1695772757114,-0.051513672,-0.986145,0.051452637,-3.5,-1.15625,0.6875,89
90,1695772757154,-0.061279297,-1.0039673,0.051940918,-1.484375,-0.703125,-3.8125,90
91,1695772757194,-0.05810547,-0.98931885,0.045837402,-2.515625,0.171875,-2.25,91
92,1695772757234,-0.045654297,-1.0095825,0.04901123,-1.09375,0.5625,-0.65625,92
93,1695772757274,-0.037353516,-0.99224854,0.046325684,-3.1875,0.890625,2.546875,93
94,1695772757314,-0.050048828,-1.0012817,0.059509277,-0.875,0.828125,0.796875,94
95,1695772757354,-0.05029297,-0.98809814,0.058044434,0.484375,1.578125,-1.5,95
96,1695772757394,-0.036621094,-0.9949341,0.047058105,-2.203125,-0.828125,-3.125,96
97,1695772757434,-0.06958008,-0.96881104,0.06707764,-2.359375,0.0,-2.171875,97
98,1695772757474,-0.05444336,-1.0127563,0.06756592,-1.671875,-0.484375,-1.765625,98
99,1695772757514,-0.048095703,-0.9956665,0.08709717,-2.28125,-0.03125,-3.609375,99
100,1695772757554,-0.050048828,-1.0388794,0.07220459,0.40625,1.203125,-1.625,100
101,1695772757594,-0.08105469,-0.9644165,0.057556152,-2.9375,-1.453125,0.015625,101
102,1695772757634,-0.026123047,-0.9866333,0.025817871,1.875,0.578125,-5.390625,102
103,1695772757674,-0.012939453,-0.9961548,0.11077881,6.53125,-4.375,0.109375,103
104,1695772757714,-0.05078125,-1.0652466,0.113708496,19.46875,-2.453125,2.875,104
105,1695772757754,-0.11791992,-1.0601196,0.0028686523,-1.734375,-4.953125,1.78125,105
106,1695772757794,-0.11816406,-0.87677,0.021911621,-13.0625,-7.5625,-9.5,106
107,1695772757834,-0.13305664,-1.0007935,0.08026123,-0.671875,-5.953125,-16.96875,107
108,1695772757874,-0.1352539,-1.065979,0.0067749023,1.078125,3.03125,10.171875,108
109,1695772757914,-0.15185547,-0.8743286,0.02166748,6.46875,3.671875,13.890625,109
110,1695772757954,-0.114746094,-1.0291138,0.007019043,3.375,9.640625,6.4375,110
111,1695772757994,0.0075683594,-0.9824829,-0.010559082,2.28125,6.609375,8.15625,111
112,1695772758034,-0.018554688,-0.9612427,0.024597168,-1.53125,2.28125,1.96875,112
113,1695772758074,-0.03173828,-1.0435181,0.0018920898,-6.40625,-3.1875,-0.125,113
114,1695772758114,-0.05908203,-1.0420532,0.05633545,-0.34375,1.875,3.5625,114
115,1695772758154,-0.068603516,-1.0115356,0.057556152,1.28125,4.90625,4.796875,115
116,1695772758194,-0.045166016,-0.9685669,0.024108887,-6.09375,0.03125,4.75,116
117,1695772758234,-0.01953125,-0.9668579,0.015808105,-6.390625,1.90625,5.828125,117
118,1695772758274,-0.008544922,-1.0193481,0.03729248,-2.21875,3.5,9.046875,118
119,1695772758314,-0.013427734,-0.9963989,0.08148193,-3.75,2.21875,6.25,119
120,1695772758354,0.008056641,-0.9751587,0.05999756,-4.8125,5.703125,1.265625,120
121,1695772758394,0.059326172,-0.98223877,0.0524292,-5.671875,4.4375,1.3125,121
122,1695772758434,0.045410156,-0.9866333,0.06488037,-3.5625,-1.65625,4.375,122
123,1695772758474,0.02734375,-0.9998169,0.08001709,-0.71875,-0.484375,2.484375,123
124,1695772758514,0.024902344,-1.0181274,0.06951904,-3.796875,0.078125,5.109375,124
125,1695772758554,-0.035888672,-0.9819946,0.08148193,-1.328125,1.546875,4.265625,125
126,1695772758594,0.025878906,-1.0125122,0.086120605,1.796875,6.171875,1.078125,126
127,1695772758634,0.05029297,-0.98638916,0.05731201,-2.75,7.109375,-0.28125,127
128,1695772758674,0.057617188,-0.9680786,0.042663574,-0.765625,3.671875,-0.09375,128
129,1695772758714,0.05810547,-1.0108032,0.08074951,2.46875,3.046875,2.640625,129
130,1695772758754,0.016601562,-0.9976196,0.08856201,2.546875,1.296875,5.0,130
131,1695772758794,0.041748047,-0.9915161,0.046569824,-0.375,2.03125,-2.578125,131
132,1695772758834,0.03857422,-0.9927368,0.03753662,-3.828125,3.640625,-0.78125,132
133,1695772758874,0.030761719,-0.9846802,0.0602417,3.96875,3.421875,2.21875,133
134,1695772758914,0.040283203,-1.0193481,0.06732178,-1.9375,3.953125,1.890625,134
135,1695772758954,0.03857422,-0.9685669,0.058044434,-0.8125,4.546875,1.234375,135
136,1695772758994,0.046142578,-0.9819946,0.024841309,2.375,5.671875,0.375,136
137,1695772759034,0.052246094,-0.95684814,0.049743652,-1.5625,2.46875,-2.0,137
138,1695772759074,0.07006836,-1.0066528,0.041931152,1.875,4.71875,-2.078125,138
139,1695772759114,0.05053711,-1.0374146,0.047302246,3.15625,4.90625,2.625,139
140,1695772759154,0.035888672,-0.92388916,0.029968262,3.609375,2.3125,0.828125,140
141,1695772759194,0.045654297,-1.008606,0.0067749023,7.390625,7.03125,-3.75,141
142,1695772759234,0.06762695,-0.97491455,0.01727295,4.171875,4.265625,-0.671875,142
143,1695772759274,0.057861328,-0.98150635,0.030212402,3.671875,2.84375,-6.09375,143
144,1695772759314,0.033935547,-1.0032349,-0.020568848,-2.15625,-0.71875,-4.59375,144
145,1695772759354,0.03955078,-0.97052,0.011413574,-1.96875,-3.59375,-5.3125,145
146,1695772759394,0.030273438,-1.0003052,0.02532959,-3.75,-3.4375,-7.21875,146
147,1695772759434,0.03149414,-1.0264282,-0.0051879883,-6.9375,-2.59375,-8.40625,147
148,1695772759474,0.026855469,-1.003479,0.057800293,0.71875,-3.796875,-8.84375,148
149,1695772759514,-0.021972656,-0.9898071,0.045837402,-6.875,-6.109375,-1.9375,149
150,1695772759554,-0.10668945,-1.0049438,0.043640137,-5.421875,-2.4375,1.171875,150
151,1695772759594,-0.07739258,-0.973938,0.020446777,1.828125,2.53125,3.140625,151
152,1695772759634,0.009521484,-1.053772,0.032409668,5.046875,4.15625,-1.59375,152
153,1695772759674,0.024902344,-0.9968872,0.050964355,1.734375,0.96875,-4.421875,153
154,1695772759714,-0.0031738281,-0.9612427,-0.020324707,1.921875,-1.875,-8.921875,154
155,1695772759754,-0.05883789,-0.9949341,-0.02545166,-4.234375,-8.5,-2.671875,155
156,1695772759794,-0.0126953125,-0.9204712,0.05657959,5.65625,-5.890625,-2.75,156
157,1695772759834,-0.044189453,-1.0254517,0.020935059,-3.265625,-8.90625,-3.640625,157
158,1695772759874,-0.07104492,-0.9768677,0.018005371,-8.875,-9.140625,-1.171875,158
159,1695772759914,0.039794922,-0.90802,0.051208496,0.09375,-3.046875,-8.671875,159
160,1695772759954,-0.004638672,-1.1062622,0.03363037,-7.453125,-14.421875,-11.34375,160
161,1695772759994,-0.10888672,-1.00177,0.06317139,-10.203125,-8.25,0.46875,161
162,1695772760034,-0.15356445,-1.0166626,0.050720215,-2.515625,-1.125,1.5,162
163,1695772760074,-0.11621094,-0.99835205,0.06463623,-8.78125,-1.328125,2.65625,163
164,1695772760114,-0.06518555,-0.9651489,0.07952881,-2.765625,2.03125,0.9375,164
165,1695772760154,-0.022216797,-1.0115356,0.08856201,-1.6875,3.703125,-0.46875,165
166,1695772760194,-0.032958984,-0.99176025,0.09515381,-1.09375,0.6875,0.53125,166
167,1695772760234,-0.03540039,-1.0025024,0.06072998,-4.609375,-0.875,1.28125,167
168,1695772760274,-0.072021484,-0.9985962,0.06488037,-4.25,0.703125,5.109375,168
169,1695772760314,-0.042236328,-0.9963989,0.09710693,0.296875,4.46875,4.390625,169
170,1695772760354,-0.025390625,-0.99542236,0.0927124,-3.53125,2.3125,5.046875,170
171,1695772760394,-0.021484375,-0.958313,0.109802246,-1.96875,1.453125,2.578125,171
172,1695772760434,-0.032714844,-1.0144653,0.093444824,-5.546875,0.875,1.25,172
173,1695772760474,-0.006591797,-0.9902954,0.082458496,-3.78125,0.78125,3.640625,173
174,1695772760514,0.0034179688,-0.9805298,0.11883545,-1.1875,2.046875,2.15625,174
175,1695772760554,-0.033447266,-0.9944458,0.11151123,-2.390625,-0.015625,4.109375,175
176,1695772760594,0.0073242188,-0.98638916,0.12835693,-2.234375,2.1875,-0.265625,176
177,1695772760634,-0.0073242188,-1.0027466,0.11517334,-0.328125,1.515625,0.1875,177
178,1695772760674,-0.014160156,-0.97247314,0.11273193,2.046875,2.5,0.296875,178
179,1695772760714,0.0073242188,-1.0122681,0.11395264,1.4375,2.046875,0.765625,179
180,1695772760754,0.010253906,-0.99957275,0.08148193,0.109375,0.8125,1.765625,180
181,1695772760794,-0.0034179688,-0.975647,0.10418701,0.25,1.359375,0.546875,181
182,1695772760834,-0.016845703,-1.0042114,0.09100342,-0.265625,1.171875,0.84375,182
183,1695772760874,-0.0014648438,-0.9807739,0.073913574,-6.78125,0.09375,-0.09375,183
184,1695772760914,0.0031738281,-0.9758911,0.11077881,-1.359375,0.140625,-3.59375,184
185,1695772760954,0.010498047,-1.0518188,0.09100342,-2.765625,1.0625,-1.25,185
186,1695772760994,0.014404297,-0.9841919,0.117370605,-0.640625,-0.015625,-1.65625,186
187,1695772761034,0.01171875,-1.0110474,0.08929443,-1.171875,-0.109375,-3.296875,187
188,1695772761074,-0.0029296875,-0.9854126,0.08856201,-4.90625,-2.65625,-1.625,188
189,1695772761114,-0.025634766,-0.9998169,0.10101318,0.609375,-3.21875,0.109375,189
190,1695772761154,-0.043701172,-1.0193481,0.11859131,-3.484375,-3.125,-0.4375,190
191,1695772761194,-0.037597656,-0.97247314,0.13763428,-2.1875,-2.09375,-0.421875,191
192,1695772761234,-0.020996094,-0.99542236,0.10394287,-0.546875,-1.078125,-0.96875,192
193,1695772761274,-0.009277344,-0.97076416,0.13787842,-1.046875,-1.484375,-0.265625,193
194,1695772761314,-0.033203125,-1.0420532,0.13616943,-0.765625,-1.125,0.640625,194
195,1695772761354,-0.018066406,-0.9553833,0.1239624,-1.546875,2.609375,2.734375,195
196,1695772761394,0.026367188,-0.9776001,0.117370605,2.734375,0.734375,-3.328125,196
197,1695772761434,0.037353516,-1.008606,0.121276855,-2.015625,1.921875,-0.953125,197
198,1695772761474,0.0009765625,-0.98321533,0.117370605,3.578125,-0.703125,-2.171875,198
199,1695772761514,-0.01977539,-1.0125122,0.09588623,1.5,-2.359375,-5.953125,199
200,1695772761554,-0.005859375,-0.9973755,0.09588623,-1.359375,-1.03125,-3.953125,200
201,1695772761594,-0.02368164,-0.97613525,0.08294678,1.4375,-3.109375,-4.078125,201
202,1695772761634,-0.047851562,-1.0061646,0.093933105,-2.25,-5.625,-3.984375,202
203,1695772761674,-0.059326172,-0.9805298,0.113708496,-0.859375,-5.546875,-3.625,203
204,1695772761714,-0.07861328,-1.0254517,0.113464355,-1.609375,-2.78125,-4.65625,204
205,1695772761754,-0.05517578,-0.9883423,0.11248779,-1.359375,-2.0,-3.140625,205
206,1695772761794,-0.061523438,-0.9793091,0.1251831,-1.03125,-0.828125,-5.46875,206
207,1695772761834,-0.060302734,-0.9976196,0.113708496,-3.421875,-1.390625,-3.046875,207
208,1695772761874,-0.0625,-1.0093384,0.109558105,-3.109375,-1.609375,2.984375,208
209,1695772761914,-0.03564453,-0.9956665,0.11590576,-0.0625,-0.25,-0.28125,209
210,1695772761954,-0.055908203,-1.0142212,0.12982178,-0.484375,-2.546875,-3.625,210
211,1695772761994,-0.0715332,-0.9963989,0.11077881,0.546875,-1.65625,-3.265625,211
212,1695772762034,-0.05834961,-0.9793091,0.11639404,-1.890625,-1.984375,-4.109375,212
213,1695772762074,-0.09008789,-0.98443604,0.0993042,-1.671875,-3.453125,-4.953125,213
214,1695772762114,-0.07739258,-0.99664307,0.13104248,-0.234375,-5.0625,-4.140625,214
215,1695772762154,-0.08642578,-1.0137329,0.12200928,0.28125,-3.1875,-4.65625,215
216,1695772762194,-0.08251953,-0.9734497,0.112976074,-0.53125,-2.875,-4.4375,216
217,1695772762234,-0.1459961,-1.0078735,0.12884521,-0.34375,-3.484375,-0.328125,217
218,1695772762274,-0.1394043,-0.9751587,0.11639404,1.640625,1.109375,1.71875,218
219,1695772762314,-0.09692383,-0.9956665,0.08905029,-2.25,-0.046875,-0.921875,219
220,1695772762354,-0.095214844,-0.9578247,0.11883545,3.015625,1.59375,-2.796875,220
221,1695772762394,-0.104003906,-1.0237427,0.1437378,5.25,-1.1875,-1.21875,221
222,1695772762434,-0.09399414,-1.0022583,0.101257324,-4.21875,-0.53125,-0.578125,222
223,1695772762474,-0.08178711,-0.94903564,0.10247803,2.53125,1.28125,-0.984375,223
224,1695772762514,-0.09057617,-1.0005493,0.10076904,4.4375,-0.734375,-0.703125,224
225,1695772762554,-0.11987305,-1.0046997,0.1161499,-3.9375,-0.546875,3.015625,225
226,1695772762594,-0.10913086,-0.9990845,0.10321045,5.015625,1.796875,0.265625,226
227,1695772762634,-0.12719727,-0.9981079,0.101257324,-0.640625,2.765625,0.0625,227
228,1695772762674,-0.091308594,-0.95318604,0.081970215,3.71875,4.796875,-0.5625,228
229,1695772762714,-0.1352539,-0.9998169,0.08514404,1.78125,5.5625,4.421875,229
230,1695772762754,-0.064453125,-0.9939575,0.113220215,0.171875,8.5,4.53125,230
231,1695772762794,-0.03491211,-1.0083618,0.062683105,-1.890625,8.21875,3.578125,231
232,1695772762834,-0.010253906,-0.97247314,0.03704834,-2.40625,3.734375,-0.0625,232
233,1695772762874,-0.045166016,-0.92926025,0.07635498,-2.03125,0.9375,-2.484375,233
234,1695772762914,-0.057861328,-1.0195923,0.105163574,4.390625,-3.78125,-8.5,234
235,1695772762954,-0.1015625,-1.0620728,0.086120605,-0.75,-4.0,-4.65625,235
236,1695772762994,-0.11254883,-1.0010376,0.07220459,0.1875,-3.484375,-5.109375,236
237,1695772763034,-0.1652832,-0.9627075,0.053649902,0.9375,-2.8125,-2.390625,237
238,1695772763074,-0.1352539,-0.99420166,0.07537842,-2.9375,0.5,-0.859375,238
239,1695772763114,-0.107910156,-1.0479126,0.0692749,-9.09375,1.015625,2.515625,239
240,1695772763154,-0.08325195,-0.99713135,0.09686279,-13.5,0.140625,-2.703125,240
241,1695772763194,-0.07128906,-1.0073853,0.1227417,-9.921875,-1.265625,-8.4375,241
242,1695772763234,-0.10107422,-1.0569458,0.14886475,-18.875,0.984375,-6.765625,242
243,1695772763274,-0.21899414,-0.9402466,0.13348389,1.4375,14.796875,4.640625,243
244,1695772763314,-0.115478516,-0.9505005,0.16204834,23.46875,3.859375,6.625,244
245,1695772763354,-0.17138672,-1.0186157,0.14935303,12.390625,3.703125,10.390625,245
246,1695772763394,-0.05102539,-0.9468384,0.06951904,-1.59375,4.734375,-0.8125,246
247,1695772763434,-0.040283203,-0.97247314,0.04949951,8.59375,0.96875,-3.140625,247
248,1695772763474,-0.07739258,-0.99835205,0.03753662,2.53125,-3.234375,1.34375,248
249,1695772763514,-0.1159668,-0.9338989,0.010192871,-4.765625,-7.703125,0.78125,249
250,1695772763554,-0.1303711,-1.0122681,0.11834717,-0.1875,-5.296875,-1.90625,250
251,1695772763594,-0.087402344,-1.0542603,0.1083374,-4.53125,-0.828125,-4.140625,251
252,1695772763634,-0.08886719,-1.0418091,0.0927124,1.46875,0.515625,-6.671875,252
253,1695772763674,-0.10644531,-0.9619751,0.08905029,0.65625,1.6875,-2.609375,253
254,1695772763714,-0.12963867,-0.96881104,0.07147217,-5.171875,-2.359375,-2.0625,254
255,1695772763754,-0.15478516,-1.0027466,0.06317139,-1.84375,-1.859375,1.28125,255
256,1695772763794,-0.10961914,-1.0115356,0.10369873,-2.90625,-1.03125,-1.609375,256
257,1695772763834,-0.13793945,-0.9956665,0.08709717,-3.109375,0.390625,0.5,257
258,1695772763874,-0.13500977,-0.9680786,0.061950684,-5.5,-2.765625,-2.09375,258
259,1695772763914,-0.12451172,-0.9788208,0.109069824,-2.703125,-1.78125,-1.15625,259
260,1695772763954,-0.12231445,-1.0115356,0.10443115,-3.28125,-0.4375,3.015625,260
261,1695772763994,-0.10986328,-1.0061646,0.120788574,-4.625,0.984375,1.15625,261
262,1695772764034,-0.08666992,-0.9768677,0.1251831,-2.015625,1.671875,-1.8125,262
263,1695772764074,-0.11425781,-0.9985962,0.11541748,-4.71875,1.171875,0.71875,263
264,1695772764114,-0.10205078,-0.97052,0.13983154,-2.140625,-0.265625,1.1875,264
265,1695772764154,-0.10424805,-1.0149536,0.12567139,-2.375,-0.359375,-1.109375,265
266,1695772764194,-0.12158203,-0.9883423,0.11639404,-5.15625,-0.375,0.453125,266
267,1695772764234,-0.10449219,-0.96954346,0.14984131,0.5625,0.65625,-2.515625,267
268,1695772764274,-0.13208008,-1.0088501,0.12908936,-1.9375,1.609375,1.34375,268
269,1695772764314,-0.13012695,-0.9692993,0.12738037,-2.1875,2.375,0.765625,269
270,1695772764354,-0.100097656,-0.9968872,0.1359253,-0.875,1.828125,-1.578125,270
271,1695772764394,-0.103515625,-1.0042114,0.13031006,-4.0,1.515625,0.078125,271
272,1695772764434,-0.103515625,-0.9795532,0.14154053,-2.5,1.21875,0.265625,272
273,1695772764474,-0.119140625,-0.99835205,0.16326904,-0.78125,0.40625,-0.859375,273
274,1695772764514,-0.119628906,-0.9885864,0.12664795,-4.375,0.203125,-0.40625,274
275,1695772764554,-0.10058594,-0.9673462,0.13665771,-2.109375,0.359375,-3.46875,275
276,1695772764594,-0.12011719,-1.0159302,0.15496826,-3.046875,-0.453125,-2.46875,276
277,1695772764634,-0.11254883,-0.9656372,0.15545654,-1.90625,0.09375,-1.03125,277
278,1695772764674,-0.11254883,-0.98443604,0.16082764,0.171875,-0.9375,-3.109375,278
279,1695772764714,-0.123535156,-1.0115356,0.17401123,-2.390625,-1.625,-3.875,279
280,1695772764754,-0.11816406,-0.989563,0.15789795,-1.78125,-1.578125,-4.8125,280
281,1695772764794,-0.13061523,-0.9678345,0.15228271,0.984375,-2.53125,-7.0,281
282,1695772764834,-0.16186523,-0.9949341,0.1461792,-1.75,-3.421875,-5.015625,282
283,1695772764874,-0.1430664,-0.9817505,0.15496826,-1.859375,-3.203125,-6.15625,283
284,1695772764914,-0.17358398,-0.9937134,0.16571045,-1.546875,-2.71875,-2.46875,284
285,1695772764954,-0.16723633,-0.97857666,0.16473389,-2.609375,-2.46875,-3.296875,285
286,1695772764994,-0.20117188,-0.9697876,0.14349365,0.90625,-2.484375,-0.9375,286
287,1695772765034,-0.19726562,-0.975647,0.15130615,1.234375,-2.328125,-3.6875,287
288,1695772765074,-0.18481445,-0.9859009,0.18255615,3.1875,1.03125,-1.296875,288
289,1695772765114,-0.19482422,-1.0108032,0.13739014,-2.15625,0.234375,0.484375,289
290,1695772765154,-0.16430664,-0.9578247,0.14251709,-2.46875,1.578125,0.875,290
291,1695772765194,-0.17016602,-0.9702759,0.17669678,-0.234375,1.109375,-0.75,291
292,1695772765234,-0.19213867,-0.99176025,0.16229248,-2.046875,1.484375,-0.6875,292
293,1695772765274,-0.16040039,-0.99786377,0.18475342,-1.4375,0.828125,-2.203125,293
294,1695772765314,-0.17553711,-0.9692993,0.14959717,-1.71875,3.734375,1.671875,294
295,1695772765354,-0.16333008,-1.0105591,0.14764404,1.4375,6.125,-0.609375,295
296,1695772765394,-0.21972656,-1.046936,0.21136475,-3.140625,6.828125,8.46875,296
297,1695772765434,-0.2133789,-0.89556885,0.1864624,-3.6875,-2.953125,3.421875,297
298,1695772765474,-0.18334961,-1.0300903,0.18206787,-0.015625,4.296875,6.84375,298
299,1695772765514,-0.14428711,-0.88531494,0.15863037,-1.09375,8.5,14.0625,299
300,1695772765554,-0.2084961,-1.0042114,0.18011475,11.0,7.390625,11.03125,300
301,1695772765594,-0.09887695,-1.036438,0.10736084,6.140625,6.375,12.78125,301
302,1695772765634,0.001953125,-0.94244385,0.08782959,6.09375,4.53125,9.609375,302
303,1695772765674,-0.021728516,-0.95196533,0.09246826,5.78125,3.84375,5.8125,303
304,1695772765714,-0.06933594,-1.006897,0.12249756,2.828125,-0.4375,4.4375,304
305,1695772765754,-0.060302734,-1.0459595,0.1408081,3.671875,-2.9375,-0.53125,305
306,1695772765794,-0.07739258,-1.0332642,0.12445068,-0.03125,2.96875,3.859375,306
307,1695772765834,-0.021972656,-0.97442627,0.09075928,0.484375,5.515625,2.6875,307
308,1695772765874,-0.037109375,-0.9763794,0.093933105,-0.78125,-0.546875,7.734375,308
309,1695772765914,-0.05908203,-0.9595337,0.10394287,2.203125,-2.453125,8.203125,309
310,1695772765954,-0.030517578,-1.0254517,0.12615967,0.765625,-0.921875,-2.03125,310
311,1695772765994,0.008544922,-1.0025024,0.12371826,1.734375,0.171875,-1.375,311
312,1695772766034,-0.040771484,-0.9812622,0.11151123,1.640625,-1.1875,1.421875,312
313,1695772766074,-0.041015625,-0.9768677,0.09222412,-1.203125,-1.953125,1.703125,313
314,1695772766114,-0.038085938,-1.0147095,0.11419678,-0.375,-1.65625,2.421875,314
315,1695772766154,-0.025146484,-1.0081177,0.117126465,-0.078125,3.3125,1.578125,315
316,1695772766194,-0.036376953,-1.0078735,0.09539795,-3.25,2.828125,0.390625,316
317,1695772766234,0.0014648438,-0.94781494,0.121276855,-3.328125,2.203125,-0.78125,317
318,1695772766274,-0.013916016,-1.0159302,0.07904053,-1.21875,2.59375,-1.46875,318
319,1695772766314,-0.018798828,-0.9841919,0.1071167,-1.734375,1.890625,0.5625,319
320,1695772766354,-0.030273438,-1.0049438,0.11077881,-1.65625,2.21875,-2.125,320
321,1695772766394,-0.047851562,-0.99176025,0.12420654,-0.734375,2.484375,-0.203125,321
322,1695772766434,-0.029296875,-0.9981079,0.11126709,2.3125,2.71875,-2.125,322
323,1695772766474,-0.03930664,-1.0076294,0.07366943,-0.078125,0.3125,-1.65625,323
324,1695772766514,-0.029541016,-0.9937134,0.08660889,1.96875,0.90625,0.21875,324
325,1695772766554,-0.018554688,-0.9981079,0.10247803,1.96875,-0.015625,-1.28125,325
326,1695772766594,-0.0390625,-0.99786377,0.09637451,-0.765625,-1.75,-0.625,326
327,1695772766634,-0.061035156,-1.0071411,0.0927124,-1.3125,-1.953125,-1.71875,327
328,1695772766674,-0.042236328,-1.0269165,0.11004639,-1.515625,-0.4375,-2.140625,328
329,1695772766714,-0.044921875,-1.0161743,0.07879639,-3.890625,0.578125,-0.984375,329
330,1695772766754,-0.038330078,-0.9717407,0.074645996,-2.8125,1.40625,-2.0,330
331,1695772766794,-0.03540039,-0.98101807,0.11395264,-0.390625,-1.140625,-0.34375,331
332,1695772766834,-0.03540039,-0.9993286,0.11248779,1.875,-1.296875,-0.359375,332
333,1695772766874,-0.057861328,-1.0117798,0.105651855,-0.984375,-0.75,0.15625,333
334,1695772766914,-0.04248047,-0.9898071,0.10272217,-4.65625,-2.65625,-1.96875,334
335,1695772766954,-0.01586914,-0.96832275,0.105163574,-4.140625,-3.25,-2.546875,335
336,1695772766994,-0.043945312,-1.0322876,0.14031982,0.515625,-5.59375,-0.296875,336
337,1695772767034,-0.044433594,-1.0130005,0.12884521,-3.546875,-5.0625,-1.859375,337
338,1695772767074,-0.06201172,-0.9961548,0.12738037,-2.03125,-2.484375,-3.53125,338
339,1695772767114,-0.059570312,-0.97076416,0.12982178,3.21875,0.265625,-3.15625,339
340,1695772767154,-0.0390625,-0.9607544,0.10443115,-1.96875,0.765625,-3.203125,340
341,1695772767194,-0.049560547,-0.9614868,0.12347412,-2.78125,-0.375,-2.265625,341
342,1695772767234,-0.020751953,-1.0095825,0.15570068,-1.515625,-0.546875,-6.875,342
343,1695772767274,-0.052734375,-1.0186157,0.12738037,-2.5625,-1.15625,-7.15625,343
344,1695772767314,-0.09033203,-0.94903564,0.11029053,4.921875,-1.609375,-5.640625,344
345,1695772767354,-0.15356445,-0.99957275,0.11126709,4.265625,-1.078125,-1.65625,345
346,1695772767394,-0.14770508,-0.97857666,0.12225342,-0.28125,1.765625,-1.921875,346
347,1695772767434,-0.0847168,-0.9937134,0.11981201,2.859375,2.296875,-5.234375,347
348,1695772767474,-0.08203125,-1.017395,0.09490967,-0.40625,0.359375,-5.46875,348
349,1695772767514,-0.10595703,-0.98443604,0.09686279,0.25,0.53125,-2.71875,349
350,1695772767554,-0.123291016,-1.0076294,0.109558105,0.296875,-0.84375,-2.765625,350
351,1695772767594,-0.14550781,-0.9993286,0.101989746,-0.703125,0.21875,-0.171875,351
352,1695772767634,-0.122558594,-0.99884033,0.08074951,-2.140625,0.96875,-0.703125,352
353,1695772767674,-0.106933594,-0.9800415,0.085876465,-1.265625,0.765625,0.25,353
354,1695772767714,-0.11328125,-0.9866333,0.0914917,3.234375,-0.078125,0.96875,354
355,1695772767754,-0.14111328,-1.0466919,0.09490967,-2.40625,-1.015625,2.609375,355
356,1695772767794,-0.13891602,-0.9734497,0.10736084,-1.421875,0.921875,4.5625,356
357,1695772767834,-0.09472656,-0.99224854,0.093933105,2.8125,2.78125,1.171875,357
358,1695772767874,-0.1003418,-1.0027466,0.089538574,-5.859375,1.515625,2.5625,358
359,1695772767914,-0.08862305,-0.9795532,0.10858154,1.828125,1.328125,1.375,359
360,1695772767954,-0.08911133,-1.0144653,0.097351074,-2.03125,0.9375,3.6875,360
361,1695772767994,-0.053222656,-0.9768677,0.105163574,-0.546875,0.6875,1.96875,361
362,1695772768034,-0.106933594,-1.0032349,0.109558105,0.328125,1.140625,3.265625,362
363,1695772768074,-0.10449219,-0.9885864,0.121276855,-0.28125,2.765625,5.1875,363
364,1695772768114,-0.06201172,-0.99224854,0.0927124,-0.421875,4.421875,2.265625,364
365,1695772768154,-0.05444336,-0.99298096,0.1083374,2.828125,3.9375,3.34375,365
366,1695772768194,-0.03881836,-0.9793091,0.101501465,3.953125,1.9375,0.6875,366
367,1695772768234,-0.05053711,-0.98687744,0.0914917,-0.125,-0.75,-0.78125,367
368,1695772768274,-0.07104492,-0.9795532,0.089782715,-1.359375,-0.875,2.046875,368
369,1695772768314,-0.063964844,-0.96661377,0.07659912,1.625,1.1875,-1.28125,369
370,1695772768354,-0.07421875,-1.0352173,0.10223389,-1.484375,3.125,2.109375,370
371,1695772768394,-0.035888672,-0.99176025,0.10101318,3.203125,6.375,5.125,371
372,1695772768434,-0.01953125,-0.986145,0.08074951,-0.484375,2.359375,-0.34375,372
373,1695772768474,-0.028808594,-1.0066528,0.08538818,-3.46875,-1.0,-1.5,373
374,1695772768514,-0.03100586,-0.9819946,0.06341553,1.296875,-3.375,-3.46875,374
375,1695772768554,-0.063964844,-1.029602,0.08392334,-1.84375,-5.546875,-0.125,375
376,1695772768594,-0.078125,-0.9558716,0.08392334,-0.390625,-5.984375,-1.359375,376
377,1695772768634,-0.088378906,-1.0127563,0.08026123,-0.234375,-4.75,-3.40625,377
378,1695772768674,-0.06665039,-0.9758911,0.07757568,-0.78125,-2.1875,-2.625,378
379,1695772768714,-0.087646484,-1.0112915,0.07904053,-0.796875,-2.84375,-3.953125,379
380,1695772768754,-0.05102539,-0.9963989,0.0993042,-1.734375,-0.765625,-2.984375,380
381,1695772768794,-0.083984375,-1.0110474,0.10858154,0.78125,-0.890625,-0.484375,381
382,1695772768834,-0.087402344,-0.98760986,0.09979248,-0.171875,1.484375,-1.125,382
383,1695772768874,-0.07348633,-0.98272705,0.089782715,-0.484375,1.75,-0.109375,383
384,1695772768914,-0.072753906,-1.0037231,0.07098389,-2.9375,-0.359375,0.03125,384
385,1695772768954,-0.033935547,-0.9944458,0.070739746,0.1875,-1.140625,-1.140625,385
386,1695772768994,-0.08105469,-0.9932251,0.07220459,-0.546875,-4.0625,1.046875,386
387,1695772769034,-0.09692383,-0.9951782,0.08709717,-1.40625,-3.0625,0.25,387
388,1695772769074,-0.11425781,-0.9898071,0.094177246,0.296875,-2.640625,-0.53125,388
389,1695772769114,-0.08691406,-0.9937134,0.10272217,-0.5,1.09375,-1.84375,389
390,1695772769154,-0.056396484,-1.006897,0.070495605,-2.1875,0.28125,-0.5,390
391,1695772769194,-0.08935547,-0.97052,0.09246826,0.375,0.53125,0.453125,391
392,1695772769234,-0.034179688,-1.0076294,0.0758667,2.765625,-0.390625,1.15625,392
393,1695772769274,-0.068115234,-0.9873657,0.08514404,0.03125,-0.375,1.0625,393
394,1695772769314,-0.071777344,-0.9920044,0.093688965,0.921875,2.15625,-2.859375,394
395,1695772769354,-0.09057617,-1.006897,0.094177246,-2.734375,0.046875,-1.71875,395
396,1695772769394,-0.095214844,-0.9866333,0.07318115,-0.65625,0.578125,2.875,396
397,1695772769434,-0.07324219,-1.0005493,0.061950684,-0.28125,1.390625,2.625,397
398,1695772769474,-0.06640625,-0.97491455,0.07562256,-1.21875,0.046875,-0.390625,398
399,1695772769514,-0.072021484,-1.0095825,0.07879639,-2.015625,-0.265625,-0.375,399
400,1695772769554,-0.08227539,-1.0154419,0.08123779,-3.453125,1.578125,0.234375,400
401,1695772769594,-0.049072266,-0.99005127,0.08074951,-1.34375,2.375,0.984375,401
402,1695772769634,-0.06323242,-0.98223877,0.07952881,-0.15625,1.765625,-0.15625,402
403,1695772769674,-0.06225586,-0.9920044,0.10272217,-0.59375,2.9375,-0.140625,403
404,1695772769714,-0.061523438,-0.9939575,0.09539795,-0.46875,2.703125,1.109375,404
405,1695772769754,-0.08911133,-0.9890747,0.09320068,-1.328125,2.859375,3.78125,405
406,1695772769794,-0.07446289,-0.9771118,0.09075928,-1.453125,0.953125,-0.921875,406
407,1695772769834,-0.044921875,-1.0073853,0.06951904,-2.4375,1.3125,-4.09375,407
408,1695772769874,-0.095947266,-1.0337524,0.0993042,-0.765625,3.046875,1.6875,408
409,1695772769914,-0.033935547,-1.0029907,0.08660889,-1.828125,2.78125,2.421875,409
410,1695772769954,-0.09448242,-0.9607544,0.086364746,-2.421875,3.359375,-0.65625,410
411,1695772769994,-0.049072266,-1.019104,0.10638428,-3.296875,3.21875,-2.96875,411
412,1695772770034,-0.056884766,-1.0130005,0.09320068,-5.84375,1.96875,-0.5,412
413,1695772770074,-0.051513672,-0.9636841,0.08660889,-1.09375,4.125,-1.4375,413
414,1695772770114,-0.056884766,-0.99346924,0.11590576,-2.421875,0.671875,-1.546875,414
415,1695772770154,-0.059326172,-0.99005127,0.14398193,-8.8125,-1.140625,-1.46875,415
416,1695772770194,-0.06933594,-0.9824829,0.14520264,-7.1875,2.484375,-6.25,416
417,1695772770234,-0.0769043,-1.0025024,0.18109131,-2.40625,0.546875,-2.296875,417
418,1695772770274,-0.13452148,-1.0291138,0.14691162,1.46875,0.8125,2.59375,418
419,1695772770314,-0.099853516,-0.9307251,0.12542725,-2.90625,6.09375,8.109375,419
420,1695772770354,-0.079833984,-0.9956665,0.18377686,17.265625,2.921875,7.625,420
421,1695772770394,-0.029052734,-1.0720825,0.070739746,5.765625,4.421875,4.75,421
422,1695772770434,-0.061523438,-0.9351196,0.15081787,0.4375,-0.140625,-1.015625,422
423,1695772770474,-0.064453125,-0.96099854,0.08856201,1.3125,2.96875,-4.9375,423
424,1695772770514,-0.009521484,-1.0071411,0.027038574,1.078125,3.40625,2.171875,424
425,1695772770554,-0.05126953,-0.9824829,0.09490967,9.171875,-0.828125,0.546875,425
426,1695772770594,-0.053466797,-1.0418091,0.08392334,4.328125,-0.1875,2.59375,426
427,1695772770634,-0.057617188,-0.9846802,0.054870605,-0.515625,-2.109375,0.125,427
428,1695772770674,-0.028320312,-0.95562744,0.0289917,2.859375,-1.421875,-4.484375,428
429,1695772770714,-0.037109375,-0.960022,0.07659912,-5.21875,-5.6875,-4.0,429
430,1695772770754,-0.049316406,-1.0281372,0.0914917,-0.203125,-4.96875,-3.59375,430
431,1695772770794,-0.07324219,-1.019104,0.09100342,-0.625,-2.59375,-2.859375,431
432,1695772770834,-0.08105469,-1.0056763,0.08685303,1.46875,-3.015625,-3.578125,432
433,1695772770874,-0.0859375,-0.97198486,0.05340576,-3.109375,-3.796875,0.0,433
434,1695772770914,-0.08911133,-0.9692993,0.06829834,-2.53125,-4.109375,-1.796875,434
435,1695772770954,-0.06591797,-1.0227661,0.07562256,-0.140625,-3.484375,-4.125,435
436,1695772770994,-0.09399414,-1.0271606,0.08001709,-4.359375,-1.984375,-3.015625,436
437,1695772771034,-0.087402344,-0.9829712,0.08001709,-0.6875,-1.84375,-0.875,437
438,1695772771074,-0.059570312,-0.97979736,0.093933105,-0.234375,-1.421875,-1.90625,438
439,1695772771114,-0.10107422,-1.0144653,0.06414795,-3.140625,-1.1875,-1.21875,439
440,1695772771154,-0.09375,-0.9968872,0.09613037,-3.140625,-1.390625,-1.15625,440
441,1695772771194,-0.07397461,-1.0015259,0.101989746,-1.1875,-1.84375,-3.171875,441
442,1695772771234,-0.09692383,-1.0039673,0.08782959,-2.375,-0.28125,-1.796875,442
443,1695772771274,-0.076416016,-0.9771118,0.08709717,-0.0625,-0.203125,-3.140625,443
444,1695772771314,-0.0949707,-1.0130005,0.09197998,-1.796875,-1.65625,-1.515625,444
445,1695772771354,-0.10107422,-0.97247314,0.09466553,-0.640625,-1.359375,-0.53125,445
446,1695772771394,-0.095703125,-1.0098267,0.08880615,-2.25,-2.859375,-3.59375,446
447,1695772771434,-0.11328125,-0.9956665,0.09613037,-2.109375,-1.734375,-1.375,447
448,1695772771474,-0.09472656,-0.97540283,0.089782715,0.796875,-1.1875,-1.828125,448
449,1695772771514,-0.10449219,-1.0007935,0.09490967,-3.109375,-1.765625,-3.171875,449
450,1695772771554,-0.11425781,-0.9885864,0.09832764,-2.8125,-2.453125,-3.390625,450
451,1695772771594,-0.12036133,-0.9873657,0.09515381,-0.234375,-1.265625,-3.703125,451
452,1695772771634,-0.11450195,-0.9883423,0.10369873,-0.875,-2.828125,-5.515625,452
453,1695772771674,-0.1381836,-0.989563,0.097351074,0.71875,-3.15625,-4.03125,453
454,1695772771714,-0.1303711,-0.9993286,0.105163574,-3.09375,-1.609375,-4.3125,454
455,1695772771754,-0.1628418,-0.98394775,0.093933105,-1.34375,-1.1875,-3.125,455
456,1695772771794,-0.12939453,-0.9898071,0.10736084,-1.953125,-0.40625,-3.453125,456
457,1695772771834,-0.12158203,-0.9927368,0.11175537,-1.453125,-2.40625,-1.96875,457
458,1695772771874,-0.16455078,-1.0178833,0.09051514,-2.46875,-1.328125,1.140625,458
459,1695772771914,-0.14672852,-0.9573364,0.09588623,-6.28125,-3.375,-1.578125,459
460,1695772771954,-0.18457031,-1.0132446,0.0927124,-0.9375,-2.4375,0.375,460
461,1695772771994,-0.14672852,-0.9768677,0.13348389,-1.546875,-1.21875,-0.5,461
462,1695772772034,-0.15576172,-1.013977,0.11859131,-1.359375,-4.890625,-2.40625,462
463,1695772772074,-0.13110352,-0.9763794,0.10491943,-6.625,-2.953125,-3.1875,463
464,1695772772114,-0.11621094,-1.0049438,0.1305542,2.4375,-4.765625,-2.703125,464
465,1695772772154,-0.171875,-1.0142212,0.11199951,-6.390625,-4.84375,2.4375,465
466,1695772772194,-0.1328125,-0.9290161,0.1461792,-2.453125,-3.140625,-3.609375,466
467,1695772772234,-0.18579102,-1.0252075,0.08782959,-1.203125,-0.765625,-3.484375,467
468,1695772772274,-0.16748047,-0.9373169,0.13861084,-7.09375,2.25,-0.234375,468
469,1695772772314,-0.14477539,-1.013977,0.1864624,1.1875,-3.046875,-6.890625,469
470,1695772772354,-0.20605469,-1.0122681,0.14984131,-9.984375,-3.65625,-7.375,470
471,1695772772394,-0.18774414,-0.9717407,0.15838623,6.0,2.484375,-0.25,471
472,1695772772434,-0.22094727,-0.9649048,0.11810303,-2.40625,4.84375,6.53125,472
473,1695772772474,-0.17675781,-0.93170166,0.08050537,2.5,0.453125,7.078125,473
474,1695772772514,-0.12768555,-0.9680786,0.13250732,6.140625,-0.234375,1.53125,474
475,1695772772554,-0.16308594,-1.0271606,0.11883545,6.90625,1.25,4.921875,475
476,1695772772594,-0.13256836,-0.9939575,0.081970215,-0.234375,-1.796875,2.03125,476
477,1695772772634,-0.16064453,-0.95318604,0.09197998,0.625,-0.40625,0.28125,477
478,1695772772674,-0.18481445,-1.0122681,0.13275146,0.234375,1.078125,3.015625,478
479,1695772772714,-0.15039062,-0.9981079,0.10296631,-1.03125,4.28125,4.625,479
480,1695772772754,-0.11206055,-0.98321533,0.12615967,-2.171875,1.96875,2.90625,480
481,1695772772794,-0.14477539,-0.95758057,0.11004639,0.03125,4.234375,5.015625,481
482,1695772772834,-0.11645508,-0.9837036,0.117614746,-1.328125,3.109375,3.640625,482
483,1695772772874,-0.12719727,-1.0061646,0.12567139,1.0,-0.046875,1.921875,483
484,1695772772914,-0.115234375,-1.0247192,0.121276855,1.640625,4.734375,2.46875,484
485,1695772772954,-0.12109375,-0.9961548,0.11541748,1.375,4.578125,4.75,485
486,1695772772994,-0.11425781,-0.95440674,0.10321045,1.125,4.484375,3.96875,486
487,1695772773034,-0.11010742,-0.99835205,0.08831787,1.609375,6.828125,5.0625,487
488,1695772773074,-0.08178711,-1.0044556,0.109313965,2.546875,5.515625,4.953125,488
489,1695772773114,-0.07397461,-0.99591064,0.13006592,3.015625,6.9375,4.203125,489
490,1695772773154,-0.06982422,-0.99542236,0.08392334,-0.921875,7.171875,6.15625,490
491,1695772773194,-0.06298828,-1.0007935,0.08001709,-3.6875,7.34375,6.21875,491
492,1695772773234,-0.047851562,-0.96417236,0.101257324,1.40625,6.390625,6.28125,492
493,1695772773274,-0.040527344,-1.0164185,0.1083374,5.25,7.109375,6.71875,493
494,1695772773314,-0.06982422,-1.0274048,0.09075928,0.03125,6.484375,7.359375,494
495,1695772773354,-0.03857422,-0.96417236,0.07977295,1.921875,6.546875,5.28125,495
496,1695772773394,-0.041503906,-0.987854,0.07196045,-1.015625,8.265625,4.046875,496
497,1695772773434,-0.04711914,-1.0071411,0.08782959,3.78125,8.65625,7.421875,497
498,1695772773474,-0.020751953,-1.0056763,0.08880615,-4.875,9.28125,4.28125,498
499,1695772773514,0.0031738281,-1.0005493,0.08099365,-0.78125,9.3125,6.671875,499
500,1695772773554,-0.0029296875,-0.9871216,0.05657959,1.1875,11.765625,5.078125,500
501,1695772773594,0.057617188,-0.9602661,0.06097412,-3.359375,6.875,4.328125,501
502,1695772773634,0.064697266,-0.9939575,0.07293701,1.734375,3.390625,2.828125,502
503,1695772773674,0.075927734,-0.9993286,0.08392334,-2.703125,3.546875,0.359375,503
504,1695772773714,0.07910156,-0.98321533,0.085876465,-2.578125,-1.453125,-1.890625,504
505,1695772773754,0.052246094,-1.0239868,0.070739746,-2.140625,-1.84375,-4.21875,505
506,1695772773794,-0.0024414062,-0.9898071,0.07269287,-2.015625,-2.78125,-1.40625,506
507,1695772773834,0.0146484375,-0.9776001,0.062194824,-5.015625,-3.65625,-7.328125,507
508,1695772773874,0.010986328,-1.0056763,0.09490967,-5.546875,-4.78125,-8.15625,508
509,1695772773914,0.008300781,-0.99957275,0.06781006,-2.25,-7.75,-8.09375,509
510,1695772773954,-0.018798828,-0.9800415,0.101989746,-6.5625,-8.625,-9.3125,510
511,1695772773994,-0.061035156,-0.9793091,0.15838623,-5.5625,-8.265625,-5.15625,511
512,1695772774034,-0.08569336,-1.0283813,0.14202881,-10.546875,-9.859375,-6.734375,512
513,1695772774074,-0.08935547,-1.0237427,0.14129639,-17.640625,-10.046875,-10.53125,513
514,1695772774114,-0.092041016,-1.0134888,0.15374756,-16.046875,-6.9375,-13.59375,514
515,1695772774154,0.021728516,-0.9158325,0.19647217,11.453125,0.578125,-12.734375,515
516,1695772774194,-0.02368164,-0.99346924,0.12030029,7.15625,-1.421875,-14.8125,516
517,1695772774234,-0.14038086,-0.9446411,0.15228271,10.40625,-7.59375,-3.890625,517
518,1695772774274,-0.17919922,-0.9817505,0.16741943,17.71875,-7.34375,-5.40625,518
519,1695772774314,-0.08520508,-1.0379028,0.07928467,-0.609375,-9.078125,-8.703125,519
520,1695772774354,-0.21142578,-1.010315,0.070739746,-4.75,-7.84375,2.234375,520
521,1695772774394,-0.17041016,-0.911438,0.11175537,7.65625,-0.109375,-2.953125,521
522,1695772774434,-0.16137695,-1.0745239,0.10882568,-5.109375,-5.671875,-6.6875,522
523,1695772774474,-0.1652832,-0.98272705,0.121032715,-9.046875,1.015625,-5.984375,523
524,1695772774514,-0.14819336,-0.9661255,0.12445068,-0.765625,-0.25,-3.453125,524
525,1695772774554,-0.19848633,-0.9483032,0.11834717,-0.75,-5.078125,2.640625,525
526,1695772774594,-0.15844727,-0.9710083,0.14471436,0.84375,-3.25,1.546875,526
527,1695772774634,-0.15698242,-1.034729,0.12005615,0.140625,0.90625,-0.578125,527
528,1695772774674,-0.18359375,-0.97906494,0.10614014,-0.6875,2.390625,5.15625,528
529,1695772774714,-0.15722656,-0.9536743,0.11151123,3.078125,0.140625,2.078125,529
530,1695772774754,-0.122558594,-1.0237427,0.10736084,-0.671875,1.421875,0.609375,530
531,1695772774794,-0.14770508,-0.9854126,0.08782959,-0.6875,2.0625,2.4375,531
532,1695772774834,-0.13745117,-0.99664307,0.094177246,4.28125,1.5625,0.140625,532
533,1695772774874,-0.17236328,-1.003479,0.11029053,-0.234375,2.796875,1.5625,533
534,1695772774914,-0.14013672,-1.0020142,0.09613037,0.65625,4.6875,5.265625,534
535,1695772774954,-0.12475586,-0.9651489,0.093688965,0.09375,4.46875,5.953125,535
536,1695772774994,-0.13745117,-0.9783325,0.07562256,1.078125,4.0,4.390625,536
537,1695772775034,-0.1171875,-1.0071411,0.07952881,2.328125,5.90625,4.640625,537
538,1695772775074,-0.04711914,-0.9985962,0.08050537,-1.234375,2.4375,3.671875,538
539,1695772775114,-0.08862305,-1.0110474,0.07928467,-3.5625,-1.859375,5.78125,539
540,1695772775154,-0.09472656,-0.9841919,0.08782959,-1.015625,0.109375,4.46875,540
541,1695772775194,-0.10864258,-0.9741821,0.093688965,1.21875,-0.109375,2.984375,541
542,1695772775234,-0.13574219,-0.9998169,0.09613037,-1.359375,2.75,0.625,542
543,1695772775274,-0.084228516,-1.0327759,0.07293701,-2.765625,4.765625,1.125,543
544,1695772775314,-0.05859375,-1.0132446,0.08758545,-1.90625,4.515625,4.84375,544
545,1695772775354,-0.032958984,-1.0083618,0.09051514,-0.515625,4.890625,4.375,545
546,1695772775394,-0.009765625,-0.98394775,0.07196045,-3.328125,1.28125,-0.078125,546
547,1695772775434,-0.034423828,-0.96539307,0.0770874,-5.5,-4.234375,-2.515625,547
548,1695772775474,-0.064208984,-0.97052,0.10760498,-0.40625,-5.921875,-1.90625,548
549,1695772775514,-0.099365234,-1.013977,0.14202881,-4.734375,-7.5,-0.15625,549
550,1695772775554,-0.080566406,-0.9768677,0.13323975,-3.421875,-5.5,-2.84375,550
551,1695772775594,-0.10986328,-1.0134888,0.12054443,0.375,-1.3125,-1.703125,551
552,1695772775634,-0.088378906,-1.0083618,0.12445068,-6.28125,0.3125,-0.59375,552
553,1695772775674,-0.061523438,-0.9819946,0.11663818,-3.890625,-0.234375,-1.125,553
554,1695772775714,-0.06567383,-0.9456177,0.13250732,0.703125,1.6875,-0.5625,554
555,1695772775754,-0.08520508,-1.0046997,0.1461792,-2.21875,1.734375,-2.46875,555
556,1695772775794,-0.0715332,-0.9807739,0.14276123,-2.421875,2.03125,-2.203125,556
557,1695772775834,-0.037353516,-0.9898071,0.11248779,-2.859375,1.640625,-3.5625,557
558,1695772775874,-0.068115234,-1.0247192,0.124938965,-3.53125,-0.53125,-0.65625,558
559,1695772775914,-0.14208984,-1.0166626,0.14544678,-3.171875,-1.984375,1.78125,559
560,1695772775954,-0.10131836,-0.9817505,0.168396,-2.640625,-1.265625,-0.921875,560
561,1695772775994,-0.15625,-0.99053955,0.14910889,-3.890625,-0.4375,0.171875,561
562,1695772776034,-0.13427734,-0.94732666,0.14056396,0.734375,3.0625,-2.53125,562
563,1695772776074,-0.048828125,-0.9763794,0.15814209,2.140625,7.09375,-4.1875,563
564,1695772776114,-0.012207031,-0.97198486,0.1293335,-3.703125,2.6875,-2.3125,564
565,1695772776154,-0.083496094,-1.0032349,0.12371826,-5.5625,-3.546875,-0.171875,565
566,1695772776194,-0.10107422,-1.0332642,0.168396,-3.28125,-5.203125,-4.703125,566
567,1695772776234,-0.1328125,-1.0308228,0.14422607,-4.09375,-4.640625,-6.09375,567
568,1695772776274,-0.11694336,-0.9614868,0.17547607,-0.671875,-2.234375,-5.03125,568
569,1695772776314,-0.1628418,-0.9902954,0.1720581,0.671875,-1.40625,-2.140625,569
570,1695772776354,-0.1899414,-0.9717407,0.15447998,-2.515625,0.609375,-0.078125,570
571,1695772776394,-0.111816406,-0.9649048,0.1642456,0.296875,3.03125,-3.78125,571
572,1695772776434,-0.06298828,-0.99102783,0.16546631,-0.515625,2.078125,-3.0625,572
573,1695772776474,-0.12402344,-1.0029907,0.16278076,-2.109375,0.609375,0.859375,573
574,1695772776514,-0.107910156,-0.9949341,0.17401123,0.890625,-0.8125,-1.53125,574
575,1695772776554,-0.14111328,-0.9968872,0.15325928,0.28125,-1.6875,-2.28125,575
576,1695772776594,-0.12915039,-0.973938,0.15667725,0.453125,0.03125,-4.5,576
577,1695772776634,-0.15527344,-0.9727173,0.1630249,0.796875,-1.703125,-4.0,577
578,1695772776674,-0.15283203,-1.0027466,0.1539917,0.90625,0.28125,-2.0,578
579,1695772776714,-0.12915039,-0.9717407,0.15887451,-0.765625,-0.28125,-1.390625,579
580,1695772776754,-0.17285156,-0.99664307,0.14984131,0.375,-1.203125,-1.515625,580
581,1695772776794,-0.14941406,-0.96099854,0.15130615,1.078125,0.390625,-2.78125,581
582,1695772776834,-0.15820312,-1.0186157,0.15789795,0.953125,-0.515625,-2.734375,582
583,1695772776874,-0.16235352,-0.9795532,0.13079834,-1.0,1.0,-1.296875,583
584,1695772776914,-0.13500977,-0.99468994,0.14691162,0.078125,-0.890625,-4.65625,584
585,1695772776954,-0.18041992,-0.98931885,0.14422607,1.125,0.3125,0.921875,585
586,1695772776994,-0.17358398,-0.97857666,0.1539917,1.03125,-1.0625,-2.5625,586
587,1695772777034,-0.20996094,-0.97491455,0.13739014,1.078125,-0.59375,-2.9375,587
588,1695772777074,-0.1821289,-0.9612427,0.13226318,-1.8125,0.640625,-5.265625,588
589,1695772777114,-0.1850586,-0.9819946,0.14300537,0.921875,0.796875,-1.234375,589
590,1695772777154,-0.13867188,-0.9932251,0.14300537,-1.796875,0.203125,-1.3125,590
591,1695772777194,-0.16821289,-1.0044556,0.1708374,-1.953125,-3.09375,-0.953125,591
592,1695772777234,-0.18017578,-1.0010376,0.13665771,-0.484375,-0.765625,1.546875,592
593,1695772777274,-0.18286133,-0.96099854,0.14349365,-1.09375,-1.46875,-0.6875,593
594,1695772777314,-0.19067383,-0.95880127,0.14349365,2.859375,-2.296875,-0.453125,594
595,1695772777354,-0.20141602,-1.0117798,0.14276123,-2.375,-1.140625,-1.65625,595
596,1695772777394,-0.17797852,-0.9710083,0.15057373,3.078125,0.390625,-0.203125,596
597,1695772777434,-0.17163086,-1.0269165,0.11981201,1.640625,-0.765625,0.625,597
598,1695772777474,-0.19873047,-0.9434204,0.121032715,-1.828125,2.203125,2.984375,598
599,1695772777514,-0.17529297,-0.98150635,0.14886475,3.171875,1.609375,0.484375,599
600,1695772777554,-0.18139648,-1.0171509,0.14349365,-3.578125,2.84375,1.46875,600
601,1695772777594,-0.15991211,-0.95684814,0.113708496,-3.5625,3.328125,-1.203125,601
602,1695772777634,-0.1694336,-0.9529419,0.15325928,1.515625,5.40625,0.234375,602
603,1695772777674,-0.1772461,-1.0178833,0.15008545,6.015625,7.125,6.0,603
604,1695772777714,-0.18481445,-0.96588135,0.11956787,2.96875,4.0625,5.125,604
605,1695772777754,-0.13598633,-0.9981079,0.13739014,3.421875,6.15625,0.765625,605
606,1695772777794,-0.1538086,-0.99884033,0.105895996,3.0625,5.96875,3.21875,606
607,1695772777834,-0.1459961,-0.9805298,0.1005249,2.6875,7.046875,5.0625,607
608,1695772777874,-0.15112305,-1.0007935,0.08319092,0.875,3.78125,3.875,608
609,1695772777914,-0.1262207,-0.9780884,0.078552246,0.6875,8.34375,-0.390625,609
610,1695772777954,-0.1171875,-1.039856,0.12322998,6.015625,6.8125,3.890625,610
611,1695772777994,-0.13232422,-0.9614868,0.11004639,-2.28125,0.59375,3.109375,611
612,1695772778034,-0.15307617,-0.9714966,0.14251709,-2.515625,-2.640625,1.921875,612
613,1695772778074,-0.10498047,-0.9734497,0.090026855,-1.46875,1.421875,-0.5,613
614,1695772778114,-0.12939453,-1.0674438,0.10784912,2.765625,1.609375,4.0625,614
615,1695772778154,-0.1394043,-1.0681763,0.054382324,1.46875,-1.921875,8.296875,615
616,1695772778194,-0.17749023,-0.95098877,0.07904053,3.390625,8.578125,11.25,616
617,1695772778234,-0.03515625,-0.87628174,0.06536865,3.8125,8.75,2.84375,617
618,1695772778274,-0.14624023,-0.9446411,0.04534912,-2.203125,1.234375,6.609375,618
619,1695772778314,0.049072266,-0.96881104,0.093444824,9.5625,3.71875,1.28125,619
620,1695772778354,0.028808594,-1.114563,0.12322998,-1.34375,-1.78125,-4.921875,620
621,1695772778394,-0.048339844,-0.9846802,0.07757568,-3.859375,-8.828125,0.359375,621
622,1695772778434,-0.09106445,-0.9717407,0.047790527,-2.515625,-8.875,-4.375,622
623,1695772778474,-0.13745117,-0.97125244,0.105651855,-2.046875,-3.3125,5.28125,623
624,1695772778514,-0.10449219,-1.0064087,0.101989746,3.171875,0.390625,2.25,624
625,1695772778554,-0.115234375,-0.9985962,0.06488037,-2.203125,-0.234375,2.1875,625
626,1695772778594,-0.07299805,-0.96051025,0.101257324,-0.203125,1.90625,-0.765625,626
627,1695772778634,-0.08325195,-1.0286255,0.07269287,-0.796875,4.671875,4.21875,627
628,1695772778674,-0.048095703,-0.986145,0.074157715,-3.609375,2.734375,5.09375,628
629,1695772778714,-0.032226562,-1.0230103,0.105895996,1.75,3.84375,1.484375,629
630,1695772778754,-0.032226562,-0.9793091,0.07611084,-2.0625,1.875,1.375,630
631,1695772778794,-0.045654297,-0.98565674,0.07513428,-3.9375,-1.75,-1.1875,631
632,1695772778834,-0.052978516,-0.99591064,0.061950684,-5.265625,-2.75,-2.0,632
633,1695772778874,-0.06933594,-0.95758057,0.08905029,-3.953125,1.859375,-1.328125,633
634,1695772778914,-0.07739258,-1.0154419,0.14666748,2.65625,4.515625,3.03125,634
635,1695772778954,-0.075927734,-1.0310669,0.10321045,-4.546875,0.90625,1.328125,635
636,1695772778994,-0.049560547,-0.98321533,0.078308105,-2.21875,3.203125,-1.625,636
637,1695772779034,-0.016113281,-0.98883057,0.07952881,1.03125,4.578125,-0.84375,637
638,1695772779074,-0.03173828,-1.005188,0.093933105,0.359375,-1.71875,2.53125,638
639,1695772779114,-0.049560547,-1.0027466,0.101257324,-0.671875,-5.125,0.34375,639
640,1695772779154,-0.0859375,-1.0278931,0.09173584,-2.078125,-0.640625,-1.0,640
641,1695772779194,-0.083740234,-0.9692993,0.101989746,-1.65625,0.421875,-2.203125,641
642,1695772779234,-0.052978516,-0.9536743,0.10760498,0.71875,4.90625,-2.046875,642
643,1695772779274,0.033203125,-0.94000244,0.081970215,-3.8125,1.71875,-6.421875,643
644,1695772779314,-0.0087890625,-1.0623169,0.08929443,-5.40625,-5.734375,-10.984375,644
645,1695772779354,-0.084472656,-1.0825806,0.08758545,0.90625,-9.3125,-5.328125,645
646,1695772779394,-0.111572266,-0.95977783,0.11785889,-0.640625,-9.125,-5.890625,646
647,1695772779434,-0.1586914,-0.9692993,0.08050537,0.828125,-6.234375,-7.421875,647
648,1695772779474,-0.12670898,-0.9746704,0.10369873,-5.21875,-4.453125,-8.84375,648
649,1695772779514,-0.1237793,-0.9841919,0.11395264,-0.375,-5.859375,-6.796875,649
650,1695772779554,-0.14892578,-0.9944458,0.101745605,-3.65625,-4.703125,-4.921875,650
651,1695772779594,-0.118652344,-0.9780884,0.12249756,-3.84375,-3.953125,-5.875,651
652,1695772779634,-0.15551758,-1.0254517,0.10443115,-3.75,-4.265625,-2.84375,652
653,1695772779674,-0.14404297,-0.9795532,0.124694824,-2.421875,-2.46875,-2.515625,653
654,1695772779714,-0.17504883,-0.99346924,0.1317749,-1.71875,-2.0,-1.578125,654
655,1695772779754,-0.1381836,-0.9717407,0.1293335,-3.421875,-0.171875,-2.796875,655
656,1695772779794,-0.17822266,-0.99542236,0.11956787,-5.046875,0.140625,-0.71875,656
657,1695772779834,-0.14355469,-0.9385376,0.16522217,0.375,2.671875,-1.296875,657
658,1695772779874,-0.16674805,-1.0112915,0.1473999,3.859375,2.703125,1.53125,658
659,1695772779914,-0.16870117,-1.00177,0.12322998,-5.109375,0.40625,2.96875,659
660,1695772779954,-0.119384766,-0.9614868,0.11053467,-0.46875,0.75,-0.25,660
661,1695772779994,-0.14331055,-1.022522,0.13861084,0.03125,0.0,1.828125,661
662,1695772780034,-0.1640625,-0.9776001,0.1149292,-2.40625,-1.671875,1.84375,662
663,1695772780074,-0.14282227,-0.9746704,0.1437378,0.359375,-1.375,-0.765625,663
664,1695772780114,-0.13842773,-0.98931885,0.11859131,1.71875,-0.546875,-0.15625,664
665,1695772780154,-0.13623047,-1.00177,0.12786865,-1.078125,-0.953125,-0.0625,665
666,1695772780194,-0.12475586,-0.9859009,0.12054443,-1.5,-1.09375,0.65625,666
667,1695772780234,-0.14697266,-0.98809814,0.121276855,-0.328125,0.1875,1.125,667
668,1695772780274,-0.111083984,-0.9824829,0.14105225,-0.328125,-0.75,-0.5625,668
669,1695772780314,-0.14086914,-0.9985962,0.13934326,-2.203125,-3.125,-0.1875,669
670,1695772780354,-0.12670898,-0.97442627,0.12200928,-0.046875,-0.65625,-1.34375,670
671,1695772780394,-0.15307617,-1.017395,0.14007568,1.0,-2.390625,1.25,671
672,1695772780434,-0.14501953,-0.9627075,0.10369873,0.40625,0.765625,1.421875,672
673,1695772780474,-0.115478516,-0.9776001,0.13397217,0.9375,0.046875,-0.09375,673
674,1695772780514,-0.14990234,-1.0098267,0.12567139,-0.953125,-1.015625,1.9375,674
675,1695772780554,-0.15527344,-1.0093384,0.11419678,-3.25,-0.96875,2.4375,675
676,1695772780594,-0.21411133,-0.9841919,0.12176514,1.75,1.6875,10.265625,676
677,1695772780634,-0.06738281,-0.9768677,0.11541748,-2.640625,5.75,1.34375,677
678,1695772780674,-0.1015625,-1.0115356,0.1071167,-0.921875,2.34375,4.71875,678
679,1695772780714,-0.087402344,-1.0200806,0.10760498,0.359375,1.53125,3.46875,679
680,1695772780754,-0.115478516,-0.960022,0.14300537,2.34375,0.265625,6.9375,680
681,1695772780794,-0.09277344,-0.97784424,0.121520996,-3.328125,1.34375,4.65625,681
682,1695772780834,-0.020751953,-0.9668579,0.15008545,-2.875,1.421875,-0.390625,682
683,1695772780874,-0.07470703,-1.0454712,0.116882324,1.046875,0.53125,3.296875,683
684,1695772780914,-0.061279297,-0.9402466,0.11639404,-1.921875,2.609375,0.875,684
685,1695772780954,-0.099853516,-1.0310669,0.15594482,3.0625,1.609375,2.4375,685
686,1695772780994,-0.055908203,-1.0098267,0.105895996,-2.546875,5.34375,0.171875,686
687,1695772781034,-0.06542969,-0.9854126,0.10345459,1.265625,3.796875,0.5625,687
688,1695772781074,-0.07348633,-0.9771118,0.117370605,1.828125,5.9375,2.53125,688
689,1695772781114,-0.07299805,-0.95928955,0.11248779,0.171875,4.8125,2.1875,689
690,1695772781154,-0.0859375,-1.0256958,0.11932373,3.765625,2.71875,0.125,690
691,1695772781194,-0.04248047,-0.9768677,0.105163574,-3.1875,1.96875,-1.109375,691
692,1695772781234,-0.08276367,-0.9939575,0.097839355,-1.1875,2.921875,-3.21875,692
693,1695772781274,-0.01586914,-0.99005127,0.11932373,-1.140625,5.671875,-3.734375,693
694,1695772781314,-0.021484375,-1.0061646,0.13519287,0.765625,4.203125,-1.96875,694
695,1695772781354,-0.06274414,-1.0015259,0.08880615,-1.390625,2.078125,-4.140625,695
696,1695772781394,-0.095947266,-1.0349731,0.124694824,-2.890625,-0.625,-7.078125,696
697,1695772781434,-0.14453125,-1.0171509,0.11663818,-1.171875,3.859375,-2.578125,697
698,1695772781474,-0.16552734,-0.99957275,0.074645996,11.984375,10.3125,8.078125,698
699,1695772781514,-0.07128906,-1.0025024,0.12347412,3.921875,6.15625,6.5,699
700,1695772781554,-0.05859375,-0.94244385,0.06878662,-8.34375,2.890625,0.328125,700
701,1695772781594,-0.091308594,-1.0220337,0.08831787,8.296875,3.5625,-2.46875,701
702,1695772781634,-0.05126953,-0.9639282,0.057556152,4.875,2.609375,-0.6875,702
703,1695772781674,-0.020507812,-0.925354,0.08294678,8.546875,-2.3125,-1.640625,703
704,1695772781714,-0.022460938,-0.9607544,0.066101074,-0.890625,-3.4375,1.25,704
705,1695772781754,-0.07324219,-0.97613525,0.08123779,-5.609375,-7.359375,-4.15625,705
706,1695772781794,-0.07421875,-1.0689087,0.08831787,-5.84375,-8.46875,-7.515625,706
707,1695772781834,-0.041015625,-1.036438,0.11175537,-3.828125,-4.140625,-8.03125,707
708,1695772781874,-0.12060547,-1.0352173,0.07879639,-4.09375,-3.625,0.59375,708
709,1695772781914,-0.1977539,-0.9522095,0.07635498,-4.03125,-6.46875,0.921875,709
710,1695772781954,-0.10864258,-0.9365845,0.117126465,1.125,-1.90625,-5.25,710
711,1695772781994,-0.08642578,-1.0369263,0.09197998,-4.71875,0.53125,-5.078125,711
712,1695772782034,-0.096191406,-0.9932251,0.08758545,-3.671875,-1.78125,-1.96875,712
713,1695772782074,-0.09838867,-0.9920044,0.121032715,1.953125,-5.5625,-1.140625,713
714,1695772782114,-0.107666016,-0.99176025,0.08294678,-7.78125,-6.4375,-2.78125,714
715,1695772782154,-0.10839844,-0.97857666,0.1227417,-4.140625,-4.765625,-4.0625,715
716,1695772782194,-0.13696289,-1.0276489,0.12957764,4.859375,-4.46875,-1.734375,716
717,1695772782234,-0.17382812,-1.0020142,0.10614014,-5.65625,-2.65625,3.03125,717
718,1695772782274,-0.15039062,-0.9246216,0.12200928,-4.75,3.0625,-0.390625,718
719,1695772782314,-0.12646484,-0.97857666,0.15423584,2.03125,3.515625,1.140625,719
720,1695772782354,-0.10522461,-1.0171509,0.152771,0.5625,4.375,2.515625,720
721,1695772782394,-0.1184082,-1.0359497,0.12884521,-0.96875,2.171875,0.671875,721
722,1695772782434,-0.09301758,-0.9439087,0.13372803,1.953125,5.703125,1.765625,722
723,1695772782474,-0.075683594,-0.9710083,0.10418701,1.984375,1.765625,-0.4375,723
724,1695772782514,-0.122558594,-1.0054321,0.105407715,-1.96875,-1.546875,2.0625,724
725,1695772782554,-0.14794922,-0.9817505,0.13470459,2.59375,3.75,2.421875,725
726,1695772782594,-0.12524414,-1.0335083,0.11883545,-1.171875,3.453125,-0.84375,726
727,1695772782634,-0.0925293,-0.96539307,0.09906006,-3.109375,2.734375,-1.59375,727
728,1695772782674,-0.083740234,-1.0046997,0.11151123,1.375,3.71875,-1.140625,728
729,1695772782714,-0.09399414,-0.9866333,0.11077881,-0.25,1.6875,0.421875,729
730,1695772782754,-0.10986328,-1.0105591,0.12298584,1.546875,-2.265625,-1.890625,730
731,1695772782794,-0.091796875,-0.97540283,0.11053467,1.46875,0.203125,-2.984375,731
732,1695772782834,-0.091796875,-0.9849243,0.10369873,1.234375,-0.484375,-1.921875,732
733,1695772782874,-0.11621094,-0.98809814,0.093688965,1.234375,-2.21875,-2.375,733
734,1695772782914,-0.11621094,-1.0078735,0.10394287,-1.1875,-3.890625,-3.65625,734
735,1695772782954,-0.12207031,-1.0059204,0.09515381,0.859375,-1.75,-3.515625,735
736,1695772782994,-0.13452148,-1.0237427,0.090270996,-1.125,-1.03125,-3.671875,736
737,1695772783034,-0.1508789,-0.98516846,0.11029053,0.921875,-1.078125,-0.125,737
738,1695772783074,-0.16137695,-1.0064087,0.09246826,-1.53125,0.9375,2.15625,738
739,1695772783114,-0.15332031,-0.9534302,0.09197998,-1.8125,1.21875,1.453125,739
740,1695772783154,-0.10913086,-1.0039673,0.09686279,0.828125,4.296875,1.90625,740
741,1695772783194,-0.10229492,-0.98687744,0.074401855,-1.78125,3.21875,3.5625,741
742,1695772783234,-0.11254883,-0.9795532,0.11102295,4.984375,2.4375,4.25,742
743,1695772783274,-0.114990234,-0.9949341,0.09490967,0.984375,-1.03125,2.078125,743
744,1695772783314,-0.095214844,-0.9849243,0.08123779,-9.6875,-5.5625,-1.9375,744
745,1695772783354,-0.12060547,-0.98321533,0.08441162,-7.125,-4.25,-3.5625,745
746,1695772783394,-0.091552734,-0.9824829,0.117614746,0.5625,-0.890625,-2.546875,746
747,1695772783434,-0.12866211,-1.0100708,0.11517334,-4.453125,-3.234375,1.1875,747
748,1695772783474,-0.13647461,-0.9871216,0.1239624,-6.34375,-0.609375,-1.328125,748
749,1695772783514,-0.11010742,-1.0232544,0.14056396,-8.28125,4.265625,-2.59375,749
750,1695772783554,-0.11206055,-1.0159302,0.14935303,-6.390625,5.78125,-1.46875,750
751,1695772783594,-0.17382812,-0.94317627,0.1383667,7.203125,6.859375,3.703125,751
752,1695772783634,-0.08618164,-1.0652466,0.098083496,15.671875,8.71875,5.859375,752
753,1695772783674,-0.07348633,-0.9077759,0.054870605,2.671875,-0.328125,6.640625,753
754,1695772783714,-0.06689453,-0.9534302,0.08074951,10.734375,-2.0,1.40625,754
755,1695772783754,-0.10131836,-1.0108032,0.1281128,-2.875,-1.734375,-1.53125,755
756,1695772783794,-0.111816406,-0.98883057,0.0836792,-4.265625,-6.875,-0.109375,756
757,1695772783834,-0.111572266,-1.0254517,0.11663818,-1.9375,-2.78125,-2.421875,757
758,1695772783874,-0.099365234,-0.99346924,0.10760498,3.5,2.625,1.046875,758
759,1695772783914,-0.11987305,-0.9968872,0.059265137,-1.78125,-1.140625,2.9375,759
