,timestamp,accel_x,accel_y,accel_z,gyro_x,gyro_y,gyro_z,ind
0,1695773099423,-0.04736328,-0.94195557,0.11175537,-1.625,0.25,-0.671875,0
1,1695773099463,-0.08642578,-1.0513306,0.015319824,-9.046875,-1.109375,-1.609375,1
2,1695773099503,-0.06762695,-0.9356079,0.05291748,3.125,10.59375,0.03125,2
3,1695773099543,0.041259766,-1.0830688,0.14910889,22.546875,13.8125,1.171875,3
4,1695773099583,-0.13769531,-1.020813,0.05999756,-7.984375,-0.09375,12.53125,4
5,1695773099623,-0.06640625,-0.81256104,-0.009094238,-4.515625,-0.40625,-6.65625,5
6,1695773099663,0.03466797,-1.065979,0.08294678,16.859375,6.875,-5.234375,6
7,1695773099703,-0.040039062,-1.0872192,0.101501465,-3.25,-0.796875,10.125,7
8,1695773099743,-0.0546875,-0.92926025,-0.018615723,-6.6875,-1.203125,1.1875,8
9,1695773099783,0.0068359375,-0.99884033,0.04437256,12.5,8.609375,-4.25,9
10,1695773099823,-0.05444336,-1.0339966,0.018249512,-7.046875,-1.171875,4.90625,10
11,1695773099863,-0.07080078,-0.9143677,0.06781006,-2.59375,-0.546875,4.015625,11
12,1695773099903,0.0034179688,-1.0007935,0.07122803,11.328125,5.71875,-6.6875,12
13,1695773099943,-0.09765625,-1.0198364,-0.0029907227,-16.78125,-0.625,-0.859375,13
14,1695773099983,0.00024414062,-0.91534424,0.09857178,-1.328125,5.203125,-7.390625,14
15,1695773100023,0.004638672,-1.1167603,0.07220459,-8.375,-0.484375,2.359375,15
16,1695773100063,0.00048828125,-0.9636841,0.09442139,-28.328125,-5.3125,4.203125,16
17,1695773100103,-0.06201172,-0.99468994,0.121032715,5.640625,-5.296875,-0.875,17
18,1695773100143,-0.02319336,-1.0286255,0.07098389,2.109375,-2.46875,1.625,18
19,1695773100183,-0.099365234,-0.9331665,0.070251465,-3.890625,-0.65625,3.3125,19
20,1695773100223,0.024414062,-0.954895,0.09613037,14.296875,2.96875,-6.484375,20
21,1695773100263,-0.026367188,-1.1121216,0.070007324,-5.546875,-3.96875,2.15625,21
22,1695773100303,-0.017089844,-0.89019775,0.06707764,-4.484375,-2.75,1.875,22
23,1695773100343,-0.009033203,-1.0195923,0.05633545,2.484375,-2.09375,-6.0,23
24,1695773100383,-0.009277344,-1.0071411,0.10223389,-2.15625,1.140625,-2.53125,24
25,1695773100423,-0.05859375,-1.0073853,0.10809326,0.640625,-3.40625,-1.65625,25
26,1695773100463,-0.05834961,-1.0083618,0.06854248,-4.734375,-5.21875,-3.09375,26
27,1695773100503,-0.06347656,-0.96051025,0.046081543,2.984375,-0.046875,-1.53125,27
28,1695773100543,-0.04296875,-1.0352173,0.08905029,11.140625,2.453125,-5.640625,28
29,1695773100583,-0.04663086,-0.97491455,0.17791748,12.8125,2.96875,-1.59375,29
30,1695773100623,-0.14453125,-1.0454712,0.0060424805,-0.46875,-2.4375,9.640625,30
31,1695773100663,-0.115722656,-0.89508057,0.005554199,-6.59375,6.015625,0.0,31
32,1695773100703,-0.025878906,-1.1091919,0.062683105,9.796875,10.28125,0.578125,32
33,1695773100743,0.018798828,-0.9492798,0.08929443,10.375,14.984375,15.921875,33
34,1695773100783,-0.11791992,-1.0527954,0.058532715,6.75,7.03125,21.71875,34
35,1695773100823,-0.07885742,-0.90411377,0.041931152,-3.078125,6.546875,1.859375,35
36,1695773100863,0.091796875,-0.96295166,-0.097961426,1.6875,9.359375,-0.421875,36
37,1695773100903,0.08862305,-1.0247192,-0.003479004,-2.859375,5.703125,8.15625,37
38,1695773100943,0.12231445,-0.95562744,0.04925537,7.703125,-2.140625,-1.125,38
39,1695773100983,0.08154297,-1.0628052,0.051696777,-5.328125,-8.28125,1.71875,39
40,1695773101023,0.096191406,-0.79888916,-0.022277832,-5.453125,-9.453125,-9.953125,40
41,1695773101063,-0.16186523,-1.0476685,0.0758667,12.625,-13.609375,3.359375,41
42,1695773101103,0.03930664,-0.9126587,0.015808105,5.40625,-2.59375,17.1875,42
43,1695773101143,-0.024902344,-1.0261841,-0.034484863,-18.359375,-3.203125,-8.75,43
44,1695773101183,0.14868164,-0.9492798,0.06585693,6.90625,5.5625,-20.5,44
45,1695773101223,-0.21459961,-1.2940063,0.121276855,16.5625,-28.84375,1.46875,45
46,1695773101263,0.01953125,-0.69659424,-0.050598145,-5.765625,13.671875,17.484375,46
47,1695773101303,0.036376953,-0.973938,0.008972168,-27.453125,10.484375,-22.6875,47
48,1695773101343,0.07763672,-0.85235596,0.12884521,2.6875,3.203125,-19.015625,48
49,1695773101383,-0.24804688,-1.3984985,0.16082764,26.671875,-23.40625,19.4375,49
50,1695773101423,0.10473633,-0.6411743,-0.117492676,-13.15625,21.25,31.59375,50
51,1695773101463,0.13842773,-0.8230591,0.009216309,-16.875,6.703125,-26.515625,51
52,1695773101503,0.064208984,-1.170227,0.117126465,-0.734375,0.0625,-20.9375,52
53,1695773101543,-0.0859375,-1.1951294,0.18939209,6.046875,-18.0625,14.453125,53
54,1695773101583,-0.08203125,-0.7686157,0.00091552734,-2.3125,2.828125,11.78125,54
55,1695773101623,0.009033203,-0.9541626,0.074645996,-8.0,0.25,-21.421875,55
56,1695773101663,-0.032958984,-1.1026001,0.11541748,-19.34375,6.328125,-4.34375,56
57,1695773101703,-0.08642578,-0.9199829,0.11419678,-0.21875,3.90625,10.03125,57
58,1695773101743,-0.125,-1.0913696,0.18670654,21.984375,9.28125,4.65625,58
59,1695773101783,0.016113281,-1.0325317,0.11639404,-6.640625,6.765625,0.703125,59
60,1695773101823,0.0075683594,-0.9182739,0.03265381,-17.609375,0.75,0.625,60
61,1695773101863,-0.072509766,-1.0444946,0.10296631,11.46875,8.546875,11.890625,61
62,1695773101903,-0.008300781,-0.9314575,0.08514404,11.25,-2.359375,7.421875,62
63,1695773101943,0.091308594,-0.9924927,0.031921387,18.546875,12.890625,13.921875,63
64,1695773101983,0.041015625,-0.99884033,0.010681152,-0.9375,-10.1875,5.125,64
65,1695773102023,0.0871582,-0.90704346,-0.024719238,-8.09375,-1.71875,-3.796875,65
66,1695773102063,0.10229492,-1.1345825,-0.035949707,-14.140625,3.046875,-7.328125,66
67,1695773102103,0.033447266,-0.90875244,0.12371826,4.046875,7.015625,6.9375,67
68,1695773102143,-0.01953125,-1.0396118,0.16033936,18.078125,-3.984375,5.15625,68
69,1695773102183,-0.017822266,-0.9038696,0.020690918,-14.984375,-11.203125,5.59375,69
70,1695773102223,0.08666992,-0.8635864,-0.004699707,-15.625,3.90625,-24.453125,70
71,1695773102263,0.092285156,-1.234436,0.12738037,-3.890625,4.265625,-11.453125,71
72,1695773102303,0.0234375,-0.97491455,0.16790771,6.9375,-9.734375,14.46875,72
73,1695773102343,-0.06933594,-1.0247192,0.029724121,-2.234375,-5.75,14.5,73
74,1695773102383,0.05834961,-0.788147,0.016540527,-20.171875,1.59375,-23.46875,74
75,1695773102423,0.09082031,-1.1958618,0.109558105,-9.4375,4.609375,-15.34375,75
76,1695773102463,0.0026855469,-0.9380493,0.109802246,4.96875,-3.109375,19.015625,76
77,1695773102503,-0.0859375,-0.97442627,0.1149292,8.171875,-4.25,10.234375,77
78,1695773102543,0.0234375,-0.87823486,0.08416748,-13.1875,-0.859375,-17.140625,78
79,1695773102583,0.115722656,-1.1309204,0.105163574,-14.625,-0.4375,-15.65625,79
80,1695773102623,0.02319336,-1.0178833,0.09539795,-2.46875,-2.125,13.703125,80
81,1695773102663,-0.08520508,-0.9155884,0.17572021,13.59375,2.78125,10.875,81
82,1695773102703,-0.010986328,-1.0042114,0.16204834,-3.59375,0.25,-7.453125,82
83,1695773102743,-0.005126953,-1.0420532,0.113464355,-4.234375,-2.0,-4.1875,83
84,1695773102783,0.083984375,-0.9956665,-0.01373291,17.28125,8.609375,-0.03125,84
85,1695773102823,0.018310547,-1.0391235,0.09466553,10.453125,12.09375,13.625,85
86,1695773102863,0.041748047,-0.9763794,0.20697021,7.578125,8.71875,-2.125,86
87,1695773102903,0.05810547,-0.9224243,0.14691162,-5.734375,-12.09375,0.65625,87
88,1695773102943,0.041503906,-1.0733032,-0.094055176,2.171875,-3.296875,-3.453125,88
89,1695773102983,0.020019531,-0.8140259,0.12908936,14.21875,6.421875,-2.375,89
90,1695773103023,0.024169922,-1.1382446,0.11956787,2.921875,1.25,3.265625,90
91,1695773103063,0.04248047,-0.81427,0.020202637,-21.640625,-3.859375,-1.78125,91
92,1695773103103,0.0043945312,-1.0679321,-0.06890869,7.78125,-1.203125,-9.328125,92
93,1695773103143,0.109375,-1.0838013,0.15765381,8.25,4.84375,4.90625,93
94,1695773103183,-0.100097656,-0.93341064,0.05682373,-8.9375,-0.1875,7.015625,94
95,1695773103223,-0.01586914,-0.95684814,0.07366943,-3.046875,4.484375,-13.265625,95
96,1695773103263,0.07470703,-1.02594,0.024597168,-2.21875,-1.234375,-5.859375,96
97,1695773103303,0.01977539,-1.0027466,0.10223389,-2.125,8.609375,5.6875,97
98,1695773103343,-0.13623047,-0.9614868,0.113464355,-8.296875,-0.71875,1.875,98
99,1695773103383,-0.016357422,-1.008606,0.062927246,-4.5625,0.5,-8.453125,99
100,1695773103423,0.075683594,-1.0706177,0.04559326,-2.90625,-0.1875,-3.140625,100
101,1695773103463,0.15625,-0.9378052,0.1798706,6.765625,7.921875,5.859375,101
102,1695773103503,-0.18920898,-0.94244385,0.12762451,-20.4375,-7.234375,-0.328125,102
103,1695773103543,-0.036132812,-0.9192505,0.15667725,-12.4375,0.5625,-0.578125,103
104,1695773103583,-0.013671875,-1.1287231,-6.1035156e-05,10.84375,-4.234375,-2.328125,104
105,1695773103623,0.064453125,-1.0217896,0.19256592,-1.828125,13.921875,15.984375,105
106,1695773103663,0.15185547,-0.78448486,0.08905029,-5.171875,2.359375,-5.0625,106
107,1695773103703,-0.005126953,-1.0750122,0.14129639,-12.78125,-4.96875,-14.4375,107
108,1695773103743,0.016357422,-0.94195557,0.21502686,8.4375,-16.15625,2.140625,108
109,1695773103783,-0.060058594,-1.3023071,0.016540527,19.21875,-11.265625,3.1875,109
110,1695773103823,0.099121094,-0.74542236,0.19110107,-6.390625,23.421875,-14.90625,110
111,1695773103863,-0.005859375,-0.94000244,0.0692749,-3.703125,-1.90625,-17.328125,111
112,1695773103903,-0.118896484,-1.0654907,0.124694824,-11.984375,-0.3125,6.359375,112
113,1695773103943,-0.044433594,-0.90093994,0.2736206,23.953125,-6.6875,18.703125,113
114,1695773103983,-0.107421875,-1.1279907,-0.020324707,-0.703125,3.796875,2.921875,114
115,1695773104023,0.14038086,-1.0847778,0.07318115,10.15625,13.34375,-23.71875,115
116,1695773104063,0.039794922,-0.8484497,0.08807373,-21.53125,-6.09375,-4.484375,116
117,1695773104103,-0.0043945312,-0.8855591,0.11151123,-14.5,-11.015625,1.546875,117
118,1695773104143,-0.08251953,-0.9031372,0.101745605,-1.09375,2.78125,7.765625,118
119,1695773104183,-0.1274414,-1.1404419,0.13568115,42.84375,-0.984375,-5.046875,119
120,1695773104223,-0.01171875,-1.1841431,-0.0134887695,3.171875,-5.640625,-6.078125,120
121,1695773104263,0.033203125,-0.9463501,0.093444824,-9.3125,14.25,14.453125,121
122,1695773104303,-0.078125,-0.72369385,-0.012512207,-22.6875,15.375,-5.90625,122
123,1695773104343,-0.09350586,-1.0332642,0.097351074,-12.328125,-12.890625,-3.5,123
124,1695773104383,0.008544922,-1.1050415,0.32000732,6.734375,-4.28125,2.703125,124
125,1695773104423,-0.012207031,-1.1018677,-0.046447754,28.625,1.34375,-10.6875,125
126,1695773104463,-0.019042969,-0.9170532,-0.031555176,-12.03125,5.78125,-10.84375,126
127,1695773104503,0.114746094,-0.9602661,0.0028686523,-10.59375,3.109375,-7.171875,127
128,1695773104543,-0.06201172,-1.0459595,0.09564209,-8.390625,-3.359375,11.5625,128
129,1695773104583,-0.16333008,-0.95928955,0.20574951,-3.328125,5.296875,-2.125,129
130,1695773104623,-0.08618164,-1.1685181,0.09954834,-7.40625,-4.484375,-12.671875,130
131,1695773104663,-0.0053710938,-0.8267212,0.09075928,-23.015625,-2.453125,-11.65625,131
132,1695773104703,-0.052734375,-0.8748169,0.15765381,-20.890625,-1.984375,-1.5625,132
133,1695773104743,-0.19360352,-1.0105591,0.25238037,8.78125,-3.734375,12.828125,133
134,1695773104783,0.016113281,-1.1807251,0.18304443,-5.140625,0.96875,18.515625,134
135,1695773104823,-0.03540039,-0.7542114,0.047790527,8.421875,-4.265625,-1.953125,135
136,1695773104863,0.032226562,-1.125061,-0.023498535,52.5625,6.171875,-12.265625,136
137,1695773104903,0.009033203,-0.88287354,0.07757568,5.640625,10.390625,23.3125,137
138,1695773104943,-0.080566406,-0.87457275,0.18133545,-1.4375,-4.953125,-5.96875,138
139,1695773104983,-0.0234375,-1.3096313,0.16937256,-18.21875,-6.515625,-15.671875,139
140,1695773105023,-0.05493164,-0.9602661,0.066589355,-2.46875,1.5,5.984375,140
141,1695773105063,0.0073242188,-0.9192505,0.038757324,14.0625,2.25,0.53125,141
142,1695773105103,-0.088134766,-0.9963989,0.06121826,-7.34375,-2.078125,4.84375,142
143,1695773105143,-0.07446289,-0.97125244,0.10272217,-2.90625,-0.234375,-1.90625,143
144,1695773105183,-0.00048828125,-1.0979614,0.11834717,6.4375,1.6875,-2.59375,144
145,1695773105223,-0.06958008,-1.0437622,-0.089416504,0.28125,2.15625,7.0625,145
146,1695773105263,0.0126953125,-0.9663696,0.12835693,18.328125,8.125,8.453125,146
147,1695773105303,0.07080078,-1.0689087,0.058532715,2.15625,9.0625,10.65625,147
148,1695773105343,-0.08691406,-0.8274536,0.093933105,-10.421875,7.328125,3.671875,148
149,1695773105383,-0.09814453,-0.97784424,0.2723999,6.84375,-8.796875,-17.34375,149
150,1695773105423,-0.059326172,-1.15094,0.046325684,-1.25,-1.359375,1.828125,150
151,1695773105463,0.17822266,-0.7659302,-0.013000488,-14.46875,11.359375,4.78125,151
152,1695773105503,-0.015380859,-0.9973755,0.043151855,-11.578125,-4.53125,3.65625,152
153,1695773105543,-0.030761719,-1.0891724,0.21966553,15.203125,-16.0,-0.0625,153
154,1695773105583,-0.16430664,-1.2393188,0.10687256,13.0,-3.453125,16.140625,154
155,1695773105623,0.024169922,-0.8130493,-0.054016113,-13.8125,11.265625,-17.625,155
156,1695773105663,0.06298828,-0.80596924,-0.042785645,-6.984375,2.875,-19.34375,156
157,1695773105703,0.019042969,-1.2105103,0.20721436,29.71875,-16.859375,1.140625,157
158,1695773105743,-0.09301758,-1.0723267,0.13739014,1.4375,0.96875,29.40625,158
159,1695773105783,0.048583984,-0.8074341,0.0016479492,-5.578125,-0.1875,-20.078125,159
160,1695773105823,0.16625977,-1.0606079,-0.020080566,1.484375,-13.375,-25.296875,160
161,1695773105863,0.0026855469,-1.0281372,-0.044006348,-9.53125,0.34375,17.984375,161
162,1695773105903,-0.25952148,-0.9717407,0.098083496,-8.4375,-2.203125,21.71875,162
163,1695773105943,-0.14282227,-1.0664673,0.23651123,-18.140625,3.015625,-11.515625,163
164,1695773105983,-0.026855469,-0.98272705,0.13348389,-21.59375,3.71875,-14.375,164
165,1695773106023,0.013671875,-1.1445923,0.044128418,7.78125,13.328125,5.34375,165
166,1695773106063,-0.040283203,-0.78497314,0.06463623,-10.796875,9.109375,15.3125,166
167,1695773106103,-0.083496094,-1.0464478,0.17816162,11.125,8.0625,11.359375,167
168,1695773106143,0.1394043,-1.0637817,0.09661865,8.5625,1.0625,19.921875,168
169,1695773106183,0.1262207,-0.8057251,0.023620605,-3.15625,-0.28125,-6.171875,169
170,1695773106223,0.048828125,-1.0361938,0.035583496,8.171875,2.0,-15.359375,170
171,1695773106263,0.052001953,-1.034729,0.121032715,0.734375,-0.5,2.078125,171
172,1695773106303,-0.015136719,-0.9224243,0.07318115,-1.171875,-2.34375,10.6875,172
173,1695773106343,0.050048828,-1.013977,0.10784912,-3.875,-1.828125,1.71875,173
174,1695773106383,0.046875,-1.0195923,0.06488037,-5.265625,-0.796875,0.28125,174
175,1695773106423,0.043945312,-0.9800415,0.07147217,3.015625,-1.78125,-1.703125,175
176,1695773106463,0.042236328,-1.003479,0.090026855,0.890625,-1.046875,-1.015625,176
177,1695773106503,0.00024414062,-0.99835205,0.09979248,-2.0,-1.5,2.75,177
178,1695773106543,0.048828125,-1.003479,0.10687256,-3.75,-0.5,0.6875,178
179,1695773106583,-0.0056152344,-0.99591064,0.008239746,-4.3125,2.546875,0.015625,179
180,1695773106623,0.13378906,-0.956604,0.17425537,15.734375,11.578125,-1.734375,180
181,1695773106663,0.08935547,-1.0982056,0.06341553,-3.015625,-6.859375,10.203125,181
182,1695773106703,-0.03466797,-0.8911743,0.093933105,-21.515625,-2.984375,-3.65625,182
183,1695773106743,0.0847168,-0.87042236,0.13641357,-9.25,3.6875,-22.625,183
184,1695773106783,0.0061035156,-1.0603638,0.11907959,12.609375,-9.375,-12.234375,184
185,1695773106823,-0.0043945312,-0.9512329,0.15838623,1.96875,-10.171875,14.0625,185
186,1695773106863,-0.0546875,-0.98687744,0.030212402,10.75,-13.234375,4.796875,186
187,1695773106903,0.05444336,-1.2136841,-0.012756348,-2.359375,8.21875,4.734375,187
188,1695773106943,0.03515625,-1.0025024,-0.013244629,-20.796875,1.9375,-2.265625,188
189,1695773106983,-0.037841797,-0.87872314,0.23724365,-0.171875,7.265625,-5.890625,189
190,1695773107023,-0.0029296875,-1.1072388,0.08416748,19.15625,0.984375,-2.703125,190
191,1695773107063,0.010498047,-0.87091064,0.035827637,-15.140625,3.421875,10.125,191
192,1695773107103,0.11352539,-0.7866821,0.14324951,6.75,3.203125,-10.703125,192
193,1695773107143,-0.03466797,-1.1355591,0.13470459,6.859375,2.515625,13.859375,193
194,1695773107183,-0.011230469,-0.93170166,0.2267456,-16.140625,-3.703125,18.6875,194
195,1695773107223,0.15405273,-1.1130981,0.1618042,-6.859375,-3.59375,-7.375,195
196,1695773107263,0.05444336,-1.0422974,0.074157715,-11.515625,2.421875,-7.984375,196
197,1695773107303,0.06689453,-0.8550415,0.050964355,5.71875,1.625,-9.28125,197
198,1695773107343,0.01586914,-1.0039673,0.10736084,6.421875,3.078125,8.984375,198
199,1695773107383,0.008544922,-0.92437744,0.15911865,4.625,1.984375,15.890625,199
200,1695773107423,-0.0234375,-1.053772,0.17938232,8.796875,-5.25,-0.359375,200
201,1695773107463,0.118652344,-1.0264282,0.039245605,-11.8125,8.09375,-12.453125,201
202,1695773107503,0.1665039,-0.9312134,0.002380371,-12.71875,8.796875,-14.859375,202
203,1695773107543,0.12084961,-0.989563,0.15252686,7.8125,-3.109375,3.328125,203
204,1695773107583,-0.060302734,-1.0825806,0.17449951,16.40625,-6.671875,9.734375,204
205,1695773107623,0.015136719,-0.8999634,0.07513428,-5.734375,3.796875,-4.890625,205
206,1695773107663,0.052734375,-0.9680786,0.1227417,-5.96875,8.46875,-15.296875,206
207,1695773107703,0.03930664,-1.046936,0.07733154,1.625,5.578125,-0.09375,207
208,1695773107743,-0.0014648438,-0.96710205,0.15985107,2.375,-2.859375,2.125,208
209,1695773107783,0.033447266,-1.0042114,0.10662842,-8.9375,-2.40625,-2.78125,209
210,1695773107823,0.061279297,-0.95391846,0.120788574,-27.859375,-1.4375,-6.765625,210
211,1695773107863,0.01928711,-0.9414673,0.1708374,8.5,-1.9375,-3.671875,211
212,1695773107903,-0.03100586,-1.1279907,0.18304443,8.21875,-6.171875,6.90625,212
213,1695773107943,-0.0009765625,-0.94854736,0.15814209,-16.453125,0.421875,-0.140625,213
214,1695773107983,-0.072021484,-0.99664307,0.117126465,6.109375,2.015625,-8.5,214
215,1695773108023,0.048828125,-1.0984497,0.11224365,13.875,7.96875,3.484375,215
216,1695773108063,0.041015625,-0.9385376,0.1461792,2.46875,0.5,2.515625,216
217,1695773108103,-0.044189453,-0.95684814,0.086120605,2.125,-4.171875,-5.515625,217
218,1695773108143,-0.03955078,-0.9417114,0.11517334,8.46875,-2.125,1.1875,218
219,1695773108183,0.043701172,-0.9570923,0.059020996,4.625,-3.421875,2.34375,219
220,1695773108223,-0.022949219,-0.9517212,0.04119873,-6.59375,-5.6875,4.0625,220
221,1695773108263,0.08129883,-1.013977,0.13787842,9.9375,7.25,-5.09375,221
222,1695773108303,-0.015380859,-1.0618286,0.10760498,-1.234375,2.6875,7.25,222
223,1695773108343,-0.018798828,-0.9224243,0.1149292,-1.515625,-0.890625,0.890625,223
224,1695773108383,0.028320312,-1.0623169,0.089782715,2.71875,-2.4375,-1.703125,224
225,1695773108423,0.037597656,-0.96661377,0.10858154,0.640625,-0.015625,2.59375,225
226,1695773108463,0.022460938,-1.0496216,0.082458496,1.109375,-2.28125,1.296875,226
227,1695773108503,0.0087890625,-0.9380493,0.070251465,-6.53125,-1.640625,1.203125,227
228,1695773108543,0.033203125,-0.98638916,0.097595215,7.734375,6.671875,-0.015625,228
229,1695773108583,0.040283203,-1.0286255,0.08807373,5.828125,1.78125,2.359375,229
230,1695773108623,-0.010253906,-1.008606,-0.035217285,-8.25,0.234375,3.59375,230
231,1695773108663,0.08984375,-0.9631958,0.070739746,3.46875,1.890625,1.53125,231
232,1695773108703,0.049316406,-1.210022,-0.010803223,1.734375,1.515625,5.546875,232
233,1695773108743,-0.036621094,-0.78082275,0.09124756,-10.75,9.734375,-1.109375,233
234,1695773108783,0.05810547,-0.9006958,0.19207764,4.125,12.875,-16.640625,234
235,1695773108823,-0.104003906,-1.0923462,0.20721436,27.390625,-19.796875,5.46875,235
236,1695773108863,0.11279297,-1.0894165,0.042419434,-18.515625,-11.1875,18.890625,236
237,1695773108903,0.05493164,-0.7515259,-0.074523926,-34.53125,6.953125,-16.640625,237
238,1695773108943,0.022705078,-1.227356,0.08856201,-8.3125,11.703125,-14.453125,238
239,1695773108983,-0.032470703,-0.96661377,0.28411865,11.0,-25.609375,4.90625,239
240,1695773109023,0.043701172,-1.1924438,0.11517334,16.484375,1.3125,17.21875,240
241,1695773109063,0.045166016,-0.6848755,-0.08306885,-31.921875,11.859375,-5.953125,241
242,1695773109103,0.008300781,-0.95806885,0.094177246,-15.265625,0.890625,-24.578125,242
243,1695773109143,0.029052734,-1.1201782,0.22332764,9.375,-24.75,2.0625,243
244,1695773109183,0.018798828,-1.2017212,0.27313232,30.0625,2.765625,17.8125,244
245,1695773109223,0.08544922,-0.866272,-0.023498535,-23.65625,11.109375,-1.5625,245
246,1695773109263,0.1381836,-0.8255005,0.06463623,-17.125,2.34375,-24.890625,246
247,1695773109303,0.07006836,-1.0969849,0.09295654,16.4375,-9.875,-2.484375,247
248,1695773109343,-0.111328125,-1.145813,0.22283936,34.03125,-10.71875,18.375,248
249,1695773109383,0.010253906,-0.8994751,0.09442139,-14.359375,9.875,2.40625,249
250,1695773109423,-0.025146484,-0.8748169,-0.014221191,-19.953125,7.453125,-19.546875,250
251,1695773109463,0.057617188,-1.0740356,0.09954834,4.859375,6.609375,-10.84375,251
252,1695773109503,0.017822266,-0.99957275,0.09613037,3.046875,1.421875,8.09375,252
253,1695773109543,-0.046142578,-1.0549927,0.08660889,3.421875,3.0625,6.6875,253
254,1695773109583,0.018554688,-0.94610596,0.07977295,-7.140625,-1.5625,-6.65625,254
255,1695773109623,0.024658203,-0.9768677,0.044128418,1.203125,-3.5625,-9.71875,255
256,1695773109663,-0.018798828,-0.99102783,0.049987793,7.0625,2.265625,0.84375,256
257,1695773109703,-0.061279297,-1.0484009,0.11419678,8.90625,3.78125,3.75,257
258,1695773109743,-0.025634766,-0.97491455,0.08905029,-7.28125,-3.75,2.125,258
259,1695773109783,-0.015380859,-0.9949341,0.078308105,0.59375,-0.875,-2.359375,259
260,1695773109823,-0.0146484375,-1.0022583,0.070739746,2.671875,-2.71875,-3.703125,260
261,1695773109863,-0.06347656,-0.9854126,0.0836792,4.3125,-0.046875,-1.28125,261
262,1695773109903,-0.03149414,-1.1201782,-0.10601807,0.546875,-12.71875,-0.3125,262
263,1695773109943,0.07348633,-1.0322876,0.2687378,0.953125,12.546875,6.765625,263
264,1695773109983,-0.09667969,-0.9019165,-0.016174316,-6.875,5.328125,8.65625,264
265,1695773110023,-0.0061035156,-0.87994385,0.19793701,-19.5625,-5.578125,-6.953125,265
266,1695773110063,-0.02758789,-0.89923096,0.25750732,1.828125,-2.640625,-2.78125,266
267,1695773110103,-0.021728516,-1.0615845,0.04949951,18.75,2.890625,-4.90625,267
268,1695773110143,0.0126953125,-1.1448364,0.005554199,13.953125,-15.421875,-1.375,268
269,1695773110183,-0.013916016,-0.8989868,-0.018371582,-16.265625,0.40625,25.625,269
270,1695773110223,0.08618164,-1.1690063,-0.061584473,-0.984375,7.703125,14.296875,270
271,1695773110263,0.14331055,-0.9439087,0.14764404,-0.640625,16.890625,-14.796875,271
272,1695773110303,0.01977539,-1.0322876,0.078552246,-19.78125,3.671875,-15.078125,272
273,1695773110343,-0.100097656,-0.8303833,0.24798584,13.90625,-10.765625,-14.296875,273
274,1695773110383,-0.07373047,-0.95318604,0.047546387,14.15625,-16.140625,13.21875,274
275,1695773110423,0.09448242,-0.8284302,0.02142334,-9.28125,11.046875,12.28125,275
276,1695773110463,0.016357422,-1.2129517,-0.07281494,-3.390625,8.84375,6.140625,276
277,1695773110503,0.01928711,-1.0999146,0.07269287,-7.5,-7.59375,0.9375,277
278,1695773110543,0.04345703,-1.1265259,0.2699585,20.75,-22.65625,5.859375,278
279,1695773110583,-0.044433594,-0.96417236,0.02142334,-2.3125,5.984375,-2.296875,279
280,1695773110623,-0.03540039,-0.84625244,-0.13360596,-24.65625,9.625,-10.53125,280
281,1695773110663,0.08129883,-0.92388916,0.05657959,3.640625,7.015625,-4.953125,281
282,1695773110703,0.06201172,-1.0603638,0.15447998,5.0625,-12.125,9.40625,282
283,1695773110743,-0.011230469,-0.9993286,0.14422607,-9.28125,-5.0,9.953125,283
284,1695773110783,0.13305664,-0.928772,0.10369873,-27.734375,-0.4375,-12.296875,284
285,1695773110823,0.052734375,-0.8838501,-0.006652832,-36.1875,-0.84375,-2.640625,285
286,1695773110863,0.08081055,-1.0344849,0.20794678,39.484375,-2.09375,0.25,286
287,1695773110903,-0.012207031,-1.204895,0.23626709,-2.75,-0.984375,9.328125,287
288,1695773110943,0.007080078,-0.9163208,0.04510498,-33.125,2.15625,-4.5625,288
289,1695773110983,0.043945312,-0.991272,0.08856201,11.5625,1.5625,-10.203125,289
290,1695773111023,0.14770508,-0.92803955,0.04046631,3.09375,-0.5625,6.390625,290
291,1695773111063,0.0014648438,-0.84039307,0.11419678,3.390625,-6.203125,1.609375,291
292,1695773111103,-0.0053710938,-1.0278931,0.16082764,12.234375,0.96875,-5.1875,292
293,1695773111143,-0.005859375,-1.0188599,0.12542725,-11.359375,-6.25,1.234375,293
294,1695773111183,0.047607422,-1.0037231,0.11859131,2.421875,-0.0625,-5.703125,294
295,1695773111223,0.07421875,-1.0886841,0.09710693,4.625,-2.34375,-3.640625,295
296,1695773111263,-0.034423828,-1.0159302,0.07537842,1.671875,-4.109375,1.421875,296
297,1695773111303,-0.008300781,-0.9229126,0.09197998,5.65625,0.90625,0.0,297
298,1695773111343,0.033203125,-1.1043091,0.04827881,12.5,-10.71875,-5.46875,298
299,1695773111383,-0.022949219,-0.8648071,0.13153076,-11.59375,-6.078125,-7.84375,299
300,1695773111423,0.06665039,-0.98883057,0.066101074,-2.65625,5.125,-16.515625,300
301,1695773111463,-0.092285156,-1.0401001,0.023376465,-17.53125,-4.140625,-8.109375,301
302,1695773111503,-0.032958984,-0.97491455,0.16497803,-20.375,0.53125,1.609375,302
303,1695773111543,-0.06762695,-0.88604736,0.22821045,3.640625,-30.609375,-11.109375,303
304,1695773111583,-0.087646484,-1.2554321,0.20452881,34.15625,-9.796875,11.859375,304
305,1695773111623,-0.05126953,-0.8870239,-0.019836426,-14.296875,6.28125,19.359375,305
306,1695773111663,-0.0703125,-0.99346924,-0.0051879883,-10.359375,9.359375,-13.671875,306
307,1695773111703,0.041748047,-1.1602173,0.1383667,-16.75,3.265625,-8.65625,307
308,1695773111743,0.044433594,-0.8064575,0.21795654,-0.484375,-3.21875,9.34375,308
309,1695773111783,-0.064453125,-1.1709595,0.16619873,36.90625,-1.5625,8.53125,309
310,1695773111823,0.050048828,-0.81866455,0.014831543,-24.421875,19.078125,3.9375,310
311,1695773111863,0.044677734,-0.77130127,0.03338623,-18.8125,4.171875,-15.859375,311
312,1695773111903,0.023925781,-1.1792603,0.23626709,26.59375,-1.125,-6.296875,312
313,1695773111943,-0.02758789,-1.2490845,0.2387085,2.703125,0.640625,15.234375,313
314,1695773111983,-0.04321289,-0.8706665,0.0014038086,-17.328125,9.578125,6.53125,314
315,1695773112023,0.012451172,-0.84210205,0.08807373,7.203125,5.40625,-26.546875,315
316,1695773112063,0.03857422,-1.0984497,0.1618042,10.453125,4.390625,-5.5625,316
317,1695773112103,-0.036621094,-1.0256958,0.13153076,-1.84375,15.59375,13.0,317
318,1695773112143,-0.11694336,-0.91778564,0.1005249,-7.265625,2.953125,-6.5,318
319,1695773112183,-0.12158203,-1.0342407,0.1618042,4.328125,-5.421875,-8.453125,319
320,1695773112223,0.04345703,-1.0532837,0.034606934,-0.28125,-0.234375,3.03125,320
321,1695773112263,-0.07495117,-0.9343872,0.08660889,-12.578125,-2.859375,1.109375,321
322,1695773112303,-0.04638672,-1.0095825,0.1005249,4.75,0.65625,-5.5625,322
323,1695773112343,-0.06616211,-0.9763794,0.07611084,22.90625,6.109375,7.765625,323
324,1695773112383,-0.025146484,-0.975647,0.03704834,33.96875,0.3125,6.390625,324
325,1695773112423,-0.1015625,-1.133606,0.058776855,1.5625,-1.71875,16.9375,325
326,1695773112463,-0.037353516,-0.88409424,-0.023986816,-13.59375,1.640625,7.140625,326
327,1695773112503,-0.061767578,-1.0581665,0.061706543,-7.203125,9.890625,-1.0,327
328,1695773112543,0.053955078,-0.9751587,0.09246826,-9.421875,6.765625,2.1875,328
329,1695773112583,0.00024414062,-0.9248657,0.07904053,5.515625,-8.828125,12.0625,329
330,1695773112623,-0.017822266,-1.0842896,0.035583496,-1.796875,-2.28125,13.203125,330
331,1695773112663,0.04736328,-0.8838501,0.027282715,-12.546875,3.84375,8.21875,331
332,1695773112703,0.09423828,-1.0706177,0.082214355,-0.96875,5.328125,-8.34375,332
333,1695773112743,0.060791016,-1.0298462,0.15594482,-8.734375,-8.6875,3.078125,333
334,1695773112783,0.09057617,-0.9920044,0.12420654,-2.078125,-4.921875,2.25,334
335,1695773112823,0.14038086,-0.8743286,0.08001709,-12.0,0.75,-11.46875,335
336,1695773112863,0.09692383,-1.1140747,0.07244873,2.171875,-3.609375,-12.140625,336
337,1695773112903,-0.040771484,-1.0679321,0.16400146,-3.328125,-8.328125,11.9375,337
338,1695773112943,0.10253906,-0.798645,0.15179443,0.03125,6.953125,-8.421875,338
339,1695773112983,0.10595703,-1.0767212,0.002380371,-8.25,2.75,-16.171875,339
340,1695773113023,0.05810547,-1.0215454,0.11517334,0.390625,-6.84375,-3.671875,340
341,1695773113063,-0.0041503906,-0.93585205,0.15716553,1.25,-7.5625,-1.875,341
342,1695773113103,-0.09375,-0.8826294,0.089538574,-17.859375,-3.5,-14.6875,342
343,1695773113143,-0.0871582,-0.87286377,0.17816162,-37.796875,-1.203125,-38.65625,343
344,1695773113183,-0.03515625,-1.0332642,0.2868042,-11.03125,-7.65625,-24.03125,344
345,1695773113223,-0.19750977,-1.3032837,0.22918701,14.515625,1.59375,17.953125,345
346,1695773113263,-0.15063477,-0.91778564,0.22528076,-5.453125,-1.5,10.5625,346
347,1695773113303,-0.104003906,-0.9990845,0.15838623,-1.84375,-3.625,-1.21875,347
348,1695773113343,0.01953125,-0.93707275,0.10858154,6.4375,12.015625,1.25,348
349,1695773113383,-0.043945312,-0.83380127,0.19647217,12.15625,0.234375,-4.28125,349
350,1695773113423,-0.1381836,-0.9907837,0.14422607,8.65625,-5.609375,-3.71875,350
351,1695773113463,-0.11987305,-0.99542236,0.11834717,-2.34375,-1.546875,4.421875,351
352,1695773113503,-0.0637207,-1.0442505,0.15985107,9.21875,9.796875,10.421875,352
353,1695773113543,-0.075683594,-1.0654907,0.12542725,4.71875,5.03125,6.84375,353
354,1695773113583,-0.03149414,-1.008606,0.16033936,6.46875,-0.140625,-0.015625,354
355,1695773113623,0.009033203,-1.0474243,0.13665771,14.375,4.46875,-0.84375,355
356,1695773113663,-0.0625,-0.94610596,0.093688965,5.421875,5.09375,1.140625,356
357,1695773113703,-0.1105957,-0.9175415,0.043395996,8.046875,-0.25,2.59375,357
358,1695773113743,-0.030517578,-0.93878174,0.081726074,3.484375,0.796875,0.203125,358
359,1695773113783,0.013916016,-1.0264282,0.10247803,8.078125,9.984375,6.921875,359
360,1695773113823,-0.053955078,-1.0637817,0.06390381,-4.125,-4.578125,3.96875,360
361,1695773113863,0.014160156,-0.9307251,0.08099365,-1.96875,-0.578125,-6.53125,361
362,1695773113903,-0.0107421875,-1.017395,0.077819824,5.671875,3.859375,-3.171875,362
363,1695773113943,-0.106933594,-1.050354,0.06829834,-7.46875,-4.203125,7.859375,363
364,1695773113983,-0.0048828125,-0.90802,0.109802246,-0.328125,1.046875,0.625,364
365,1695773114023,-0.007080078,-1.0379028,0.074401855,5.21875,6.53125,-2.890625,365
366,1695773114063,-0.06591797,-1.0025024,0.038513184,-13.78125,-2.21875,1.46875,366
367,1695773114103,0.008056641,-0.9368286,0.10760498,0.90625,0.53125,-3.15625,367
368,1695773114143,0.020019531,-1.0823364,0.066101074,3.46875,3.5625,-0.09375,368
369,1695773114183,-0.048095703,-0.9873657,0.08148193,-16.546875,0.25,6.15625,369
370,1695773114223,0.016845703,-0.9019165,0.12860107,-15.890625,3.859375,-9.828125,370
371,1695773114263,-0.15795898,-0.9727173,0.16864014,-12.921875,-9.890625,-9.140625,371
372,1695773114303,0.009033203,-1.1680298,0.19818115,2.453125,-5.546875,-5.734375,372
373,1695773114343,-0.0041503906,-1.00177,0.08709717,-16.03125,-2.21875,0.9375,373
374,1695773114383,-0.08081055,-0.92510986,0.16253662,5.703125,-4.0,-2.765625,374
375,1695773114423,-0.11279297,-1.0825806,0.1762085,7.90625,-5.1875,0.609375,375
376,1695773114463,-0.09790039,-0.79766846,0.11468506,-7.453125,-4.078125,3.734375,376
377,1695773114503,-0.03100586,-0.98394775,0.12982178,15.625,-3.03125,-8.3125,377
378,1695773114543,-0.072509766,-1.1409302,0.11224365,0.921875,-1.703125,9.703125,378
379,1695773114583,-0.017089844,-0.96954346,0.1383667,3.5625,4.171875,1.265625,379
380,1695773114623,-0.09057617,-1.093811,0.12298584,-1.5,-0.609375,-0.734375,380
381,1695773114663,-0.06274414,-0.944397,0.08148193,-7.65625,-2.546875,0.609375,381
382,1695773114703,-0.040039062,-0.88946533,0.09197998,-1.640625,0.5625,-0.3125,382
383,1695773114743,-0.01977539,-0.96881104,0.13909912,30.53125,3.578125,-1.109375,383
384,1695773114783,-0.09838867,-1.1924438,0.086364746,29.21875,1.484375,15.546875,384
385,1695773114823,-0.005126953,-0.9170532,0.16351318,-2.390625,1.84375,14.390625,385
386,1695773114863,-0.10058594,-0.9968872,-0.040100098,3.578125,2.3125,4.921875,386
387,1695773114903,-0.024414062,-0.90216064,-0.085998535,-12.171875,2.265625,-5.640625,387
388,1695773114943,0.140625,-0.99591064,0.19256592,6.546875,9.515625,-11.53125,388
389,1695773114983,0.0031738281,-1.1177368,-0.018859863,-1.15625,-0.875,6.625,389
390,1695773115023,-0.079589844,-0.76812744,0.023132324,-8.109375,-3.984375,2.109375,390
391,1695773115063,-0.012939453,-0.9380493,0.093444824,3.71875,1.0625,-2.4375,391
392,1695773115103,-0.036865234,-1.2254028,0.03265381,-7.453125,3.046875,1.140625,392
393,1695773115143,-0.0107421875,-0.94903564,0.1161499,-9.46875,-5.875,-5.375,393
394,1695773115183,0.026367188,-1.0759888,0.097839355,8.34375,0.984375,0.96875,394
395,1695773115223,-0.06958008,-0.99053955,0.055603027,-3.109375,3.921875,10.09375,395
396,1695773115263,-0.08227539,-0.92315674,0.08148193,-5.109375,-4.46875,0.828125,396
397,1695773115303,0.0009765625,-1.0083618,0.07147217,-5.75,4.03125,-2.640625,397
398,1695773115343,0.025634766,-1.0264282,0.054138184,-27.765625,7.5,-0.84375,398
399,1695773115383,0.08300781,-0.7822876,0.10858154,-39.34375,-3.796875,-13.609375,399
400,1695773115423,-0.012207031,-1.0789185,0.30804443,2.6875,-21.875,-17.5,400
401,1695773115463,0.016601562,-1.2615356,0.16375732,4.0625,-1.28125,19.8125,401
402,1695773115503,-0.095214844,-0.83477783,0.10882568,-17.46875,-6.109375,7.671875,402
403,1695773115543,-0.18041992,-0.9578247,0.20672607,13.6875,2.84375,-11.46875,403
404,1695773115583,0.057861328,-0.99420166,0.19281006,6.34375,2.953125,-3.046875,404
405,1695773115623,0.013183594,-0.9607544,0.0758667,-4.8125,-0.703125,6.734375,405
406,1695773115663,-0.01977539,-1.000061,0.13739014,3.359375,0.65625,-3.875,406
407,1695773115703,-0.009765625,-1.0471802,0.16448975,3.921875,1.828125,-1.3125,407
408,1695773115743,-0.022705078,-1.0088501,0.14398193,-1.15625,-1.140625,1.328125,408
409,1695773115783,-0.0007324219,-0.97613525,0.13690186,-0.84375,-0.25,-1.984375,409
410,1695773115823,-0.0031738281,-0.99346924,0.101989746,0.21875,1.203125,-2.609375,410
411,1695773115863,-0.044433594,-0.98321533,0.07952881,12.640625,5.046875,1.625,411
412,1695773115903,-0.01171875,-1.0071411,0.18475342,25.390625,9.21875,1.84375,412
413,1695773115943,-0.17358398,-1.0552368,0.04901123,-6.03125,-2.578125,9.09375,413
414,1695773115983,0.00024414062,-0.88531494,0.16107178,-12.890625,5.109375,-6.5,414
415,1695773116023,0.029052734,-1.0733032,0.070495605,-30.828125,-0.1875,-17.296875,415
416,1695773116063,0.035888672,-0.8233032,0.1239624,-11.578125,-15.15625,-11.640625,416
417,1695773116103,-0.001953125,-1.2798462,0.14276123,63.734375,-5.828125,13.53125,417
418,1695773116143,-0.15722656,-0.9480591,0.04071045,-32.265625,-2.453125,23.984375,418
419,1695773116183,-0.09765625,-0.753479,0.10003662,-25.53125,4.734375,-18.546875,419
420,1695773116223,-0.024169922,-1.1604614,0.16497803,5.234375,-2.71875,-11.6875,420
421,1695773116263,0.025146484,-0.99420166,0.26483154,2.296875,2.078125,10.609375,421
422,1695773116303,-0.02734375,-1.1043091,0.1437378,10.09375,0.96875,6.4375,422
423,1695773116343,-0.048828125,-0.94366455,0.06365967,-20.09375,2.5,2.265625,423
424,1695773116383,-0.03540039,-0.8792114,0.1383667,-6.015625,3.359375,-3.234375,424
425,1695773116423,-0.08544922,-0.9937134,0.15447998,4.171875,4.828125,5.984375,425
426,1695773116463,-0.09033203,-0.9717407,0.2008667,20.703125,-7.546875,0.46875,426
427,1695773116503,0.123291016,-1.1946411,0.113464355,-4.375,10.5,10.296875,427
428,1695773116543,0.11376953,-0.8530884,0.050231934,-19.875,-1.328125,-2.3125,428
429,1695773116583,-0.068115234,-1.0064087,0.14105225,-4.71875,-1.859375,-8.921875,429
430,1695773116623,-0.028076172,-0.9902954,0.24188232,-15.8125,0.15625,6.03125,430
431,1695773116663,0.095458984,-0.8933716,0.28240967,-7.3125,0.703125,0.640625,431
432,1695773116703,0.0068359375,-1.0440063,0.23944092,-0.3125,-6.4375,-1.859375,432
433,1695773116743,0.015136719,-1.0474243,0.17230225,-0.265625,-6.25,-1.96875,433
434,1695773116783,0.045654297,-0.97784424,0.14520264,1.625,2.25,-5.125,434
435,1695773116823,0.021484375,-1.0750122,0.19281006,2.4375,0.125,-5.421875,435
436,1695773116863,-0.08325195,-0.9053345,0.19232178,-0.625,-4.75,-5.015625,436
437,1695773116903,-0.1303711,-0.8267212,0.13934326,24.578125,0.09375,-8.40625,437
438,1695773116943,0.010986328,-1.022522,0.19500732,21.109375,1.46875,2.0,438
439,1695773116983,-0.071777344,-0.9768677,0.16448975,-4.0,-3.515625,9.671875,439
440,1695773117023,-0.13427734,-1.0159302,0.14324951,-13.953125,-3.640625,-2.796875,440
441,1695773117063,0.026123047,-1.0757446,0.16326904,-1.28125,6.6875,-16.40625,441
442,1695773117103,-0.020996094,-1.0664673,0.11541748,-3.421875,-0.625,1.15625,442
443,1695773117143,-0.07836914,-0.87945557,0.1618042,15.4375,1.90625,3.578125,443
444,1695773117183,-0.0859375,-1.0518188,0.15472412,12.265625,-1.515625,4.953125,444
445,1695773117223,-0.08959961,-0.88287354,0.09954834,-3.375,4.984375,-0.390625,445
446,1695773117263,-0.0073242188,-1.0386353,0.13250732,-2.0,5.328125,-11.421875,446
447,1695773117303,-0.0925293,-1.0430298,0.16156006,16.578125,4.265625,1.484375,447
448,1695773117343,0.07348633,-1.0166626,0.11102295,5.3125,0.234375,5.828125,448
449,1695773117383,-0.01953125,-0.9834595,0.04925537,-27.546875,-6.96875,-4.984375,449
450,1695773117423,-0.123291016,-0.9258423,0.046325684,-12.875,-12.390625,-16.21875,450
451,1695773117463,0.012451172,-1.0342407,0.17327881,4.109375,-3.765625,-4.109375,451
452,1695773117503,-0.033935547,-0.9973755,0.13006592,4.640625,-1.703125,7.625,452
453,1695773117543,-0.14086914,-0.95806885,0.0993042,-5.09375,-6.40625,-2.734375,453
454,1695773117583,-0.1303711,-0.9373169,0.11810303,-10.0625,-1.5625,-10.03125,454
455,1695773117623,-0.056152344,-1.0601196,0.19403076,-1.09375,-1.796875,-2.59375,455
456,1695773117663,-0.06542969,-1.1035767,0.16888428,-23.125,-3.609375,0.3125,456
457,1695773117703,-0.17285156,-0.80548096,0.07928467,-3.6875,-1.671875,-8.828125,457
458,1695773117743,-0.045898438,-1.1553345,0.16815186,31.5,4.25,-3.046875,458
459,1695773117783,-0.09814453,-1.1316528,0.035583496,7.171875,5.5,11.0,459
460,1695773117823,-0.13134766,-0.88946533,0.13446045,-7.734375,20.125,12.765625,460
461,1695773117863,0.053955078,-0.9146118,0.09857178,11.859375,1.359375,-6.296875,461
462,1695773117903,-0.12646484,-0.9949341,0.18670654,-8.59375,0.0625,2.6875,462
463,1695773117943,0.037109375,-0.913147,0.12835693,-5.28125,-14.359375,-11.546875,463
464,1695773117983,-0.1340332,-1.1604614,0.10272217,18.4375,-0.59375,6.65625,464
465,1695773118023,-0.10888672,-0.8513794,-0.074523926,-3.90625,9.78125,10.546875,465
466,1695773118063,-0.10180664,-0.99884033,0.1539917,-2.21875,4.234375,10.171875,466
467,1695773118103,0.02709961,-1.1629028,0.22210693,0.21875,7.5,3.0,467
468,1695773118143,-0.11425781,-0.99420166,0.001159668,-6.671875,-2.265625,-5.515625,468
469,1695773118183,-0.018310547,-1.0181274,0.18304443,5.546875,0.40625,-7.640625,469
470,1695773118223,0.056640625,-0.8904419,0.04901123,0.3125,2.4375,8.65625,470
471,1695773118263,-0.2199707,-0.8665161,0.10321045,-13.28125,0.546875,11.40625,471
472,1695773118303,-0.049804688,-0.9602661,0.051696777,15.265625,-14.0,-17.0625,472
473,1695773118343,0.049804688,-1.3225708,0.18304443,14.796875,16.84375,9.15625,473
474,1695773118383,0.016113281,-0.7974243,-0.08258057,-14.359375,13.265625,2.6875,474
475,1695773118423,-0.10546875,-0.8850708,0.10784912,-7.625,-6.515625,-15.71875,475
476,1695773118463,-0.099853516,-1.2241821,0.230896,14.390625,-25.984375,-0.171875,476
477,1695773118503,0.0075683594,-1.0505981,0.21209717,3.578125,21.03125,31.421875,477
478,1695773118543,-0.063964844,-0.71221924,-0.019104004,-2.265625,11.375,-10.15625,478
479,1695773118583,-0.049560547,-0.85528564,0.12615967,8.75,-4.640625,-22.34375,479
480,1695773118623,-0.20507812,-1.3731079,0.16204834,10.671875,-3.828125,19.203125,480
481,1695773118663,0.15625,-0.831604,0.08416748,-2.484375,33.984375,23.21875,481
482,1695773118703,-0.13647461,-1.0444946,0.105895996,-17.28125,0.828125,-15.875,482
483,1695773118743,-0.09472656,-1.0015259,0.09173584,-28.703125,5.328125,-3.84375,483
484,1695773118783,-0.037353516,-0.9302368,0.15765381,0.34375,-2.921875,-0.34375,484
485,1695773118823,0.22705078,-1.1167603,0.07928467,-0.34375,3.359375,11.6875,485
486,1695773118863,-0.09399414,-0.77593994,0.11907959,11.703125,-14.5,9.015625,486
487,1695773118903,-0.100097656,-1.1812134,0.018737793,20.359375,-10.921875,-2.375,487
488,1695773118943,0.04663086,-0.725647,0.07684326,-4.96875,0.25,19.359375,488
489,1695773118983,0.030517578,-1.185852,0.12005615,8.09375,-1.875,-7.53125,489
490,1695773119023,-0.055419922,-1.0366821,0.13568115,-6.359375,-3.5625,2.484375,490
491,1695773119063,0.08618164,-0.9060669,0.038757324,4.640625,-0.625,-8.328125,491
492,1695773119103,-0.0061035156,-0.97735596,0.025817871,12.125,-6.15625,5.234375,492
493,1695773119143,0.008056641,-1.1104126,-0.004211426,3.21875,-9.4375,0.109375,493
494,1695773119183,0.19116211,-1.0945435,0.28045654,-1.765625,6.25,7.1875,494
495,1695773119223,-0.103759766,-0.91363525,-0.03692627,-18.28125,0.546875,2.0,495
496,1695773119263,0.0041503906,-0.79693604,0.06903076,3.609375,-2.625,-19.46875,496
497,1695773119303,-0.036132812,-1.0166626,0.25286865,13.34375,-15.828125,-5.328125,497
498,1695773119343,-0.055908203,-1.085022,-0.040100098,0.28125,-3.453125,6.3125,498
499,1695773119383,-0.13110352,-1.2532349,0.117614746,-9.5625,14.71875,-0.671875,499
500,1695773119423,0.096191406,-0.8533325,0.05657959,-30.265625,2.96875,-1.125,500
501,1695773119463,-0.10449219,-0.87091064,0.055603027,-22.21875,11.59375,-3.90625,501
502,1695773119503,0.08691406,-0.9639282,0.2567749,8.96875,-1.84375,-6.921875,502
503,1695773119543,-0.0021972656,-1.0899048,0.038513184,7.421875,-13.65625,-4.375,503
504,1695773119583,-0.12646484,-0.90631104,0.2904663,-5.640625,17.09375,-5.671875,504
505,1695773119623,0.049316406,-0.75982666,0.078552246,-19.234375,2.765625,-3.671875,505
506,1695773119663,-0.1953125,-0.8467407,0.24090576,-4.53125,-5.0625,0.515625,506
507,1695773119703,-0.045654297,-1.4021606,0.230896,12.046875,2.34375,7.953125,507
508,1695773119743,0.11303711,-1.1521606,0.15057373,-2.5,1.625,2.25,508
509,1695773119783,0.13183594,-0.9763794,0.12030029,5.28125,8.9375,-8.46875,509
510,1695773119823,-0.061279297,-0.70318604,-0.085998535,-11.5,-1.59375,-10.421875,510
511,1695773119863,-0.07080078,-0.7593384,0.24798584,6.140625,8.015625,-6.015625,511
512,1695773119903,-0.17919922,-1.2703247,0.28240967,21.78125,-17.796875,5.640625,512
513,1695773119943,-0.13891602,-1.0776978,0.10345459,7.765625,0.9375,19.390625,513
514,1695773119983,0.1105957,-0.7542114,-0.059387207,-12.859375,15.53125,-25.59375,514
515,1695773120023,0.06665039,-1.0193481,-0.06402588,-4.46875,2.484375,-14.625,515
516,1695773120063,-0.17138672,-1.1467896,0.29974365,-9.109375,7.34375,10.59375,516
517,1695773120103,-0.2993164,-1.12677,0.34124756,2.78125,-19.125,8.46875,517
518,1695773120143,-0.18774414,-0.90045166,0.035827637,-5.75,1.9375,5.390625,518
519,1695773120183,-0.028564453,-0.9468384,0.0028686523,5.15625,5.921875,-8.828125,519
520,1695773120223,-0.05810547,-1.1372681,0.1449585,2.875,10.71875,19.046875,520
521,1695773120263,0.14990234,-0.862854,0.19940186,-13.71875,11.5625,8.390625,521
522,1695773120303,-0.13916016,-0.9866333,0.15081787,-10.78125,3.703125,-9.53125,522
523,1695773120343,0.060546875,-1.0144653,0.17596436,-3.0625,5.09375,-10.6875,523
524,1695773120383,-0.008544922,-0.8870239,0.10345459,-0.5,-17.015625,7.53125,524
525,1695773120423,-0.040527344,-0.8491821,0.16571045,-3.59375,-2.71875,10.015625,525
526,1695773120463,-0.064208984,-1.1741333,0.1630249,-3.640625,-2.75,0.96875,526
527,1695773120503,0.010498047,-1.1531372,0.20281982,-9.578125,-5.1875,-2.90625,527
528,1695773120543,0.08081055,-1.0435181,0.19598389,-19.546875,7.96875,-6.71875,528
529,1695773120583,-0.119628906,-0.90093994,0.1605835,-17.375,-7.5,-5.609375,529
530,1695773120623,-0.118652344,-1.0928345,0.24188232,6.140625,1.75,-0.96875,530
531,1695773120663,-0.014892578,-0.7774048,0.16815186,-4.78125,-3.015625,-0.515625,531
532,1695773120703,-0.03491211,-0.97320557,0.15106201,7.578125,-4.6875,-4.421875,532
533,1695773120743,-0.009521484,-0.8921509,0.16815186,8.1875,1.8125,-2.28125,533
534,1695773120783,-0.024902344,-1.0542603,0.22601318,5.453125,-0.34375,-0.390625,534
535,1695773120823,-0.071777344,-1.0322876,0.2255249,0.296875,-4.75,1.84375,535
536,1695773120863,-0.07446289,-0.96588135,0.17352295,-5.703125,-0.4375,-11.09375,536
537,1695773120903,-0.036621094,-1.0115356,0.17034912,0.546875,0.875,-5.640625,537
538,1695773120943,-0.05078125,-0.9949341,0.18572998,3.0,0.65625,2.78125,538
539,1695773120983,-0.092285156,-0.9780884,0.15887451,3.59375,-0.765625,5.171875,539
540,1695773121023,-0.0871582,-0.9829712,0.15692139,-0.640625,-0.15625,-2.375,540
541,1695773121063,-0.09863281,-1.022522,0.12762451,1.53125,4.609375,-8.875,541
542,1695773121103,-0.09667969,-1.0881958,0.109313965,7.390625,6.90625,1.484375,542
543,1695773121143,0.080322266,-0.87384033,0.2694702,4.4375,1.1875,-7.6875,543
544,1695773121183,-0.14941406,-1.0733032,0.10784912,-3.140625,0.515625,12.25,544
545,1695773121223,-0.0546875,-0.88482666,0.24871826,-1.46875,2.265625,-5.84375,545
546,1695773121263,-0.14916992,-1.0715942,0.15545654,3.953125,-12.890625,-0.3125,546
547,1695773121303,-0.05102539,-0.85406494,0.1798706,0.640625,4.25,0.84375,547
548,1695773121343,-0.06225586,-0.9990845,0.03265381,-9.390625,1.421875,-0.46875,548
549,1695773121383,-0.037353516,-1.0610962,0.18475342,4.234375,-2.328125,-4.28125,549
550,1695773121423,-0.057373047,-1.0628052,0.30706787,15.671875,-1.140625,6.765625,550
551,1695773121463,-0.15161133,-0.9414673,0.07098389,-5.96875,-8.90625,-2.703125,551
552,1695773121503,-0.052978516,-0.75128174,0.12860107,-8.03125,-5.765625,-16.34375,552
553,1695773121543,-0.0073242188,-1.1633911,0.12591553,-4.078125,-7.703125,-6.453125,553
554,1695773121583,-0.12841797,-1.0645142,0.1618042,-27.421875,-1.8125,7.609375,554
555,1695773121623,-0.15039062,-0.87579346,0.33343506,-5.09375,-0.375,-9.421875,555
556,1695773121663,-0.10644531,-1.1809692,0.24847412,7.234375,-0.625,-4.0625,556
557,1695773121703,-0.103515625,-1.0130005,0.120788574,-24.703125,7.65625,17.09375,557
558,1695773121743,-0.15161133,-0.77911377,0.16278076,13.171875,2.515625,0.875,558
559,1695773121783,-0.044433594,-1.1184692,0.21502686,15.28125,-2.21875,2.53125,559
560,1695773121823,-0.06738281,-0.93756104,0.20526123,-5.90625,-0.625,3.09375,560
561,1695773121863,-0.02758789,-1.05719,0.105163574,3.78125,-0.296875,-5.203125,561
562,1695773121903,-0.020751953,-0.87042236,0.11199951,-2.9375,0.046875,1.671875,562
563,1695773121943,-0.08105469,-1.0088501,0.16400146,6.484375,-1.328125,1.53125,563
564,1695773121983,-0.10546875,-1.0169067,0.21697998,0.40625,-1.890625,4.4375,564
565,1695773122023,-0.068847656,-1.0217896,0.19403076,-0.9375,0.734375,-2.34375,565
566,1695773122063,-0.07348633,-1.0071411,0.13006592,-0.34375,2.15625,3.21875,566
567,1695773122103,-0.07299805,-0.92266846,0.16107178,4.1875,0.5625,1.234375,567
568,1695773122143,-0.056884766,-1.0274048,0.16400146,5.984375,2.515625,-1.21875,568
569,1695773122183,-0.06640625,-1.0308228,0.13787842,-3.84375,1.796875,3.453125,569
570,1695773122223,-0.044189453,-0.98760986,0.1630249,4.375,3.265625,0.015625,570
571,1695773122263,-0.064941406,-1.034729,0.06439209,-2.890625,2.921875,2.03125,571
572,1695773122303,-0.080322266,-0.93878174,0.101745605,-2.03125,5.53125,4.796875,572
573,1695773122343,0.05834961,-0.9680786,0.18621826,7.765625,4.21875,-5.890625,573
574,1695773122383,-0.06689453,-1.0733032,0.109802246,-4.0,2.578125,8.15625,574
575,1695773122423,-0.06323242,-0.8362427,0.14471436,-2.953125,3.734375,-6.03125,575
576,1695773122463,-0.0637207,-1.0789185,0.18157959,9.609375,-0.171875,-0.078125,576
577,1695773122503,-0.059326172,-0.9873657,0.11859131,-6.765625,-0.421875,5.0,577
578,1695773122543,-0.046142578,-0.9290161,0.17816162,1.609375,1.15625,-1.234375,578
579,1695773122583,-0.040527344,-1.0747681,0.16741943,6.5,0.6875,-1.25,579
580,1695773122623,-0.08178711,-0.9602661,0.13201904,-9.3125,0.65625,6.5,580
581,1695773122663,-0.015380859,-0.9414673,0.16229248,2.046875,-0.140625,-3.640625,581
582,1695773122703,-0.008300781,-0.9907837,0.13763428,-0.671875,-2.1875,-2.40625,582
583,1695773122743,-0.053222656,-1.041565,0.15814209,-9.359375,-3.765625,2.96875,583
584,1695773122783,-0.037597656,-1.0261841,0.1749878,-19.84375,-6.859375,-6.578125,584
585,1695773122823,-0.10180664,-0.9434204,0.16156006,-2.28125,-1.609375,-11.71875,585
586,1695773122863,0.0026855469,-1.1282349,0.1774292,27.59375,4.359375,-0.671875,586
587,1695773122903,-0.07324219,-0.97247314,0.10247803,-6.984375,-1.75,15.671875,587
588,1695773122943,-0.067871094,-0.8069458,0.109558105,0.390625,-6.078125,0.125,588
589,1695773122983,-0.032714844,-1.0476685,0.11956787,15.1875,-2.828125,-3.125,589
590,1695773123023,-0.04248047,-0.99420166,0.11810303,-2.03125,-0.578125,2.21875,590
591,1695773123063,-0.024169922,-1.0100708,0.14691162,1.03125,0.671875,-0.34375,591
592,1695773123103,-0.03955078,-0.99224854,0.11126709,-4.15625,-5.484375,1.578125,592
593,1695773123143,-0.037109375,-1.000061,0.120788574,0.703125,-1.625,1.75,593
594,1695773123183,-0.035888672,-1.0276489,0.14129639,2.140625,-0.71875,2.71875,594
595,1695773123223,-0.05834961,-0.9561157,0.11468506,-2.046875,-1.703125,0.203125,595
596,1695773123263,-0.0063476562,-1.0039673,0.11175537,0.265625,1.765625,-1.375,596
597,1695773123303,-0.018310547,-0.9795532,0.117614746,0.3125,-0.4375,1.3125,597
598,1695773123343,-0.031982422,-1.0374146,0.08856201,4.40625,-1.171875,0.734375,598
599,1695773123383,-0.024902344,-0.9859009,0.08758545,-1.40625,2.421875,9.078125,599
600,1695773123423,0.0107421875,-0.9849243,0.098083496,3.671875,6.578125,-5.265625,600
601,1695773123463,-0.016113281,-0.98101807,0.10784912,8.15625,7.28125,-0.609375,601
602,1695773123503,-0.018554688,-1.0049438,0.15594482,10.28125,-0.25,0.765625,602
603,1695773123543,-0.07470703,-1.0332642,0.048034668,-2.875,-3.65625,-0.515625,603
604,1695773123583,-0.0690918,-0.9192505,0.0368042,-4.015625,6.328125,-1.6875,604
605,1695773123623,0.052734375,-1.036438,0.13470459,20.71875,11.328125,-8.25,605
606,1695773123663,-0.09326172,-1.0234985,0.039733887,-5.953125,-3.34375,8.96875,606
607,1695773123703,0.0031738281,-0.92388916,0.12664795,1.78125,0.40625,-1.671875,607
608,1695773123743,-0.052001953,-1.116272,0.025817871,-3.171875,-3.765625,-4.0,608
609,1695773123783,-0.028320312,-0.913147,0.061950684,-8.203125,1.828125,-2.8125,609
610,1695773123823,-0.059814453,-1.0357056,0.074645996,5.671875,1.921875,0.578125,610
611,1695773123863,-0.08325195,-0.99053955,0.08441162,-25.25,2.328125,6.359375,611
612,1695773123903,-0.030273438,-0.8164673,0.2111206,-13.125,-3.78125,-4.0625,612
613,1695773123943,-0.033203125,-1.1924438,0.08416748,5.515625,0.546875,2.234375,613
614,1695773123983,0.013183594,-0.92510986,0.093444824,-10.40625,2.234375,3.96875,614
615,1695773124023,-0.041748047,-1.0410767,0.08465576,17.59375,0.75,-1.671875,615
616,1695773124063,0.006591797,-0.94903564,0.13885498,0.75,-4.6875,-0.125,616
617,1695773124103,-0.014160156,-0.9963989,0.089782715,-3.625,-1.390625,-5.046875,617
618,1695773124143,-0.014160156,-0.97369385,0.07293701,-3.5625,-2.296875,-1.03125,618
619,1695773124183,-0.01953125,-0.9734497,0.10272217,5.328125,1.359375,-1.125,619
620,1695773124223,-0.055419922,-0.9944458,0.120788574,5.859375,2.609375,3.21875,620
621,1695773124263,-0.055664062,-1.0276489,0.10491943,0.203125,2.40625,3.0625,621
622,1695773124303,-0.03930664,-1.0388794,0.03778076,-1.0,1.015625,1.203125,622
623,1695773124343,0.008544922,-1.0564575,-0.10455322,13.578125,11.265625,4.875,623
624,1695773124383,0.13085938,-1.15094,0.19891357,10.515625,5.453125,13.890625,624
625,1695773124423,-0.06713867,-1.0293579,-0.030578613,1.359375,3.671875,28.96875,625
626,1695773124463,-0.10546875,-0.6914673,0.03753662,-2.046875,22.703125,-2.03125,626
627,1695773124503,-0.038085938,-1.0147095,0.14422607,-2.59375,3.609375,-4.125,627
628,1695773124543,0.15112305,-0.9763794,0.11566162,-3.59375,5.4375,0.296875,628
629,1695773124583,0.055419922,-0.9224243,0.08343506,-7.484375,-7.8125,-8.234375,629
630,1695773124623,0.032958984,-1.0718384,-0.003967285,-20.78125,-6.015625,-2.25,630
631,1695773124663,0.075927734,-1.0081177,0.03704834,-3.5,2.671875,3.9375,631
632,1695773124703,0.0024414062,-1.0879517,0.15594482,5.171875,-3.1875,4.3125,632
633,1695773124743,-0.00024414062,-1.0752563,0.1359253,-5.296875,-6.375,1.375,633
634,1695773124783,0.007080078,-0.815979,0.05316162,-12.171875,5.140625,-11.75,634
635,1695773124823,0.08227539,-0.9924927,0.15057373,2.5625,3.28125,-17.703125,635
636,1695773124863,-0.075683594,-1.0913696,0.13397217,-5.90625,-9.078125,14.421875,636
637,1695773124903,0.011962891,-0.84332275,0.23431396,-1.1875,2.328125,2.5625,637
638,1695773124943,-0.010253906,-1.1350708,0.061462402,2.015625,4.921875,0.0625,638
639,1695773124983,0.03466797,-0.9402466,0.10760498,-3.828125,1.671875,7.15625,639
640,1695773125023,0.13867188,-1.013977,0.14837646,7.359375,1.734375,0.28125,640
641,1695773125063,-0.017578125,-1.0669556,0.11419678,-29.25,-4.6875,5.21875,641
642,1695773125103,-0.057617188,-0.7918091,0.22259521,-23.125,-3.9375,-12.109375,642
643,1695773125143,0.06738281,-1.1235962,0.17840576,16.59375,8.3125,-22.5,643
644,1695773125183,0.06274414,-0.96295166,0.112976074,-10.328125,3.25,8.53125,644
645,1695773125223,-0.025878906,-0.92266846,0.16253662,8.15625,-0.828125,1.203125,645
646,1695773125263,0.017089844,-1.0842896,0.10394287,7.9375,-3.40625,3.578125,646
647,1695773125303,0.0026855469,-0.90826416,0.12860107,-1.015625,-1.171875,-3.5625,647
648,1695773125343,0.064941406,-1.0569458,0.17352295,4.046875,-0.03125,-7.21875,648
649,1695773125383,-0.018554688,-0.93585205,0.10638428,-6.59375,-8.453125,-0.9375,649
650,1695773125423,-0.028076172,-0.9546509,0.1552124,3.8125,1.984375,-4.15625,650
651,1695773125463,0.00024414062,-1.0632935,0.18133545,0.953125,-0.140625,1.296875,651
652,1695773125503,-0.03881836,-0.9710083,0.15008545,-3.421875,-7.34375,2.703125,652
653,1695773125543,-0.013671875,-1.0303345,0.1461792,2.390625,-1.578125,-4.6875,653
654,1695773125583,-0.015136719,-0.9614868,0.13201904,0.078125,-0.71875,-6.28125,654
655,1695773125623,-0.036376953,-0.9829712,0.13934326,0.03125,-1.0,-4.546875,655
656,1695773125663,-0.052978516,-1.0234985,0.14813232,0.828125,-0.984375,1.921875,656
657,1695773125703,-0.026611328,-0.989563,0.066345215,3.90625,3.96875,5.640625,657
658,1695773125743,0.020263672,-0.99346924,0.13763428,6.609375,8.15625,4.09375,658
659,1695773125783,0.02734375,-1.0755005,0.15252686,3.09375,2.015625,2.671875,659
660,1695773125823,-0.045898438,-0.86505127,0.09588623,-7.546875,4.921875,0.921875,660
661,1695773125863,0.064697266,-1.0886841,0.16595459,5.765625,4.390625,-11.25,661
662,1695773125903,-0.0068359375,-0.96661377,0.12030029,-5.265625,-8.90625,7.875,662
663,1695773125943,-0.072265625,-0.9072876,0.1605835,-0.890625,-0.671875,-0.03125,663
664,1695773125983,-0.038330078,-1.0171509,0.082214355,-2.8125,5.40625,-1.0625,664
665,1695773126023,0.048339844,-0.99786377,0.14593506,3.328125,7.59375,3.078125,665
666,1695773126063,-0.007080078,-1.0515747,0.11273193,2.78125,1.828125,7.015625,666
667,1695773126103,0.040039062,-0.91290283,0.16253662,2.09375,1.375,-1.6875,667
668,1695773126143,0.05126953,-1.0264282,0.10443115,-1.296875,-0.40625,-3.578125,668
669,1695773126183,0.024414062,-0.93829346,0.11151123,-4.640625,-2.921875,-6.28125,669
670,1695773126223,0.05834961,-1.0496216,0.1293335,11.765625,2.578125,-10.9375,670
671,1695773126263,-0.1472168,-0.9612427,0.16693115,-13.78125,-7.203125,-5.296875,671
672,1695773126303,-0.033935547,-0.9932251,0.20819092,-2.453125,-5.9375,-20.4375,672
673,1695773126343,-0.0031738281,-1.1135864,0.007751465,6.015625,-4.890625,2.25,673
674,1695773126383,-0.104003906,-0.87457275,0.06488037,0.53125,-4.953125,2.859375,674
675,1695773126423,-0.08862305,-0.9771118,0.06439209,11.828125,0.71875,0.609375,675
676,1695773126463,-0.047607422,-0.98760986,0.08099365,-3.84375,-2.546875,-1.484375,676
677,1695773126503,-0.051513672,-1.0510864,0.101257324,-0.953125,2.8125,-1.328125,677
678,1695773126543,-0.022705078,-1.0361938,0.09490967,-1.265625,-1.421875,-0.78125,678
679,1695773126583,-0.063964844,-0.95758057,0.074401855,0.046875,0.625,2.234375,679
680,1695773126623,-0.048583984,-0.9758911,0.08148193,2.1875,1.28125,1.96875,680
681,1695773126663,-0.060546875,-1.0132446,0.11956787,-1.8125,-3.578125,1.3125,681
682,1695773126703,-0.059326172,-1.0098267,0.11590576,-1.140625,0.59375,1.546875,682
683,1695773126743,-0.041503906,-0.96881104,0.08685303,0.84375,2.859375,1.015625,683
684,1695773126783,-0.032714844,-1.0120239,0.07293701,-0.59375,3.1875,0.328125,684
685,1695773126823,-0.004638672,-0.97003174,0.117614746,3.765625,3.203125,1.625,685
686,1695773126863,-0.039794922,-1.067688,0.00970459,-1.453125,4.875,0.09375,686
687,1695773126903,-0.013916016,-0.92193604,0.15301514,6.609375,9.3125,3.375,687
688,1695773126943,-0.013427734,-1.1497192,0.038024902,14.59375,6.109375,-0.46875,688
689,1695773126983,-0.12426758,-0.8452759,0.043395996,-5.546875,3.6875,5.484375,689
690,1695773127023,0.05810547,-1.1262817,0.032165527,17.53125,9.171875,-12.71875,690
691,1695773127063,-0.063964844,-0.9837036,0.14129639,-6.25,-0.25,4.046875,691
692,1695773127103,-0.01977539,-1.0105591,0.08856201,7.875,7.6875,1.921875,692
693,1695773127143,-0.072021484,-0.90289307,-0.08502197,-9.375,-11.71875,-3.484375,693
694,1695773127183,0.031982422,-0.9624634,0.12445068,10.6875,10.578125,-0.71875,694
695,1695773127223,-0.080078125,-1.1497192,0.010192871,1.8125,-1.46875,2.59375,695
696,1695773127263,-0.06201172,-0.8982544,0.08660889,-7.953125,-5.171875,0.96875,696
697,1695773127303,-0.02368164,-1.0532837,0.054138184,10.8125,5.421875,-2.703125,697
698,1695773127343,-0.049804688,-1.0110474,-0.0005493164,-16.359375,-3.6875,2.203125,698
699,1695773127383,-0.0017089844,-0.9312134,0.059020996,-2.4375,-1.75,-3.4375,699
700,1695773127423,-0.053955078,-1.0557251,0.016052246,0.265625,-2.96875,2.03125,700
701,1695773127463,-0.03466797,-1.0186157,0.07952881,-8.40625,7.890625,6.171875,701
702,1695773127503,-0.03491211,-0.911438,0.05657959,-12.03125,-9.9375,-1.90625,702
703,1695773127543,-0.07788086,-1.085022,0.08880615,-16.875,-14.578125,-3.109375,703
704,1695773127583,0.03491211,-1.0291138,-0.009338379,-5.5625,6.1875,10.78125,704
705,1695773127623,0.028808594,-0.894104,0.0770874,4.28125,1.8125,5.265625,705
706,1695773127663,-0.01977539,-1.076477,0.038269043,-2.8125,-3.390625,-1.65625,706
707,1695773127703,0.0036621094,-1.0064087,0.1005249,-0.296875,1.1875,3.234375,707
708,1695773127743,0.1484375,-1.0249634,0.19232178,15.78125,14.21875,-7.984375,708
709,1695773127783,-0.14282227,-0.9776001,0.030212402,-9.515625,-7.203125,15.734375,709
710,1695773127823,-0.07763672,-0.87750244,0.15081787,4.796875,2.421875,-5.3125,710
711,1695773127863,0.10107422,-1.053772,0.1071167,4.3125,4.5625,-14.890625,711
712,1695773127903,-0.026367188,-1.0432739,0.04827881,-11.625,-4.453125,0.984375,712
713,1695773127943,-0.032226562,-0.92559814,0.1239624,-0.359375,-4.84375,1.6875,713
714,1695773127983,-0.022216797,-1.0213013,0.07220459,5.75,-1.3125,-0.6875,714
715,1695773128023,-0.08081055,-1.0005493,0.07293701,-8.640625,-3.0,2.25,715
716,1695773128063,-0.0078125,-0.9522095,0.113708496,-0.171875,1.328125,-1.0,716
717,1695773128103,-0.0026855469,-1.0484009,0.053649902,0.0,1.4375,0.28125,717
718,1695773128143,0.023925781,-0.97906494,0.06390381,-7.421875,0.359375,2.328125,718
719,1695773128183,0.052734375,-0.9937134,0.101989746,-4.34375,-2.90625,0.609375,719
720,1695773128223,-0.001953125,-0.99542236,0.12860107,-16.625,-7.53125,-1.734375,720
721,1695773128263,-0.04711914,-0.92926025,0.2477417,-0.265625,-10.90625,-8.3125,721
722,1695773128303,-0.06274414,-1.1260376,0.10247803,0.265625,-5.296875,2.328125,722
723,1695773128343,-0.030517578,-0.8899536,0.06072998,-5.5625,-1.796875,3.265625,723
724,1695773128383,0.009765625,-0.9746704,0.09466553,1.0625,-4.265625,-1.8125,724
725,1695773128423,0.025146484,-0.9846802,0.12908936,-0.375,-0.875,-1.171875,725
726,1695773128463,-0.010009766,-1.0630493,0.12908936,-1.90625,-6.4375,-0.359375,726
727,1695773128503,-0.037353516,-1.0142212,0.13909912,-8.859375,-5.546875,-2.765625,727
728,1695773128543,-0.03466797,-0.98687744,0.1293335,-7.875,-1.859375,-4.828125,728
729,1695773128583,-0.034423828,-0.9927368,0.12884521,-6.53125,-3.09375,2.421875,729
730,1695773128623,-0.0390625,-0.98394775,0.14154053,-8.078125,1.15625,-0.53125,730
731,1695773128663,-0.03955078,-1.0288696,0.15618896,-1.046875,1.9375,-3.359375,731
732,1695773128703,0.022949219,-0.96173096,0.1828003,3.8125,2.015625,-7.515625,732
733,1695773128743,-0.042236328,-1.0969849,0.14984131,-1.609375,4.84375,13.125,733
734,1695773128783,-0.026855469,-0.86846924,0.27850342,-7.8125,-0.40625,-1.4375,734
735,1695773128823,-0.06616211,-1.0437622,0.15057373,-7.625,0.28125,-3.90625,735
736,1695773128863,0.018066406,-0.89190674,0.23846436,-4.921875,-2.28125,-11.71875,736
737,1695773128903,-0.020019531,-1.0518188,0.13665771,8.859375,-9.5625,1.90625,737
738,1695773128943,-0.061279297,-0.84259033,0.07611084,-14.765625,-1.0,7.625,738
739,1695773128983,-0.026855469,-1.0730591,0.15692139,2.296875,9.703125,-9.546875,739
740,1695773129023,-0.020996094,-1.2000122,0.21160889,8.453125,-3.765625,-2.921875,740
741,1695773129063,-0.022216797,-0.91485596,0.31072998,8.40625,4.25,9.03125,741
742,1695773129103,-0.13696289,-0.94854736,0.059753418,-8.25,-0.140625,-1.1875,742
743,1695773129143,-0.059814453,-0.8201294,0.12664795,-13.75,1.609375,-12.84375,743
744,1695773129183,-0.01586914,-1.1641235,0.2477417,5.015625,-2.21875,-0.140625,744
745,1695773129223,-0.03149414,-1.0501099,0.23040771,5.546875,0.875,13.625,745
746,1695773129263,-0.035888672,-0.9612427,0.14642334,4.296875,1.171875,-12.578125,746
747,1695773129303,-0.03466797,-0.958313,0.0770874,-4.109375,0.6875,-11.5625,747
748,1695773129343,-0.0017089844,-1.0210571,0.15887451,4.84375,-2.40625,6.3125,748
749,1695773129383,-0.05102539,-0.8970337,0.18475342,1.859375,-4.734375,5.421875,749
750,1695773129423,-0.18066406,-1.0188599,0.16156006,3.234375,2.390625,-0.140625,750
751,1695773129463,-0.017089844,-1.0567017,0.16473389,-5.5,4.421875,-3.0625,751
752,1695773129503,0.011962891,-0.972229,0.14471436,-1.84375,3.03125,3.125,752
753,1695773129543,-0.030761719,-0.95806885,0.1774292,0.890625,3.15625,0.03125,753
754,1695773129583,-0.036865234,-1.0271606,0.19134521,-13.28125,-1.296875,-5.421875,754
755,1695773129623,-0.028808594,-0.9573364,0.14788818,-30.0625,0.875,-2.0625,755
756,1695773129663,-0.2084961,-0.9031372,0.2826538,20.34375,10.90625,0.75,756
757,1695773129703,-0.017089844,-1.2324829,0.23138428,21.65625,-2.265625,5.25,757
758,1695773129743,-0.0061035156,-0.9558716,0.14788818,-19.109375,2.625,9.796875,758
759,1695773129783,-0.14672852,-0.9290161,0.16815186,-14.953125,-6.234375,-3.59375,759
