,timestamp,accel_x,accel_y,accel_z,gyro_x,gyro_y,gyro_z
0,1696168112079,0.2133789,-0.88067627,-0.19903564,10.265625,14.03125,2.109375
1,1696168112117,0.2919922,-1.0332642,-0.1921997,7.734375,0.953125,-2.75
2,1696168112158,0.31469727,-1.0999146,-0.085754395,-0.296875,-2.046875,-4.84375
3,1696168112198,0.16674805,-0.991272,-0.0134887695,-12.78125,1.34375,-5.5
4,1696168112238,0.072021484,-0.99786377,-0.03643799,-0.609375,4.875,-4.546875
5,1696168112278,0.064941406,-0.9553833,-0.008850098,3.5,1.8125,-1.171875
6,1696168112317,0.11621094,-0.8513794,-0.006652832,1.1875,7.71875,-2.390625
7,1696168112358,0.15820312,-0.70806885,0.066589355,-4.375,7.59375,-8.9375
8,1696168112399,0.07519531,-0.7420044,0.026306152,-3.203125,-4.015625,-8.296875
9,1696168112438,0.027832031,-0.7136841,0.048034668,-1.0,-0.9375,-6.234375
10,1696168112478,0.03857422,-0.8262329,0.0446167,-2.578125,-4.25,-6.09375
11,1696168112518,0.017578125,-0.8748169,0.04168701,-1.1875,-6.5625,-1.921875
12,1696168112558,0.026611328,-0.93951416,0.14031982,-2.328125,-5.453125,-3.125
13,1696168112600,0.064941406,-1.0564575,0.13690186,-2.953125,-6.25,-3.5625
14,1696168112640,0.049072266,-1.0725708,0.093688965,-9.890625,-6.890625,-5.9375
15,1696168112679,-0.04345703,-1.164856,0.1461792,-2.875,-8.4375,-2.6875
16,1696168112719,-0.043701172,-1.0540161,0.02923584,6.53125,0.046875,6.609375
17,1696168112760,0.25805664,-1.2044067,-0.028625488,11.609375,-9.609375,5.625
18,1696168112799,0.41503906,-1.3272095,-0.07940674,6.484375,-9.734375,12.828125
19,1696168112839,0.3371582,-0.989563,-0.1026001,-6.75,-5.8125,11.984375
20,1696168112881,0.29248047,-0.86309814,-0.031799316,-7.140625,-0.578125,2.125
21,1696168112922,0.41577148,-1.0056763,-0.050598145,-7.46875,-10.953125,4.78125
22,1696168112961,0.47070312,-1.0396118,0.022644043,-0.046875,-6.375,10.46875
23,1696168113001,0.19873047,-1.034729,0.009216309,-14.46875,-4.75,0.359375
24,1696168113042,0.2290039,-0.92510986,0.057556152,-14.90625,-1.96875,2.96875
25,1696168113080,0.2722168,-0.9727173,0.09661865,9.203125,0.5625,9.625
26,1696168113119,0.3388672,-1.0227661,0.14788818,-12.4375,-0.234375,5.59375
27,1696168113160,0.16601562,-0.8110962,0.11175537,-7.625,5.421875,1.078125
28,1696168113201,0.20874023,-0.8147583,0.066101074,1.703125,-9.265625,9.40625
29,1696168113241,0.2163086,-0.7293091,0.1473999,-14.5625,0.09375,6.34375
30,1696168113261,0.1796875,-0.6712036,0.22454834,-15.453125,1.1875,-0.40625
31,1696168113302,0.16137695,-0.60357666,0.23895264,4.78125,-2.203125,0.046875
32,1696168113342,0.12011719,-0.8255005,0.20111084,-0.421875,-0.375,-0.25
33,1696168113382,0.15625,-0.9053345,0.2567749,5.03125,8.703125,-3.25
34,1696168113425,0.29956055,-1.0264282,0.22479248,7.640625,-1.546875,1.34375
35,1696168113460,0.27416992,-1.069397,0.28118896,-10.125,7.5625,-10.015625
36,1696168113502,0.21899414,-1.1392212,0.28411865,7.21875,7.140625,-8.890625
37,1696168113539,0.1640625,-1.0264282,0.15301514,-0.078125,3.203125,3.359375
38,1696168113579,0.19140625,-0.8735962,0.16375732,-2.734375,6.734375,-1.25
39,1696168113620,0.25463867,-1.0366821,0.19110107,9.421875,8.46875,-0.453125
40,1696168113665,0.6257324,-1.5674438,0.023132324,16.234375,-23.453125,14.0
41,1696168113699,0.41674805,-1.2642212,0.1281128,-9.1875,10.875,-15.046875
42,1696168113741,0.0546875,-0.6790161,-0.082336426,-7.234375,29.453125,-8.3125
43,1696168113787,0.072265625,-0.7822876,-0.2600708,15.375,11.65625,0.78125
44,1696168113821,0.33618164,-1.1062622,-0.15679932,8.859375,-15.75,-13.984375
45,1696168113861,0.30273438,-1.1541138,0.18572998,-10.25,7.015625,-15.21875
46,1696168113902,0.08203125,-0.95977783,0.13543701,-14.34375,5.46875,-8.21875
47,1696168113941,-0.06542969,-0.8821411,-0.10699463,1.96875,2.484375,-8.078125
48,1696168113982,0.053466797,-0.8220825,0.06414795,4.265625,12.046875,-11.125
49,1696168114028,0.072265625,-0.85723877,0.15692139,1.546875,21.65625,-8.171875
50,1696168114058,0.091308594,-0.83599854,0.07220459,-4.8125,8.40625,-7.703125
51,1696168114102,0.084228516,-0.7612915,-0.053527832,-0.859375,6.703125,-5.796875
52,1696168114145,0.07397461,-0.7647095,0.049987793,-1.421875,2.046875,-3.71875
53,1696168114181,0.010009766,-0.8189087,0.070739746,2.234375,-1.796875,0.984375
54,1696168114221,-0.0063476562,-0.95758057,0.08782959,-1.390625,-7.09375,1.9375
55,1696168114264,-0.026855469,-1.1140747,0.12664795,9.46875,0.640625,3.546875
56,1696168114301,0.18701172,-1.0679321,0.19500732,-6.703125,-12.046875,5.21875
57,1696168114348,0.1340332,-1.0154419,0.15179443,-7.90625,-4.703125,1.8125
58,1696168114385,-0.1328125,-1.2468872,0.030700684,6.9375,-6.609375,7.15625
59,1696168114421,0.036132812,-1.1455688,0.08294678,9.703125,-1.8125,13.578125
60,1696168114460,0.34765625,-1.3650513,0.097351074,-1.59375,-5.265625,2.890625
61,1696168114483,0.32983398,-1.0628052,-0.04083252,2.25,6.6875,11.5625
62,1696168114520,0.2709961,-0.94073486,-0.066711426,-0.046875,-9.546875,10.4375
63,1696168114561,0.32421875,-0.8765259,0.07659912,0.109375,-5.96875,7.671875
64,1696168114606,0.42529297,-0.90411377,0.101745605,-6.0,-9.640625,4.65625
65,1696168114639,0.34960938,-0.9006958,-0.006164551,-1.734375,-12.5,5.03125
66,1696168114680,0.28051758,-0.94195557,0.05267334,-6.1875,-12.921875,1.09375
67,1696168114721,0.20678711,-0.98883057,0.16693115,-6.625,-1.3125,-3.28125
68,1696168114759,0.18701172,-0.9053345,0.13739014,-0.046875,1.515625,1.65625
69,1696168114803,0.32788086,-0.9277954,0.0848999,4.140625,-11.046875,8.203125
70,1696168114840,0.32958984,-0.89385986,0.13543701,-1.109375,-5.609375,4.171875
71,1696168114880,0.23339844,-0.8508911,0.17156982,-0.234375,6.125,4.65625
72,1696168114920,0.18530273,-0.8123169,0.12176514,3.84375,-0.203125,7.453125
73,1696168114960,0.106933594,-0.7761841,0.16888428,-3.828125,6.421875,2.546875
74,1696168114999,0.20141602,-0.7788696,0.14569092,-1.8125,-2.390625,4.1875
75,1696168115041,0.26831055,-0.77423096,0.2230835,3.109375,7.359375,-0.5
76,1696168115081,0.23706055,-0.8274536,0.19744873,-1.15625,7.03125,-5.078125
77,1696168115120,0.23095703,-0.93292236,0.24090576,-10.625,0.4375,-10.921875
78,1696168115161,0.13793945,-0.9727173,0.16766357,1.71875,8.15625,-8.921875
79,1696168115201,0.33691406,-1.0767212,0.07293701,19.53125,-7.734375,2.78125
80,1696168115240,0.4099121,-1.2866821,0.15252686,13.625,2.125,-5.1875
81,1696168115282,0.095458984,-1.2578735,0.1317749,2.734375,5.359375,-8.5
82,1696168115323,0.18164062,-1.0730591,-0.054260254,11.578125,6.484375,-5.53125
83,1696168115360,0.43701172,-1.1743774,-0.0134887695,8.203125,2.53125,-0.375
84,1696168115401,0.30444336,-1.0618286,-0.032043457,-7.828125,11.25,-3.90625
85,1696168115440,0.15112305,-0.77130127,-0.26275635,-7.734375,13.21875,-5.234375
86,1696168115481,0.2680664,-0.87872314,-0.2456665,3.421875,1.28125,-9.8125
87,1696168115523,0.32592773,-1.0950317,0.04144287,3.78125,1.265625,-10.671875
88,1696168115560,0.15698242,-1.0298462,0.038757324,-11.421875,9.328125,-10.265625
89,1696168115600,-0.013916016,-0.8960571,-0.11480713,-3.015625,12.734375,-12.28125
90,1696168115640,-0.008056641,-0.9390259,-0.043762207,5.328125,8.125,-11.71875
91,1696168115680,0.1821289,-0.92510986,0.073913574,5.796875,2.234375,-4.78125
92,1696168115700,0.16357422,-0.79351807,0.029724121,-2.1875,9.15625,-3.34375
93,1696168115739,0.13061523,-0.7737427,-0.04840088,-2.0,8.953125,-0.84375
94,1696168115778,0.07006836,-0.72491455,-0.003479004,-1.953125,-4.6875,-6.75
95,1696168115821,-0.034423828,-0.788147,0.011413574,5.6875,-7.421875,-1.078125
96,1696168115860,-0.02319336,-0.9121704,0.026306152,7.609375,-5.625,2.53125
97,1696168115902,0.008544922,-0.9500122,0.0006713867,8.171875,-10.34375,4.671875
98,1696168115941,-0.0026855469,-1.0596313,0.08392334,3.875,-3.0625,2.984375
99,1696168115982,0.0075683594,-1.1594849,0.11077881,-2.09375,-6.03125,2.171875
100,1696168116019,0.19238281,-0.99176025,-0.044006348,1.140625,-3.890625,5.796875
101,1696168116060,0.18530273,-1.0288696,-0.03253174,-15.1875,-10.71875,6.640625
102,1696168116101,0.09399414,-1.3833618,0.10784912,8.71875,-12.375,8.4375
103,1696168116142,0.0036621094,-1.1550903,0.0018920898,6.25,0.140625,11.921875
104,1696168116181,0.15673828,-0.9819946,-0.13311768,4.171875,11.34375,11.4375
105,1696168116222,0.33325195,-1.0244751,-0.19317627,2.8125,-1.84375,13.875
106,1696168116261,0.39379883,-0.9234009,0.028015137,-0.25,-4.796875,12.359375
107,1696168116303,0.30151367,-0.87335205,0.0014038086,-2.140625,-5.328125,7.953125
108,1696168116341,0.23706055,-0.91485596,-0.1843872,-2.59375,-1.109375,8.09375
109,1696168116382,0.36376953,-0.8858032,-0.13165283,0.1875,-12.484375,6.78125
110,1696168116423,0.35546875,-1.0195923,0.023864746,0.046875,-8.8125,2.4375
111,1696168116461,0.31054688,-0.9907837,-0.007873535,-17.0,-12.03125,1.109375
112,1696168116504,0.31079102,-0.9204712,-0.034729004,-4.71875,-11.734375,3.15625
113,1696168116544,0.23706055,-0.9631958,0.11541748,-3.359375,-6.640625,1.625
114,1696168116581,0.32006836,-0.9841919,0.13812256,-4.765625,-14.203125,4.265625
115,1696168116622,0.29760742,-0.90753174,0.06585693,-11.046875,-12.96875,2.359375
116,1696168116664,0.20678711,-0.82891846,0.06414795,-4.125,-7.421875,3.890625
117,1696168116701,0.18139648,-0.77838135,0.13104248,-4.46875,-2.328125,1.109375
118,1696168116741,0.22045898,-0.7695923,0.1618042,-5.84375,1.015625,1.6875
119,1696168116780,0.2697754,-0.8088989,0.1408081,-1.109375,-4.8125,-0.578125
120,1696168116821,0.25048828,-0.77056885,0.17669678,-3.09375,3.9375,-4.515625
121,1696168116860,0.14526367,-0.8521118,0.15618896,0.671875,2.75,0.265625
122,1696168116921,0.0625,-0.8772583,0.19232178,-6.515625,9.640625,-6.984375
123,1696168116925,0.2619629,-0.9627075,0.101501465,17.234375,14.0625,-8.765625
124,1696168116962,0.40576172,-1.177063,0.070495605,13.75,-2.65625,-2.640625
125,1696168117002,0.43017578,-1.171936,0.21795654,-4.28125,9.015625,4.921875
126,1696168117040,0.25878906,-0.9517212,0.012390137,2.09375,10.78125,-2.609375
127,1696168117082,0.19116211,-0.9204712,0.0016479492,6.328125,1.578125,1.578125
128,1696168117122,0.36157227,-1.1653442,-0.053771973,18.53125,-3.859375,8.921875
129,1696168117160,0.4104004,-1.2744751,-0.07476807,11.640625,10.84375,-3.015625
130,1696168117200,0.30810547,-0.89971924,-0.09967041,-7.125,21.796875,0.125
131,1696168117240,0.32226562,-0.77008057,-0.34161377,9.703125,19.671875,3.4375
132,1696168117284,0.39697266,-0.94732666,-0.20758057,-2.5,-0.9375,-4.421875
133,1696168117325,0.3935547,-1.0466919,-0.012512207,-0.484375,5.453125,-8.890625
134,1696168117375,0.21679688,-0.99884033,-0.077941895,0.5625,12.875,-10.234375
135,1696168117400,0.10229492,-0.8855591,-0.15167236,-6.734375,6.984375,-8.125
136,1696168117441,0.12011719,-0.82525635,-0.06304932,-6.328125,11.40625,-9.046875
137,1696168117482,0.114746094,-0.90509033,-0.022033691,-4.671875,11.78125,-6.5
138,1696168117521,0.1850586,-0.91973877,-0.0256958,-7.65625,3.390625,-1.359375
139,1696168117560,0.19506836,-0.78204346,-0.015686035,-9.1875,11.78125,-7.59375
140,1696168117598,0.06665039,-0.7527466,-0.0010375977,-20.296875,9.90625,-13.46875
141,1696168117640,0.10058594,-0.80059814,0.06829834,-10.84375,-2.3125,-6.171875
142,1696168117683,0.018310547,-0.9849243,0.0016479492,7.75,-2.5,-2.984375
143,1696168117720,0.044433594,-0.9890747,0.027526855,-2.859375,-4.296875,0.75
144,1696168117761,0.12573242,-0.95269775,0.09320068,-8.390625,-7.546875,-3.34375
145,1696168117801,0.13232422,-1.0339966,0.13128662,-10.28125,-3.53125,-5.34375
146,1696168117841,0.020019531,-1.0684204,0.0211792,-5.890625,-8.71875,4.359375
147,1696168117881,0.037109375,-0.9859009,-0.011779785,13.046875,-3.3125,9.234375
148,1696168117920,0.22509766,-1.3931274,0.03704834,16.5,-3.390625,-0.84375
149,1696168117961,0.30908203,-1.3052368,0.08709717,-14.9375,-1.484375,3.125
150,1696168118001,0.3190918,-0.87628174,-0.16192627,-3.4375,4.828125,9.53125
151,1696168118046,0.35473633,-0.9077759,-0.07550049,5.578125,-8.671875,10.703125
152,1696168118085,0.36987305,-0.99542236,0.04144287,1.09375,-26.203125,8.046875
153,1696168118141,0.31176758,-0.927063,0.0692749,-16.0625,-15.875,1.734375
154,1696168118162,0.2421875,-0.8621216,-0.05328369,-2.46875,-4.359375,4.9375
155,1696168118181,0.38378906,-0.9717407,-0.0029907227,4.71875,-16.0625,7.03125
156,1696168118219,0.3034668,-0.99468994,0.1408081,-15.359375,-8.921875,-1.421875
157,1696168118261,0.24584961,-0.93585205,0.14886475,-1.65625,-2.015625,1.453125
158,1696168118298,0.2866211,-0.8435669,0.022155762,-1.578125,-8.140625,9.4375
159,1696168118341,0.37036133,-0.90704346,0.09515381,4.171875,-7.328125,6.40625
160,1696168118380,0.37304688,-0.84942627,0.18865967,-7.59375,-10.734375,1.5
161,1696168118422,0.1652832,-0.83306885,0.14129639,-2.1875,-14.65625,2.890625
162,1696168118461,0.18847656,-0.77056885,0.14300537,-0.875,-10.203125,7.609375
163,1696168118502,0.2253418,-0.80255127,0.15716553,-3.796875,-11.171875,5.78125
164,1696168118539,0.16430664,-0.7893677,0.2514038,0.484375,-1.015625,-2.765625
165,1696168118577,0.18554688,-0.8394165,0.1696167,6.046875,-4.25,0.125
166,1696168118617,0.20410156,-0.9421997,0.24334717,-2.34375,4.84375,-6.171875
167,1696168118663,0.1574707,-0.8831177,0.24432373,-1.921875,10.65625,-10.859375
168,1696168118699,0.2993164,-0.90753174,0.117370605,5.65625,-3.296875,-4.015625
169,1696168118742,0.43554688,-1.1170044,0.13446045,6.953125,-10.421875,3.296875
170,1696168118787,0.34643555,-1.0735474,0.20184326,0.40625,2.125,-1.5
171,1696168118824,0.18066406,-1.0039673,0.058776855,11.25,4.40625,-4.125
172,1696168118860,0.2734375,-1.206604,0.077819824,22.359375,3.171875,5.09375
173,1696168118899,0.38500977,-1.317688,0.031677246,10.78125,7.1875,1.59375
174,1696168118938,0.28930664,-1.0674438,-0.08526611,-12.03125,16.125,-13.84375
175,1696168118982,0.19970703,-0.8291626,-0.0791626,-6.671875,20.0,-7.953125
176,1696168119022,0.23583984,-0.85650635,-0.1116333,12.59375,13.78125,-3.5
177,1696168119059,0.31030273,-1.0630493,-0.105529785,-6.0,8.078125,-11.875
178,1696168119101,0.24609375,-0.9487915,-0.012512207,-10.03125,10.765625,-15.203125
179,1696168119141,0.07861328,-0.92144775,-0.042297363,0.765625,14.828125,-10.1875
180,1696168119181,0.14819336,-0.93414307,-0.013244629,-10.015625,7.59375,-7.984375
181,1696168119222,0.1550293,-0.8928833,0.010192871,1.1875,5.078125,-8.640625
182,1696168119262,0.075683594,-0.8677368,0.029724121,0.3125,10.71875,-5.8125
183,1696168119300,0.06225586,-0.8694458,-0.007385254,-3.203125,15.828125,-5.875
184,1696168119362,0.08325195,-0.8262329,-0.027404785,-3.46875,3.515625,-3.3125
185,1696168119381,0.11987305,-0.86724854,0.014587402,2.84375,5.515625,-3.390625
186,1696168119402,0.059814453,-0.94073486,0.059265137,2.171875,2.015625,-6.109375
187,1696168119440,-0.018554688,-0.90826416,0.06781006,1.40625,4.84375,-5.921875
188,1696168119481,-0.09375,-0.95196533,-0.014709473,-0.109375,4.75,-0.03125
189,1696168119522,0.11743164,-1.0022583,0.038757324,-3.5625,-3.765625,0.0625
190,1696168119560,0.23706055,-0.89971924,0.10321045,-8.421875,-10.046875,-1.875
191,1696168119604,0.111328125,-0.9746704,0.073913574,-7.609375,-10.625,1.234375
192,1696168119642,-0.107421875,-1.0501099,0.038757324,-2.296875,-5.609375,2.953125
193,1696168119678,-0.010253906,-0.97003174,0.015563965,4.921875,-8.046875,6.5625
194,1696168119724,0.12133789,-1.1697388,0.0028686523,6.40625,-5.671875,4.328125
195,1696168119761,0.23266602,-1.3772583,-0.008361816,12.4375,-1.125,8.875
196,1696168119800,0.20288086,-1.3491821,0.038757324,-0.8125,-2.515625,10.546875
197,1696168119843,0.19262695,-1.1521606,0.026062012,-1.734375,-4.546875,14.296875
198,1696168119881,0.3696289,-0.9602661,-0.070373535,6.46875,-3.21875,17.234375
199,1696168119920,0.43652344,-0.8723755,-0.10284424,-8.671875,-7.0625,13.296875
200,1696168119965,0.48413086,-0.87091064,0.039001465,-10.125,-24.046875,6.859375
201,1696168120001,0.15478516,-0.9536743,0.02166748,-5.765625,-4.53125,1.5
202,1696168120042,0.032958984,-0.9170532,-0.0076293945,-12.40625,-2.171875,-0.609375
203,1696168120079,0.24047852,-0.8464966,0.054138184,-4.875,-8.6875,3.109375
204,1696168120121,0.47558594,-0.91973877,0.14422607,4.390625,-7.734375,8.703125
205,1696168120160,0.36572266,-0.894104,0.12005615,-5.625,-9.21875,5.765625
206,1696168120202,0.25048828,-0.8081665,0.113464355,-7.5625,-6.96875,0.953125
207,1696168120241,0.15258789,-0.82769775,0.121520996,-3.8125,-11.890625,2.390625
208,1696168120281,0.096191406,-0.6917114,0.14447021,-7.078125,-0.90625,-0.21875
209,1696168120319,0.1394043,-0.7490845,0.116882324,2.34375,1.375,0.65625
210,1696168120361,0.19873047,-0.8250122,0.19012451,-4.578125,6.296875,-4.4375
211,1696168120401,0.20214844,-0.86724854,0.24456787,3.53125,11.5,-7.984375
212,1696168120442,0.24658203,-0.9151001,0.22918701,3.234375,3.203125,-8.03125
213,1696168120480,0.26000977,-0.9546509,0.20697021,1.609375,2.125,-10.421875
214,1696168120521,0.30419922,-1.1482544,0.13446045,20.625,-5.453125,-0.828125
215,1696168120561,0.25976562,-1.114563,0.03704834,9.59375,-5.265625,-1.765625
216,1696168120601,0.17822266,-1.0623169,0.06756592,5.546875,3.96875,-5.703125
217,1696168120619,0.25854492,-1.3103638,0.013366699,17.90625,-1.609375,0.59375
218,1696168120660,0.40014648,-1.2180786,0.06903076,6.640625,4.09375,-3.65625
219,1696168120701,0.24145508,-1.0598755,-0.11431885,1.1875,17.828125,-4.859375
220,1696168120744,0.2006836,-0.94732666,-0.30670166,-4.71875,5.046875,-2.421875
221,1696168120782,0.28808594,-0.9209595,-0.17486572,1.125,6.21875,-6.390625
222,1696168120820,0.2434082,-0.9776001,-0.003967285,0.578125,17.96875,-11.328125
223,1696168120859,0.09472656,-0.95806885,-0.02960205,-7.28125,15.578125,-10.9375
224,1696168120901,0.067871094,-0.8936157,-0.08843994,-11.125,14.03125,-11.28125
225,1696168120943,0.11767578,-0.8831177,-0.01739502,-9.484375,14.40625,-10.59375
226,1696168120987,0.08569336,-0.91119385,0.08123779,0.375,12.296875,-8.3125
227,1696168121021,-0.0073242188,-0.8411255,-0.010314941,-6.625,15.640625,-7.390625
228,1696168121061,0.018066406,-0.7571411,-0.031311035,-0.640625,14.53125,-10.5625
229,1696168121101,0.083984375,-0.8196411,0.03289795,6.15625,7.640625,-4.390625
230,1696168121142,0.099853516,-0.8665161,0.015319824,1.375,1.234375,-3.859375
231,1696168121180,0.0390625,-0.9656372,-0.030090332,-2.65625,-3.171875,0.515625
232,1696168121220,0.06225586,-0.9795532,0.07611084,3.921875,-6.71875,3.421875
233,1696168121260,0.026123047,-1.0032349,0.06903076,-3.109375,-9.890625,2.09375
234,1696168121302,0.026611328,-1.0100708,0.02947998,-3.484375,-15.3125,2.890625
235,1696168121342,-0.076416016,-1.0193481,-0.02960205,4.421875,-13.40625,3.109375
236,1696168121382,0.07324219,-1.0886841,0.062438965,6.234375,-1.03125,5.609375
237,1696168121422,0.03955078,-1.1526489,-0.032043457,-1.171875,-1.796875,4.046875
238,1696168121459,0.060302734,-1.0828247,-0.11920166,5.6875,-0.140625,7.4375
239,1696168121501,0.056152344,-1.2293091,-0.03277588,11.8125,1.671875,9.171875
240,1696168121548,0.35375977,-1.2703247,-0.04425049,2.984375,0.703125,8.96875
241,1696168121581,0.41796875,-0.9624634,-0.1482544,-7.546875,-3.0,9.03125
242,1696168121621,0.32470703,-0.8670044,-0.17974854,-1.5,-10.6875,8.6875
243,1696168121661,0.2854004,-0.93096924,-0.144104,6.78125,-15.125,7.890625
244,1696168121701,0.29614258,-0.92755127,-0.0413208,-3.359375,-6.359375,6.03125
245,1696168121739,0.1875,-0.958313,-0.0017700195,-9.046875,2.140625,2.703125
246,1696168121781,0.19750977,-0.86065674,-0.0491333,-8.171875,-5.109375,4.203125
247,1696168121824,0.32983398,-0.9006958,0.029724121,-2.578125,-9.703125,5.984375
248,1696168121843,0.29760742,-0.89190674,0.08880615,-11.828125,-6.359375,0.25
249,1696168121878,0.2241211,-0.84454346,0.07537842,-10.515625,-6.890625,2.96875
250,1696168121918,0.20458984,-0.815979,0.10101318,-5.703125,-8.90625,4.546875
251,1696168121959,0.14868164,-0.817688,0.07098389,-8.140625,-8.078125,1.5625
252,1696168121999,0.17333984,-0.8567505,0.11859131,-0.71875,-5.515625,2.578125
253,1696168122038,0.140625,-0.81427,0.1930542,-4.75,1.65625,-0.953125
254,1696168122078,0.14111328,-0.81988525,0.09832764,-8.40625,-6.109375,-3.90625
255,1696168122119,0.1496582,-0.97003174,0.18597412,2.40625,8.671875,-9.46875
256,1696168122159,0.22094727,-0.9558716,0.21478271,-2.421875,9.25,-7.328125
257,1696168122198,0.23413086,-1.0222778,0.18353271,0.4375,0.21875,-5.3125
258,1696168122240,0.31176758,-1.1079712,0.14300537,6.265625,-7.640625,0.8125
259,1696168122279,0.13916016,-0.95196533,0.08734131,2.265625,2.796875,-0.296875
260,1696168122318,0.104003906,-0.99542236,0.08123779,12.0625,8.53125,-2.484375
261,1696168122358,0.3256836,-1.2888794,0.062194824,21.09375,-1.78125,4.203125
262,1696168122400,0.3425293,-1.2730103,0.02923584,-5.625,4.71875,-1.65625
263,1696168122438,0.27905273,-0.96661377,-0.144104,-2.25,3.390625,1.109375
264,1696168122478,0.1640625,-0.8970337,-0.13189697,10.859375,11.765625,0.53125
265,1696168122518,0.21289062,-0.880188,-0.19464111,1.546875,20.515625,-3.0
266,1696168122559,0.38549805,-1.0127563,-0.16119385,-4.796875,1.21875,-9.71875
267,1696168122620,0.31811523,-1.0730591,-0.051086426,6.609375,9.140625,-7.765625
268,1696168122640,0.07397461,-0.95880127,-0.15167236,-7.828125,13.234375,-4.71875
269,1696168122679,-0.028808594,-0.92755127,-0.10479736,-1.40625,6.875,-5.8125
270,1696168122719,0.123535156,-0.95391846,0.039489746,-3.453125,13.078125,-7.5
271,1696168122760,0.14941406,-0.9356079,0.020202637,-8.109375,9.09375,-2.390625
272,1696168122799,0.13671875,-0.850647,0.0289917,-4.71875,12.953125,-5.0625
273,1696168122839,0.024902344,-0.8591919,-0.04156494,-5.109375,13.0,-7.890625
274,1696168122878,0.051757812,-0.84869385,0.028259277,-6.59375,0.15625,-4.390625
275,1696168122918,0.07470703,-0.8257446,0.0524292,-5.140625,4.609375,-2.171875
276,1696168122958,0.075927734,-0.878479,0.019714355,-3.046875,-0.203125,-1.15625
277,1696168123000,-0.0048828125,-0.94732666,0.023864746,-9.0625,0.609375,-0.375
278,1696168123040,0.044921875,-0.925354,0.010681152,-3.859375,-0.65625,0.34375
279,1696168123059,0.032714844,-1.0193481,0.0602417,0.125,-9.96875,2.65625
280,1696168123100,0.11816406,-1.0994263,0.013122559,6.9375,-10.5,5.046875
281,1696168123142,0.2685547,-1.1748657,0.055114746,2.921875,-0.890625,5.671875
282,1696168123180,0.092041016,-1.1472778,0.022888184,0.609375,0.4375,10.265625
283,1696168123222,0.118896484,-1.0484009,-0.022277832,2.625,-0.359375,9.609375
284,1696168123261,0.20336914,-1.1445923,-0.0010375977,5.1875,-4.96875,6.53125
285,1696168123299,0.34277344,-1.0740356,-0.04058838,2.171875,-4.265625,13.46875
286,1696168123338,0.33764648,-0.8604126,-0.03668213,1.84375,-4.25,12.296875
287,1696168123378,0.24047852,-0.84210205,0.017028809,-3.359375,2.375,5.90625
288,1696168123420,0.44262695,-0.90216064,-0.062561035,-6.671875,-20.46875,5.890625
289,1696168123461,0.42529297,-0.93096924,0.018981934,-3.515625,-21.65625,3.4375
290,1696168123508,0.2565918,-0.9380493,0.082214355,-0.96875,-3.984375,-1.75
291,1696168123542,0.23217773,-0.9273071,0.019714355,-0.796875,-18.296875,2.96875
292,1696168123580,0.28344727,-0.9365845,0.038757324,3.625,-14.953125,5.578125
293,1696168123622,0.35180664,-0.9534302,0.0993042,1.515625,-11.421875,5.046875
294,1696168123662,0.32055664,-0.923645,0.13739014,-3.390625,-16.078125,4.0625
295,1696168123701,0.2163086,-0.8418579,0.16009521,-2.171875,-12.0,0.96875
296,1696168123739,0.10424805,-0.7866821,0.09686279,-4.984375,-8.859375,2.265625
297,1696168123784,0.18701172,-0.65948486,0.15570068,-6.875,-4.234375,-0.875
298,1696168123822,0.1665039,-0.7319946,0.20159912,3.796875,-1.265625,-2.96875
299,1696168123861,0.25927734,-0.9102173,0.21917725,0.0,-5.875,-1.984375
300,1696168123901,0.122558594,-0.92681885,0.20404053,-0.40625,8.234375,-8.90625
301,1696168123942,0.13256836,-1.0003052,0.009216309,5.53125,5.0,-5.84375
302,1696168123980,0.45996094,-1.0664673,0.121032715,4.9375,-4.234375,3.984375
303,1696168124022,0.37329102,-1.2263794,0.2020874,7.546875,9.953125,-0.65625
304,1696168124063,0.26049805,-1.1499634,-0.027648926,-7.6875,3.9375,-10.8125
305,1696168124101,0.19335938,-1.2703247,-0.018859863,13.59375,2.703125,-3.484375
306,1696168124141,0.29541016,-1.2053833,0.018981934,8.96875,15.796875,-4.484375
307,1696168124179,0.33813477,-0.99176025,-0.09185791,-7.3125,18.140625,-7.921875
308,1696168124220,0.22753906,-0.8701782,-0.2312622,-8.015625,18.03125,-4.328125
309,1696168124282,0.24902344,-0.84576416,-0.26324463,-0.265625,14.90625,-8.578125
310,1696168124286,0.21899414,-0.9590454,-0.0015258789,-13.59375,12.75,-16.484375
311,1696168124321,0.18823242,-0.96832275,0.11517334,-11.28125,6.453125,-12.375
312,1696168124359,0.08544922,-0.92633057,-0.0256958,-3.59375,11.828125,-3.296875
313,1696168124401,0.052490234,-0.8567505,-0.047180176,-5.015625,7.75,-8.421875
314,1696168124441,0.028564453,-0.85772705,0.05267334,4.5,11.9375,-7.453125
315,1696168124481,0.06347656,-0.8904419,0.11224365,2.703125,13.796875,-4.03125
316,1696168124527,0.08300781,-0.90460205,0.05291748,-0.921875,14.125,-6.109375
317,1696168124561,0.036865234,-0.89263916,0.04437256,-6.078125,2.9375,-8.296875
318,1696168124601,0.057373047,-0.87042236,0.06390381,-4.109375,0.828125,-6.046875
319,1696168124642,-0.060058594,-0.8850708,0.10101318,-8.0,1.390625,-4.515625
320,1696168124682,0.0390625,-0.89923096,0.11077881,-6.375,-6.109375,0.75
321,1696168124722,0.0871582,-0.92071533,0.10858154,-7.65625,-6.828125,2.921875
322,1696168124760,0.040771484,-0.98150635,0.08929443,-3.328125,-7.625,4.625
323,1696168124804,-0.012451172,-1.1384888,0.051940918,7.375,-5.984375,1.796875
324,1696168124842,0.09277344,-1.15094,0.13275146,7.140625,2.375,11.3125
325,1696168124881,0.20654297,-1.1487427,0.0048217773,-1.09375,-2.09375,11.859375
326,1696168124921,0.08203125,-1.2195435,0.042663574,4.3125,1.4375,8.84375
327,1696168124960,0.16674805,-1.1599731,0.0038452148,9.109375,-2.578125,13.734375
328,1696168125004,0.27490234,-0.991272,-0.007873535,6.734375,2.9375,10.671875
329,1696168125043,0.28198242,-0.866272,-0.03326416,2.640625,7.75,8.125
330,1696168125082,0.28637695,-0.8694458,-0.06768799,-0.5625,2.015625,6.5625
331,1696168125121,0.33740234,-0.8699341,-0.03643799,0.734375,-7.71875,4.015625
332,1696168125161,0.34521484,-0.9314575,-0.031799316,5.390625,-8.6875,3.28125
333,1696168125202,0.32763672,-1.0193481,-0.002746582,3.59375,-5.546875,0.4375
334,1696168125247,0.21728516,-1.0430298,-0.009094238,-6.3125,-11.3125,-0.09375
335,1696168125281,0.20532227,-0.881897,0.039245605,-1.171875,-2.203125,5.859375
336,1696168125320,0.41137695,-0.9314575,0.019470215,3.78125,-17.34375,8.421875
337,1696168125360,0.37451172,-0.95196533,0.1281128,-7.0,-16.453125,3.671875
338,1696168125402,0.16870117,-0.8062134,0.12030029,-9.953125,-7.578125,5.78125
339,1696168125442,0.14624023,-0.7280884,0.08123779,-8.46875,-14.9375,4.78125
340,1696168125482,0.14990234,-0.69610596,0.20184326,0.578125,-8.265625,2.34375
341,1696168125501,0.22436523,-0.8418579,0.19378662,3.421875,-10.015625,4.6875
342,1696168125540,0.19458008,-0.9336548,0.16473389,3.203125,0.109375,1.046875
343,1696168125620,0.076416016,-1.0044556,0.070739746,4.9375,3.671875,-4.0
344,1696168125627,0.16918945,-0.9319458,0.15814209,-3.9375,13.6875,-11.1875
345,1696168125664,0.24194336,-0.9873657,0.07684326,12.90625,12.34375,-3.234375
346,1696168125701,0.45996094,-0.9932251,0.121276855,-5.28125,-3.125,3.6875
347,1696168125740,0.265625,-0.954895,0.07513428,-1.3125,15.09375,-3.953125
348,1696168125782,0.15820312,-1.1465454,0.05633545,-0.796875,4.9375,-8.078125
349,1696168125821,0.36767578,-1.328186,0.042175293,14.046875,-2.25,-1.390625
350,1696168125860,0.39941406,-1.3565063,0.06072998,-4.03125,13.875,-3.765625
351,1696168125901,0.23242188,-0.9624634,-0.081848145,-6.390625,20.796875,-4.484375
352,1696168125941,0.16308594,-0.7984009,-0.19390869,0.40625,18.40625,-0.828125
353,1696168125982,0.31591797,-0.88726807,-0.17340088,-5.375,4.203125,-6.671875
354,1696168126025,0.29858398,-0.9890747,-0.06939697,-3.59375,9.703125,-16.40625
355,1696168126061,0.125,-1.0093384,-0.020812988,-8.359375,9.4375,-15.859375
356,1696168126103,0.03930664,-0.90704346,-0.028869629,-0.9375,6.9375,-9.1875
357,1696168126143,0.11694336,-0.87994385,-0.027160645,-4.8125,5.140625,-6.40625
358,1696168126181,0.08129883,-0.8657837,0.053649902,-2.90625,4.625,-7.375
359,1696168126220,0.029785156,-0.8296509,0.027282715,-3.21875,11.109375,-7.515625
360,1696168126261,0.09814453,-0.83428955,0.027282715,2.671875,8.953125,-6.0625
361,1696168126301,0.06762695,-0.8772583,0.025817871,2.015625,3.828125,-5.9375
362,1696168126342,0.015625,-0.84991455,0.029968262,-2.109375,2.59375,-1.875
363,1696168126381,-0.022705078,-0.9607544,0.040222168,-2.015625,-4.296875,-0.65625
364,1696168126421,-0.021240234,-0.93463135,0.03729248,3.1875,-5.9375,1.84375
365,1696168126462,0.021972656,-0.9104614,0.11810303,0.765625,2.609375,4.140625
366,1696168126502,0.083740234,-0.9927368,0.034851074,-3.9375,-5.546875,1.859375
367,1696168126540,0.10180664,-1.1004028,0.0036010742,1.421875,-14.296875,5.203125
368,1696168126581,0.123535156,-1.163147,0.074645996,8.0,1.25,12.21875
369,1696168126624,0.033203125,-1.1904907,-0.0635376,2.28125,-3.15625,6.375
370,1696168126660,0.16040039,-1.2185669,-0.023010254,11.53125,-2.671875,9.796875
371,1696168126702,0.27734375,-1.1653442,-0.046203613,2.1875,-2.0625,11.0
372,1696168126721,0.3486328,-1.0564575,-0.09088135,-1.328125,-6.3125,12.53125
373,1696168126760,0.3256836,-0.8040161,-0.12823486,-7.734375,-2.546875,10.953125
374,1696168126805,0.3996582,-0.835022,-0.06890869,-0.421875,-13.625,9.90625
375,1696168126842,0.45483398,-0.92974854,-0.04498291,6.140625,-24.390625,9.28125
376,1696168126881,0.3305664,-0.92974854,0.08416748,-4.8125,-10.390625,3.71875
377,1696168126921,0.17993164,-0.93170166,-0.00592041,-5.125,-7.046875,1.09375
378,1696168126961,0.22338867,-0.82159424,-0.03643799,11.578125,-14.328125,10.71875
379,1696168127001,0.359375,-0.9380493,0.0018920898,11.578125,-24.046875,11.859375
380,1696168127045,0.24047852,-0.8052368,0.19525146,-17.765625,-4.828125,-1.046875
381,1696168127084,0.17480469,-0.8340454,0.07342529,4.984375,-9.890625,1.140625
382,1696168127121,0.19848633,-0.76519775,0.08074951,-14.46875,-9.1875,0.109375
383,1696168127161,0.20361328,-0.79278564,0.16156006,3.9375,3.390625,-0.5
384,1696168127202,0.25463867,-0.8057251,0.11785889,-0.375,-7.765625,2.578125
385,1696168127243,0.25683594,-0.8948364,0.17523193,-0.40625,3.046875,-3.125
386,1696168127282,0.16210938,-0.9780884,0.18377686,-8.375,8.359375,-11.625
387,1696168127321,0.15429688,-0.8303833,0.008239746,9.9375,11.734375,-4.15625
388,1696168127361,0.4399414,-1.0652466,-0.0076293945,8.6875,0.171875,7.140625
389,1696168127406,0.43017578,-1.3357544,0.16766357,-12.359375,1.46875,-1.59375
390,1696168127441,0.19946289,-1.166565,-0.04058838,3.8125,9.75,-9.390625
391,1696168127480,0.2614746,-1.0151978,-0.116760254,14.890625,12.328125,1.328125
392,1696168127522,0.43237305,-1.1113892,0.0524292,6.6875,14.65625,-0.890625
393,1696168127560,0.2800293,-0.96539307,-0.10211182,0.109375,18.296875,-2.796875
394,1696168127599,0.20825195,-0.77227783,-0.3184204,0.703125,19.96875,-3.265625
395,1696168127647,0.14038086,-0.87091064,-0.24371338,8.234375,13.96875,-11.140625
396,1696168127681,0.328125,-1.0654907,-0.04156494,-9.859375,8.015625,-11.3125
397,1696168127721,0.30664062,-0.9949341,-0.02130127,-6.0625,7.015625,-11.953125
398,1696168127762,0.15576172,-0.96221924,-0.11505127,-6.453125,3.5,-10.046875
399,1696168127801,0.024902344,-0.8999634,-0.04083252,-2.71875,7.40625,-8.46875
400,1696168127840,0.053466797,-0.9993286,-0.003967285,3.84375,7.984375,-5.234375
401,1696168127881,0.10498047,-0.89678955,0.030456543,-0.734375,8.203125,-11.125
402,1696168127922,0.05908203,-0.850647,-0.012268066,-4.921875,17.53125,-9.828125
403,1696168127940,0.06762695,-0.92633057,-0.003967285,-5.8125,13.984375,-9.140625
404,1696168127979,0.033935547,-0.7918091,0.027770996,-13.84375,1.90625,-4.515625
405,1696168128021,0.011474609,-0.80670166,-0.047912598,-8.71875,1.515625,-1.5
406,1696168128064,0.036132812,-0.96051025,0.023864746,-6.796875,-1.078125,-4.6875
407,1696168128101,0.030761719,-1.0591431,0.04486084,-14.0625,-10.515625,-3.375
408,1696168128141,0.11425781,-1.0110474,0.04144287,-7.734375,-7.71875,1.953125
409,1696168128181,0.036865234,-0.96221924,0.02142334,-0.21875,-6.40625,2.15625
410,1696168128222,0.033691406,-0.9495239,0.08538818,-0.484375,-0.5625,7.15625
411,1696168128261,0.064697266,-1.1187134,-0.07940674,-2.15625,-11.578125,3.890625
412,1696168128304,0.15625,-1.2359009,-0.054260254,4.578125,-3.125,1.84375
413,1696168128341,0.19116211,-1.329895,0.074401855,2.40625,0.984375,6.0625
414,1696168128383,0.23095703,-1.2073364,0.019470215,0.03125,1.15625,9.359375
415,1696168128425,0.25219727,-0.9505005,-0.13970947,6.171875,-4.640625,10.984375
416,1696168128461,0.29296875,-0.8308716,-0.062805176,-1.421875,-6.1875,11.921875
417,1696168128500,0.39282227,-0.8882446,0.04510498,-2.5,-15.8125,6.5
418,1696168128542,0.32055664,-0.960022,0.008728027,1.078125,-18.984375,5.015625
419,1696168128582,0.1538086,-0.9553833,0.05706787,0.296875,-9.75,6.75
420,1696168128621,0.14648438,-0.86724854,0.04534912,-4.296875,-8.71875,2.71875
421,1696168128663,0.29614258,-0.90093994,0.03656006,6.6875,-15.859375,5.109375
422,1696168128701,0.27807617,-0.86016846,0.05316162,3.328125,-9.109375,8.0625
423,1696168128741,0.30371094,-0.9116821,0.004333496,-0.90625,-8.78125,7.03125
424,1696168128781,0.2409668,-0.8533325,0.20648193,-5.921875,-3.9375,0.109375
425,1696168128819,0.13012695,-0.835022,0.09686279,-4.8125,-12.34375,-0.546875
426,1696168128862,0.118896484,-0.75567627,0.06707764,-3.40625,-5.84375,1.109375
427,1696168128900,0.11645508,-0.7715454,0.14251709,2.625,6.109375,-1.171875
428,1696168128941,0.26538086,-0.9505005,0.17718506,0.953125,1.15625,-4.171875
429,1696168128981,0.23071289,-0.97247314,0.24310303,-13.09375,5.390625,-8.8125
430,1696168129021,0.12036133,-1.0090942,0.039245605,2.53125,7.84375,-1.703125
431,1696168129061,0.3605957,-1.0325317,0.054138184,1.65625,-5.0,4.96875
432,1696168129101,0.26342773,-0.864563,0.16571045,-0.40625,16.078125,-3.34375
433,1696168129140,0.19995117,-1.0459595,0.07342529,-2.125,7.21875,0.0625
434,1696168129181,0.33935547,-1.2454224,-0.024719238,9.328125,-1.734375,4.84375
435,1696168129203,0.38061523,-1.3213501,0.020690918,11.390625,9.46875,-3.546875
436,1696168129242,0.34326172,-1.1814575,0.0038452148,-4.171875,15.34375,-1.75
437,1696168129280,0.24829102,-1.0005493,-0.09259033,-5.078125,17.625,-3.484375
438,1696168129322,0.08105469,-0.8286743,-0.21392822,1.5,23.328125,-7.359375
439,1696168129360,0.16625977,-0.8491821,-0.22662354,-1.78125,16.453125,-8.609375
440,1696168129405,0.3125,-0.88653564,-0.024719238,-13.203125,8.78125,-8.265625
441,1696168129439,0.25048828,-0.9475708,0.07489014,-3.0625,7.90625,-10.625
442,1696168129478,0.030029297,-0.83917236,-0.031555176,2.21875,9.546875,-6.984375
443,1696168129518,-0.016601562,-0.89923096,-0.10675049,-1.890625,8.015625,-5.125
444,1696168129561,0.1665039,-0.8562622,0.05340576,3.875,4.703125,-3.703125
445,1696168129597,0.12939453,-0.91900635,0.07537842,5.453125,7.578125,-6.953125
446,1696168129638,-0.008300781,-0.90631104,0.02557373,6.203125,5.609375,-8.5625
447,1696168129678,-0.046142578,-0.88067627,-0.043762207,-0.96875,2.8125,-5.078125
448,1696168129718,0.040527344,-0.88482666,0.030456543,-1.078125,-0.171875,-1.640625
449,1696168129757,0.11254883,-0.89727783,0.058288574,-8.53125,1.265625,-3.328125
450,1696168129796,-0.037353516,-0.9187622,0.018737793,-2.9375,2.953125,-3.234375
451,1696168129837,0.014160156,-1.0122681,-0.011291504,1.9375,-8.015625,-1.03125
452,1696168129882,0.072753906,-1.0698853,0.00970459,-2.453125,-8.390625,-0.234375
453,1696168129917,0.060546875,-1.0344849,0.050476074,0.203125,-1.9375,1.765625
454,1696168129956,0.08129883,-1.0930786,-0.017150879,7.6875,0.453125,3.921875
455,1696168129997,0.13232422,-1.1326294,-0.05328369,-2.21875,-7.890625,6.015625
456,1696168130058,0.20410156,-1.1587524,0.012390137,12.171875,2.140625,12.703125
457,1696168130082,0.23022461,-1.312561,-0.08062744,9.84375,-2.6875,9.625
458,1696168130119,0.2890625,-1.123352,-0.13189697,-4.65625,-14.109375,11.765625
459,1696168130160,0.33911133,-0.8411255,-0.09869385,-4.953125,-2.375,9.609375
460,1696168130201,0.27294922,-0.8740845,-0.07110596,-6.921875,-6.265625,6.953125
461,1696168130239,0.27514648,-0.8855591,-0.0791626,-6.203125,-26.03125,7.453125
462,1696168130279,0.26245117,-0.91656494,0.090270996,-0.71875,-17.828125,4.75
463,1696168130318,0.2512207,-0.9734497,0.036071777,-6.34375,-5.796875,1.28125
464,1696168130359,0.28686523,-0.87628174,0.022888184,-0.953125,-12.375,2.984375
465,1696168130403,0.22607422,-0.84625244,0.036315918,5.34375,-12.171875,5.078125
466,1696168130420,0.25024414,-0.83795166,0.090026855,3.0625,-10.34375,6.5
467,1696168130460,0.33862305,-0.88165283,0.101501465,-1.328125,-11.90625,4.640625
468,1696168130503,0.23291016,-0.82281494,0.15252686,0.15625,-2.859375,-3.21875
469,1696168130541,0.09790039,-0.8257446,0.093444824,-3.09375,0.296875,-2.140625
470,1696168130581,0.1171875,-0.83966064,0.050964355,-7.109375,-4.28125,-1.71875
471,1696168130622,0.14111328,-0.8530884,0.13519287,-4.734375,5.28125,-5.375
472,1696168130660,0.22827148,-0.93463135,0.17572021,-2.40625,6.0,-7.0
473,1696168130700,0.2290039,-0.9614868,0.17840576,-1.171875,7.109375,-6.34375
474,1696168130740,0.2290039,-0.9192505,0.07513428,-5.484375,2.0,-3.90625
475,1696168130780,0.23583984,-1.0449829,0.03753662,5.0,3.265625,-1.15625
476,1696168130823,0.24511719,-1.05719,0.09515381,8.515625,1.109375,1.0
477,1696168130860,0.2709961,-1.0610962,0.14642334,1.890625,4.625,-1.015625
478,1696168130901,0.31030273,-1.2402954,0.06390381,6.828125,-0.796875,-3.5625
479,1696168130942,0.3720703,-1.2879028,-0.06109619,7.53125,-7.46875,0.703125
480,1696168130982,0.21899414,-1.2354126,-0.10748291,4.0,17.859375,-1.21875
481,1696168131020,0.17260742,-0.8357544,-0.012512207,-1.578125,25.984375,-6.34375
482,1696168131061,0.1394043,-0.7749634,-0.25299072,-0.765625,9.515625,-5.546875
483,1696168131101,0.30493164,-0.88409424,-0.23736572,-6.3125,6.9375,-6.578125
484,1696168131140,0.23071289,-1.0425415,0.03704834,1.46875,9.734375,-4.5625
485,1696168131178,0.1003418,-1.045227,0.061706543,-1.46875,8.953125,-10.390625
486,1696168131221,0.038085938,-0.9151001,-0.11187744,-9.359375,8.09375,-7.1875
487,1696168131260,0.075683594,-0.8389282,-0.024963379,-3.578125,9.375,-4.203125
488,1696168131300,0.1459961,-0.8513794,0.034606934,7.890625,10.15625,-5.4375
489,1696168131340,0.05419922,-0.913147,0.010437012,3.265625,8.90625,-7.5625
490,1696168131381,0.036621094,-0.878479,0.008483887,0.90625,7.75,-5.03125
491,1696168131421,0.00390625,-0.8296509,0.011413574,-4.125,5.296875,-3.796875
492,1696168131461,0.008300781,-0.8467407,0.043640137,0.828125,6.28125,-2.6875
493,1696168131504,0.012451172,-0.8977661,-0.02178955,-3.078125,0.5,1.296875
494,1696168131542,0.0949707,-0.8960571,0.028015137,-7.328125,-3.78125,0.703125
495,1696168131581,0.0859375,-1.0278931,0.030700684,1.640625,-8.765625,-2.671875
496,1696168131643,0.037109375,-1.1155396,-0.035949707,0.28125,-11.96875,7.046875
497,1696168131648,0.16259766,-1.0274048,0.024597168,-2.671875,-1.875,5.796875
498,1696168131682,0.16552734,-1.1946411,-0.03375244,-3.15625,-1.953125,1.609375
499,1696168131722,0.05810547,-1.1619263,-0.0647583,3.125,-0.921875,6.125
500,1696168131762,0.1850586,-1.218811,-0.023498535,6.34375,1.515625,8.5625
501,1696168131801,0.29614258,-1.0591431,-0.07501221,-5.3125,-5.5625,9.8125
502,1696168131841,0.2685547,-0.8518677,-0.059143066,-0.140625,2.515625,10.6875
503,1696168131881,0.34716797,-0.87945557,-0.10772705,-3.15625,5.0,8.8125
504,1696168131923,0.42138672,-1.0046997,-0.04498291,-15.546875,-29.46875,8.0
505,1696168131962,0.35302734,-0.91973877,0.12200928,-8.796875,-13.21875,4.828125
506,1696168132001,0.11669922,-0.9067993,0.04949951,-7.4375,-6.703125,-0.828125
507,1696168132042,0.18359375,-0.93096924,-0.020080566,-4.90625,-16.625,4.015625
508,1696168132083,0.26367188,-0.8230591,0.13861084,-3.46875,-4.09375,8.59375
509,1696168132119,0.3630371,-0.90338135,0.10321045,-0.359375,-12.125,9.359375
510,1696168132163,0.36743164,-0.7805786,0.14520264,-3.296875,-15.109375,7.4375
511,1696168132201,0.19482422,-0.815979,0.11566162,4.625,-14.890625,10.640625
512,1696168132239,0.1274414,-0.84503174,0.14349365,1.875,-10.46875,5.25
513,1696168132279,0.08886719,-0.8389282,0.1305542,-1.90625,-4.09375,-0.8125
514,1696168132318,0.1850586,-0.8274536,0.25360107,-2.4375,-0.34375,-1.46875
515,1696168132357,0.19116211,-0.82037354,0.20111084,-1.328125,7.859375,-1.609375
516,1696168132398,0.27075195,-0.82525635,0.16766357,1.796875,4.296875,-2.78125
517,1696168132438,0.26123047,-1.0144653,0.18157959,8.890625,1.796875,-6.5
518,1696168132479,0.3684082,-1.2129517,0.077819824,7.640625,-4.609375,6.0625
519,1696168132519,0.38452148,-1.0823364,0.07489014,5.984375,7.359375,0.828125
520,1696168132561,0.28125,-1.0586548,0.010192871,-2.8125,8.265625,-9.578125
521,1696168132597,0.2915039,-1.2356567,0.113708496,12.171875,4.171875,-3.625
522,1696168132637,0.38305664,-1.3394165,-0.05255127,15.640625,8.625,-2.5625
523,1696168132677,0.36499023,-1.0725708,-0.17486572,-13.703125,11.234375,-3.96875
524,1696168132717,0.19580078,-0.8230591,-0.27349854,1.6875,13.515625,-1.390625
525,1696168132767,0.27612305,-0.81256104,-0.2234497,15.640625,10.25,-4.96875
526,1696168132797,0.3088379,-0.8753052,0.03704834,-8.328125,11.03125,-12.5
527,1696168132838,0.22875977,-0.9517212,0.066345215,-9.109375,-0.453125,-9.78125
528,1696168132858,0.076416016,-0.8701782,-0.08062744,2.640625,4.1875,-6.5625
529,1696168132897,0.02368164,-0.9146118,-0.11016846,3.984375,4.625,-7.671875
530,1696168132937,0.064697266,-0.8550415,-0.03692627,0.921875,4.765625,-7.515625
531,1696168132978,0.09814453,-0.91241455,0.028259277,-0.75,13.5625,-5.390625
532,1696168133020,0.12207031,-0.83966064,0.027038574,-9.015625,15.71875,-4.515625
533,1696168133058,0.12768555,-0.85723877,-0.07183838,-4.875,10.765625,-4.15625
534,1696168133100,0.115234375,-0.9133911,-0.0115356445,-6.25,-2.859375,-6.15625
535,1696168133139,0.0068359375,-0.93218994,0.05633545,0.421875,4.9375,-4.171875
536,1696168133179,-0.030517578,-0.94854736,0.0036010742,1.046875,-0.828125,1.109375
537,1696168133221,0.14135742,-0.9871216,0.038513184,-3.265625,-0.890625,-1.734375
538,1696168133261,0.12548828,-1.0037231,0.0099487305,-9.0625,-4.890625,-1.484375
539,1696168133302,0.017089844,-0.9885864,-0.021057129,-0.21875,-10.375,2.421875
540,1696168133339,0.171875,-1.00177,-0.024475098,12.78125,3.578125,5.96875
541,1696168133381,0.32006836,-1.3633423,-0.08477783,2.28125,-8.65625,1.0625
542,1696168133420,0.1887207,-1.1919556,0.008239746,4.203125,5.765625,9.15625
543,1696168133461,0.15161133,-1.1431274,-0.09991455,-0.21875,5.765625,8.375
544,1696168133501,0.24902344,-1.0020142,-0.03253174,0.734375,-2.203125,9.046875
545,1696168133541,0.32250977,-0.8814087,-0.08428955,-0.34375,7.453125,8.1875
546,1696168133581,0.32128906,-0.90948486,-0.06939697,-12.78125,-4.984375,5.84375
547,1696168133620,0.36938477,-0.9302368,-0.06768799,-5.546875,-13.28125,7.796875
548,1696168133660,0.30126953,-0.8706665,-0.013000488,-6.984375,-6.859375,1.84375
549,1696168133700,0.24072266,-0.99224854,0.00970459,-8.046875,-6.3125,-2.90625
550,1696168133741,0.18945312,-0.87164307,0.093444824,-8.765625,-2.921875,3.6875
551,1696168133780,0.33007812,-0.87579346,0.045837402,1.765625,-6.125,7.515625
552,1696168133820,0.3635254,-0.862854,0.028503418,-7.125,-8.109375,10.796875
553,1696168133860,0.3371582,-0.8609009,0.10296631,-1.078125,-10.703125,2.5625
554,1696168133901,0.17749023,-0.79937744,0.11639404,-16.71875,-8.25,-1.515625
555,1696168133939,0.17749023,-0.7654419,0.15374756,-1.09375,-6.9375,4.90625
556,1696168133981,0.18066406,-0.87213135,0.14251709,-2.078125,-4.6875,1.96875
557,1696168134019,0.22851562,-0.82818604,0.20672607,-1.359375,-1.828125,1.25
558,1696168134061,0.21606445,-0.91192627,0.16766357,4.71875,5.109375,-4.5
559,1696168134081,0.14794922,-0.9229126,0.17474365,-0.703125,6.484375,-6.296875
560,1696168134121,0.23388672,-0.9338989,0.15570068,0.453125,3.734375,-8.015625
561,1696168134161,0.27075195,-1.0796509,0.06097412,14.515625,6.34375,0.1875
562,1696168134201,0.37670898,-1.1104126,0.09222412,-5.234375,2.078125,6.0625
563,1696168134245,0.34350586,-1.1863403,0.10394287,4.671875,11.921875,-8.8125
564,1696168134280,0.27124023,-1.2168579,0.051208496,3.765625,-0.1875,-5.796875
565,1696168134320,0.28173828,-1.1121216,-0.018127441,0.484375,15.0625,3.53125
566,1696168134369,0.31347656,-0.93414307,-0.101135254,0.546875,23.5,-5.234375
567,1696168134400,0.1394043,-0.9553833,-0.3098755,-14.0,21.359375,-4.09375
568,1696168134442,0.2944336,-0.7827759,-0.15338135,-8.03125,11.1875,-1.5625
569,1696168134481,0.35083008,-0.94781494,-0.0005493164,2.828125,-0.109375,-9.328125
570,1696168134520,0.1928711,-0.99468994,0.051452637,0.328125,3.078125,-5.28125
571,1696168134565,0.17602539,-0.93951416,-0.0010375977,-4.5,-1.546875,-4.296875
572,1696168134602,0.1303711,-0.96832275,-0.015930176,9.625,-3.046875,-5.234375
573,1696168134640,0.09350586,-0.9458618,0.06878662,0.65625,1.609375,-7.015625
574,1696168134680,0.061767578,-0.8875122,-0.0068969727,-0.609375,7.203125,-8.59375
575,1696168134723,0.025634766,-0.8128052,-0.051818848,-6.3125,3.84375,-8.34375
576,1696168134761,0.06713867,-0.7871704,0.046813965,-1.28125,7.84375,-6.390625
577,1696168134801,0.14282227,-0.90997314,0.070007324,5.515625,1.234375,-4.71875
578,1696168134842,0.08618164,-0.86798096,0.05267334,-5.796875,-7.6875,-1.0
579,1696168134881,0.080566406,-0.84576416,0.066833496,-2.25,-9.65625,-1.265625
580,1696168134922,0.026611328,-1.0044556,0.090270996,5.890625,-4.078125,-0.78125
581,1696168134965,0.04321289,-1.1033325,0.002380371,-13.078125,-20.953125,1.296875
582,1696168135001,0.11425781,-1.0706177,0.028747559,4.5625,-5.359375,4.046875
583,1696168135040,0.17797852,-1.1670532,0.13665771,6.8125,2.84375,10.0625
584,1696168135083,0.22558594,-1.3140259,-0.007385254,2.265625,-5.375,4.515625
585,1696168135122,0.26757812,-1.1206665,-0.10748291,1.53125,6.1875,9.078125
586,1696168135160,0.33374023,-1.0742798,-0.074035645,1.6875,-10.484375,11.5625
587,1696168135202,0.34326172,-0.97125244,-0.032287598,3.109375,-9.109375,7.484375
588,1696168135238,0.23925781,-0.82525635,-0.03741455,-1.0,-1.671875,5.21875
589,1696168135280,0.3005371,-0.8765259,-0.11602783,0.203125,-9.578125,5.90625
590,1696168135299,0.32470703,-0.95880127,-0.066711426,-3.9375,-11.453125,3.5625
591,1696168135339,0.3330078,-0.8989868,0.14764404,-15.890625,-4.96875,-3.375
592,1696168135379,0.17871094,-0.85943604,0.07879639,-6.046875,-1.859375,-0.59375
593,1696168135419,0.2290039,-0.8833618,0.010437012,6.609375,-15.09375,8.484375
594,1696168135459,0.33374023,-0.92315674,0.049987793,-1.84375,-6.984375,8.0
595,1696168135498,0.28125,-0.8731079,0.17376709,-7.515625,-4.3125,4.046875
596,1696168135538,0.24633789,-0.8928833,0.11517334,-8.0625,-13.453125,4.03125
597,1696168135579,0.19921875,-0.8389282,0.12689209,-9.984375,-7.4375,3.328125
598,1696168135618,0.22827148,-0.82281494,0.16815186,-4.828125,-6.328125,1.828125
599,1696168135659,0.23901367,-0.7871704,0.23626709,0.3125,-2.078125,-2.109375
600,1696168135703,0.25,-0.8897095,0.16448975,2.046875,-6.421875,-1.09375
601,1696168135740,0.1772461,-0.9299927,0.20892334,-4.96875,-0.53125,-5.90625
602,1696168135779,0.12109375,-0.8074341,0.1864624,-0.09375,6.0625,-8.09375
603,1696168135819,0.09423828,-0.8726196,0.031188965,13.421875,3.78125,0.046875
604,1696168135859,0.30566406,-1.0476685,0.07879639,2.375,7.6875,5.15625
605,1696168135899,0.35473633,-1.1416626,0.1564331,9.921875,17.109375,-2.296875
606,1696168135938,0.26489258,-1.116272,0.059020996,5.484375,7.1875,-5.078125
607,1696168135978,0.34838867,-1.2949829,0.012145996,12.75,8.265625,4.015625
608,1696168136019,0.47338867,-1.2815552,0.02947998,5.515625,9.421875,0.34375
609,1696168136058,0.4020996,-1.1101685,-0.036193848,-7.859375,14.3125,-1.90625
610,1696168136100,0.31054688,-0.9302368,-0.14923096,-6.21875,12.46875,3.1875
611,1696168136142,0.109375,-0.78302,-0.18145752,-9.328125,11.421875,-4.0625
612,1696168136181,0.2902832,-0.91363525,-0.040100098,1.0625,10.140625,-11.234375
613,1696168136221,0.16967773,-0.9920044,-0.012512207,4.984375,16.921875,-7.734375
614,1696168136260,0.16357422,-0.97662354,-0.031311035,-2.53125,11.8125,-6.90625
615,1696168136301,0.16113281,-0.80255127,-0.04547119,-12.734375,6.515625,-6.046875
616,1696168136341,0.1105957,-0.83795166,0.070251465,3.1875,10.984375,-7.5625
617,1696168136378,0.052490234,-0.88360596,0.04534912,7.046875,17.578125,-8.6875
618,1696168136418,-0.009765625,-0.93048096,-0.00982666,2.90625,15.515625,-6.375
619,1696168136457,0.13061523,-0.8530884,0.023864746,0.125,7.25,-5.234375
620,1696168136499,0.1459961,-0.7971802,0.046569824,-6.203125,5.375,-4.28125
621,1696168136540,0.0009765625,-0.84381104,0.018981934,-7.890625,1.28125,-5.296875
622,1696168136560,-0.057373047,-0.9092407,-0.023742676,-1.890625,3.5,-3.8125
623,1696168136601,0.07885742,-0.93927,0.055603027,-4.765625,-5.21875,1.890625
624,1696168136645,0.25683594,-1.0335083,0.07757568,0.15625,-7.859375,2.453125
625,1696168136681,0.17675781,-1.131897,0.0067749023,-3.0,-4.734375,-0.75
626,1696168136721,0.017822266,-1.1560669,-0.058654785,-1.171875,-0.75,4.53125
627,1696168136760,0.16772461,-1.3062134,0.030700684,9.21875,-0.625,10.046875
628,1696168136805,0.39819336,-1.27594,0.01776123,-3.53125,-1.9375,11.390625
629,1696168136841,0.3388672,-0.97540283,-0.13165283,6.90625,3.640625,16.578125
630,1696168136883,0.32226562,-0.8411255,-0.06842041,-4.453125,-14.296875,13.765625
631,1696168136920,0.37817383,-0.86016846,-0.030334473,-4.234375,-14.15625,7.015625
632,1696168136961,0.47387695,-0.91412354,-0.09698486,6.328125,-14.53125,10.21875
633,1696168137002,0.40161133,-0.93634033,-0.070129395,-5.25,-20.375,4.546875
634,1696168137042,0.15917969,-0.8843384,0.0016479492,-0.515625,-13.125,-1.1875
635,1696168137083,0.2548828,-0.95513916,0.061950684,1.8125,-18.28125,3.515625
636,1696168137118,0.34472656,-0.90875244,0.06878662,2.734375,-17.65625,6.015625
637,1696168137160,0.42700195,-0.9002075,0.042175293,-2.109375,-15.421875,4.296875
638,1696168137200,0.30639648,-0.92266846,0.10296631,0.140625,-16.109375,0.28125
639,1696168137244,0.18334961,-0.83966064,0.12322998,-6.671875,-16.40625,-0.71875
640,1696168137281,0.11401367,-0.7149048,0.13421631,-4.875,-6.5,-1.421875
641,1696168137322,0.19995117,-0.76568604,0.121032715,-3.359375,-15.3125,-0.453125
642,1696168137366,0.20629883,-0.7632446,0.21600342,-4.640625,-1.734375,-4.34375
643,1696168137400,0.18701172,-0.77545166,0.19134521,10.515625,1.1875,-3.46875
644,1696168137441,0.19897461,-0.9727173,0.14984131,0.375,1.34375,-9.296875
645,1696168137480,0.20703125,-1.0293579,0.2802124,-2.796875,7.359375,-14.4375
646,1696168137521,0.11279297,-0.96954346,0.13446045,6.3125,14.609375,-9.125
647,1696168137561,0.3256836,-0.85284424,0.019226074,-3.03125,5.484375,-2.609375
648,1696168137603,0.27734375,-1.1223755,0.14324951,-2.4375,-0.71875,-6.0
649,1696168137639,0.19848633,-1.0825806,0.09906006,6.75,5.890625,-3.875
650,1696168137680,0.17773438,-0.91119385,0.039978027,-2.40625,12.4375,-2.15625
651,1696168137723,0.35888672,-1.0386353,0.121520996,0.53125,6.046875,-0.9375
652,1696168137760,0.35986328,-1.4397583,0.047546387,20.875,3.125,-6.46875
653,1696168137780,0.2536621,-1.4761353,-0.11187744,0.59375,5.53125,3.09375
654,1696168137820,0.25097656,-1.0383911,-0.25689697,-7.40625,25.921875,3.765625
655,1696168137859,0.25073242,-0.800354,-0.25982666,3.265625,18.890625,-3.90625
656,1696168137905,0.38012695,-0.9854126,-0.1795044,2.484375,3.796875,-8.046875
657,1696168137941,0.33398438,-1.019104,-0.04888916,-4.9375,-3.28125,-7.859375
658,1696168137981,0.16333008,-0.94244385,-0.010070801,-15.6875,9.125,-9.65625
659,1696168138020,0.007080078,-0.7485962,-0.0635376,-7.703125,3.875,-11.0625
660,1696168138060,0.010009766,-0.8501587,-0.097229004,-2.71875,4.25,-8.921875
661,1696168138101,0.1352539,-0.83599854,0.046325684,-7.703125,10.109375,-7.578125
662,1696168138141,0.12158203,-0.84698486,-0.0134887695,-9.21875,8.828125,-9.546875
663,1696168138181,0.08911133,-0.72491455,-0.04107666,-7.4375,11.921875,-8.46875
664,1696168138220,0.12207031,-0.7918091,-0.02178955,6.03125,10.609375,-5.3125
665,1696168138262,0.10888672,-0.99224854,0.007507324,-5.453125,-2.640625,-5.875
666,1696168138303,0.09082031,-1.0588989,0.031433105,-4.375,-6.53125,-4.6875
667,1696168138340,0.07470703,-0.98150635,0.01361084,-14.65625,-8.40625,-2.828125
668,1696168138380,0.020507812,-0.9248657,-0.00982666,-14.515625,-11.5625,-2.234375
669,1696168138420,0.036376953,-1.0071411,0.039001465,-7.5625,-13.859375,-4.59375
670,1696168138462,0.17138672,-1.1016235,0.18914795,-4.09375,-5.3125,-1.625
671,1696168138501,0.110839844,-0.97125244,0.17816162,-18.859375,-1.21875,0.578125
672,1696168138543,0.056884766,-0.8225708,0.07489014,-10.46875,0.8125,-4.3125
673,1696168138581,-0.0021972656,-0.89434814,0.089538574,4.796875,-3.875,-2.6875
674,1696168138622,0.11254883,-1.1165161,0.18939209,5.171875,-10.609375,1.921875
675,1696168138664,0.13232422,-1.017395,0.19915771,-10.796875,-1.625,-1.34375
676,1696168138701,0.036376953,-0.92926025,0.12249756,-1.765625,1.46875,-1.0625
677,1696168138737,0.08178711,-0.9710083,0.1486206,-0.34375,-4.546875,0.5
678,1696168138778,0.111328125,-0.9651489,0.17596436,-0.796875,-4.40625,0.4375
679,1696168138818,0.0859375,-0.9898071,0.17254639,-1.96875,-3.34375,-0.875
680,1696168138858,0.09375,-0.97662354,0.14788818,-0.953125,-4.1875,-0.03125
681,1696168138898,0.075927734,-0.9846802,0.17401123,-0.40625,-1.109375,-0.296875
682,1696168138938,0.07055664,-0.98638916,0.19329834,-1.046875,0.859375,-0.546875
683,1696168138977,0.079833984,-0.9685669,0.16204834,-2.578125,0.0,-0.671875
684,1696168138997,0.075927734,-1.0020142,0.1671753,-0.484375,-2.75,-0.34375
685,1696168139037,0.07421875,-1.0005493,0.1798706,-0.96875,-1.5625,-0.21875
686,1696168139077,0.09448242,-0.96173096,0.15765381,-0.203125,0.609375,1.0625
687,1696168139117,0.072265625,-0.9702759,0.16473389,-0.46875,-0.953125,0.53125
688,1696168139158,0.047607422,-0.9890747,0.17694092,-0.203125,-0.265625,-0.046875
689,1696168139198,0.0715332,-0.99346924,0.19158936,1.171875,0.828125,1.09375
690,1696168139239,0.08325195,-0.9829712,0.15985107,-0.046875,-0.9375,0.15625
691,1696168139277,0.06225586,-0.9768677,0.17401123,-0.546875,0.5,-0.078125
692,1696168139318,0.037841797,-0.9776001,0.18670654,1.296875,1.328125,0.46875
693,1696168139358,0.07543945,-0.9817505,0.184021,-0.046875,1.890625,0.40625
694,1696168139398,0.059814453,-0.99298096,0.16497803,-0.65625,0.234375,0.078125
695,1696168139438,0.052978516,-0.99176025,0.1671753,1.1875,-1.46875,1.4375
696,1696168139480,0.078125,-0.97979736,0.16815186,-0.078125,-0.546875,1.40625
697,1696168139517,0.04248047,-0.99102783,0.15765381,-1.40625,-0.109375,1.421875
698,1696168139558,0.063964844,-0.9795532,0.14666748,1.0,-1.859375,3.1875
699,1696168139599,0.083740234,-0.96539307,0.15789795,0.5,-1.453125,1.59375
700,1696168139638,0.061279297,-0.9976196,0.16082764,0.421875,-4.90625,1.546875
701,1696168139678,0.08959961,-0.9717407,0.17181396,1.078125,-5.140625,1.90625
702,1696168139720,0.10083008,-0.94195557,0.152771,-2.921875,-0.375,1.625
703,1696168139762,0.06225586,-1.0286255,0.16766357,-1.46875,-3.96875,1.75
704,1696168139800,0.07324219,-0.99591064,0.1305542,1.09375,-3.53125,4.484375
705,1696168139842,0.099365234,-0.97052,0.11932373,0.75,-3.984375,4.09375
706,1696168139887,0.08911133,-1.0227661,0.16644287,-1.078125,-3.53125,2.609375
707,1696168139919,0.107910156,-0.99298096,0.15203857,-4.0625,-4.140625,3.40625
708,1696168139964,0.09448242,-0.94610596,0.1630249,-2.96875,-0.609375,3.09375
709,1696168140001,0.09863281,-0.9248657,0.11468506,-3.390625,0.59375,3.25
710,1696168140039,0.17993164,-0.9378052,0.14764404,-2.953125,-2.796875,4.96875
711,1696168140081,0.18847656,-0.92437744,0.21038818,-3.203125,0.46875,7.625
712,1696168140118,0.111816406,-1.0203247,0.23626709,-2.546875,-2.09375,4.375
713,1696168140160,0.2319336,-1.0422974,0.27630615,-0.125,-8.796875,7.625
714,1696168140200,0.10620117,-1.0584106,0.34295654,-4.796875,-7.15625,5.1875
715,1696168140219,0.03930664,-0.9746704,0.3270874,0.4375,5.203125,3.296875
716,1696168140261,0.048583984,-0.96343994,0.22601318,-1.328125,-1.6875,8.34375
717,1696168140301,0.15454102,-0.84942627,0.25213623,-5.65625,2.0,6.59375
718,1696168140340,0.18481445,-0.7998657,0.3427124,2.375,5.328125,1.90625
719,1696168140382,0.1640625,-0.95513916,0.37225342,2.96875,1.625,-0.953125
720,1696168140421,0.12475586,-0.9602661,0.31463623,-1.96875,3.203125,-4.8125
721,1696168140460,0.107910156,-0.9380493,0.30218506,-1.40625,8.328125,-4.921875
722,1696168140501,0.10498047,-0.9417114,0.29901123,4.078125,6.640625,-3.65625
723,1696168140539,0.11669922,-0.9404907,0.26141357,6.78125,8.34375,-1.8125
724,1696168140583,0.24438477,-0.9517212,0.30633545,-2.453125,14.203125,-4.609375
725,1696168140620,0.1772461,-1.0183716,0.40838623,-1.625,8.25,-5.296875
726,1696168140661,0.09692383,-1.085022,0.23358154,5.6875,-0.421875,0.015625
727,1696168140703,0.203125,-1.085022,0.1762085,7.703125,-3.9375,7.078125
728,1696168140741,0.2939453,-1.0457153,0.23114014,-1.4375,4.796875,5.15625
729,1696168140782,0.17797852,-0.9651489,0.29144287,-5.140625,8.65625,-5.59375
730,1696168140821,0.08105469,-0.972229,0.14886475,-2.4375,10.40625,-9.0625
731,1696168140861,0.22583008,-0.9824829,-0.05230713,-4.703125,0.484375,-8.109375
732,1696168140902,0.32055664,-0.9104614,-0.023498535,-0.09375,3.453125,-2.515625
733,1696168140941,0.20361328,-0.9378052,0.02947998,0.203125,7.796875,-5.703125
734,1696168140979,0.11303711,-1.0405884,0.0524292,2.125,6.8125,-10.328125
735,1696168141023,0.07080078,-1.0640259,0.050720215,-3.171875,-2.78125,-7.671875
736,1696168141061,0.12451172,-0.97613525,0.08709717,1.546875,-0.359375,-5.0625
737,1696168141103,0.107421875,-0.88165283,0.11566162,-2.265625,7.328125,-6.265625
738,1696168141141,0.07446289,-0.88726807,0.117614746,0.359375,-2.609375,-4.71875
739,1696168141180,0.051513672,-0.9429321,0.06585693,5.859375,-6.375,-3.59375
740,1696168141221,-0.005859375,-0.97369385,0.089538574,-0.65625,-2.09375,-1.421875
741,1696168141263,0.0390625,-0.97784424,0.17425537,-0.625,-10.3125,1.3125
742,1696168141303,0.07373047,-0.9651489,0.1774292,-4.15625,-11.125,2.140625
743,1696168141341,0.118896484,-1.0305786,0.19476318,-6.171875,-17.125,0.203125
744,1696168141381,0.033447266,-0.9898071,0.1930542,-6.5625,-14.03125,0.578125
745,1696168141419,-0.041748047,-0.93878174,0.12542725,-7.09375,-12.9375,2.390625
746,1696168141439,0.001953125,-1.045227,0.14569092,-1.625,-21.28125,1.1875
747,1696168141478,0.015625,-1.1677856,0.23944092,-1.328125,-20.53125,1.546875
748,1696168141518,0.01171875,-1.0786743,0.22821045,-1.4375,-8.921875,0.875
749,1696168141557,-0.0041503906,-1.0100708,0.11639404,3.203125,3.8125,-0.8125
750,1696168141597,0.10571289,-1.0078735,0.073913574,5.09375,-1.96875,0.46875
751,1696168141639,0.24633789,-0.90338135,0.0680542,3.921875,-7.328125,5.0
752,1696168141681,0.3334961,-0.8591919,0.097351074,-1.859375,-13.3125,5.0625
753,1696168141720,0.24145508,-0.93634033,0.16351318,-1.359375,-10.0,1.4375
754,1696168141762,0.18261719,-1.0379028,0.1630249,5.953125,-3.75,2.5
755,1696168141801,0.203125,-1.0305786,0.13275146,-3.15625,0.859375,3.703125
756,1696168141841,0.28393555,-0.93170166,0.16546631,-8.0,-1.59375,0.5
757,1696168141881,0.17919922,-0.9204712,0.16497803,-0.375,-3.3125,4.546875
758,1696168141920,0.20019531,-0.8701782,0.1539917,-0.984375,-5.390625,5.125
759,1696168141958,0.17236328,-0.91363525,0.2008667,-1.890625,-1.125,0.484375
760,1696168142001,0.17944336,-0.96466064,0.22039795,0.0625,-2.5,1.453125
761,1696168142042,0.18798828,-1.0029907,0.18011475,0.921875,-5.59375,2.09375
762,1696168142079,0.14550781,-0.99176025,0.19378662,-1.875,4.0625,-2.953125
763,1696168142120,0.09887695,-0.9500122,0.19525146,-3.21875,11.125,-4.375
764,1696168142162,0.13793945,-0.92559814,0.23162842,-3.75,10.890625,-3.96875
765,1696168142201,0.15942383,-0.89727783,0.24285889,-4.546875,10.578125,-6.296875
766,1696168142241,0.17773438,-1.0357056,0.199646,-0.140625,9.28125,-8.71875
767,1696168142283,0.18041992,-1.1201782,0.13934326,-3.46875,3.53125,-6.015625
768,1696168142322,0.13012695,-0.9685669,0.12957764,-7.140625,7.828125,-2.296875
769,1696168142362,0.050048828,-0.88409424,0.13250732,-2.046875,8.515625,-4.734375
770,1696168142402,0.07128906,-0.93951416,0.16595459,2.90625,3.6875,-2.015625
771,1696168142439,0.17797852,-0.97906494,0.15545654,0.828125,3.125,-0.859375
772,1696168142482,0.16748047,-1.0071411,0.14764404,-0.546875,4.203125,-3.859375
773,1696168142522,0.1027832,-0.9829712,0.16815186,-1.296875,5.53125,-1.953125
774,1696168142561,0.06640625,-0.91851807,0.17352295,-0.15625,6.25,-1.765625
775,1696168142601,0.09887695,-0.99664307,0.16473389,2.609375,1.984375,-1.515625
776,1696168142660,0.14233398,-0.9763794,0.20281982,-0.8125,3.640625,-1.203125
777,1696168142679,0.12695312,-0.98394775,0.1461792,-2.3125,1.828125,-1.015625
778,1696168142700,0.07543945,-0.9768677,0.16571045,-0.75,1.765625,-1.59375
779,1696168142742,0.08203125,-0.9639282,0.19598389,2.109375,0.671875,0.515625
780,1696168142780,0.107177734,-0.9866333,0.16033936,-1.09375,-1.328125,-0.828125
781,1696168142821,0.107666016,-0.975647,0.16912842,0.625,-0.359375,0.28125
782,1696168142862,0.083984375,-0.98638916,0.18621826,-1.078125,-0.546875,-0.421875
783,1696168142900,0.07104492,-0.98638916,0.15716553,-2.359375,-2.546875,-0.078125
784,1696168142940,0.09448242,-0.98443604,0.15570068,-1.796875,-1.796875,0.21875
785,1696168142980,0.08300781,-0.98394775,0.1774292,-0.609375,-0.4375,0.921875
786,1696168143021,0.084472656,-0.9644165,0.19281006,-3.609375,-0.0625,1.109375
787,1696168143061,0.08251953,-0.9885864,0.1762085,-2.5625,-0.34375,0.46875
788,1696168143102,0.091796875,-0.9961548,0.16790771,-2.046875,-2.203125,1.1875
789,1696168143144,0.078125,-0.9763794,0.1930542,-1.328125,1.109375,0.515625
790,1696168143179,0.09350586,-0.99298096,0.21331787,-2.328125,-0.0625,0.375
791,1696168143220,0.079833984,-0.9751587,0.17840576,-3.25,-2.125,0.8125
792,1696168143261,0.07348633,-0.97784424,0.19598389,-0.28125,-3.46875,2.203125
793,1696168143301,0.07910156,-0.98931885,0.20697021,-1.0,0.296875,0.328125
794,1696168143341,0.072753906,-0.97735596,0.19378662,-1.6875,-0.59375,1.34375
795,1696168143380,0.083496094,-0.97979736,0.19085693,-1.921875,-1.15625,0.84375
796,1696168143420,0.09399414,-0.9841919,0.21331787,-2.703125,-0.40625,0.28125
797,1696168143460,0.083740234,-0.9854126,0.23504639,-2.8125,0.03125,1.203125
798,1696168143510,0.09350586,-0.94244385,0.20257568,-1.53125,-1.484375,1.890625
799,1696168143540,0.12792969,-0.96051025,0.21307373,-1.484375,-4.765625,0.6875
800,1696168143580,0.09082031,-1.0222778,0.29510498,-4.71875,-5.984375,-2.359375
801,1696168143620,0.045654297,-0.97125244,0.28460693,-3.703125,-4.8125,1.859375
802,1696168143662,0.11279297,-0.92633057,0.21380615,-4.125,-5.796875,2.09375
803,1696168143700,0.087890625,-0.97247314,0.24310303,0.984375,-2.546875,-0.59375
804,1696168143741,0.11230469,-0.9846802,0.23260498,1.34375,-0.78125,1.390625
805,1696168143782,0.10644531,-0.95880127,0.22235107,-2.09375,-1.015625,0.390625
806,1696168143824,0.08325195,-0.9649048,0.24090576,-2.703125,0.71875,-0.3125
807,1696168143861,0.092041016,-0.9898071,0.25213623,-1.65625,0.6875,-0.984375
808,1696168143901,0.1159668,-0.9470825,0.2453003,-3.65625,-0.0625,-1.265625
809,1696168143921,0.10498047,-0.95098877,0.21429443,-3.609375,-3.03125,-2.5625
810,1696168143966,0.061279297,-0.9365845,0.21575928,1.359375,3.046875,0.09375
811,1696168144001,0.11279297,-0.95269775,0.23651123,1.1875,3.171875,1.046875
812,1696168144040,0.12768555,-0.9299927,0.2489624,-3.21875,2.71875,0.015625
813,1696168144081,0.15063477,-0.9356079,0.27166748,-4.1875,0.15625,2.34375
814,1696168144120,0.15209961,-0.9529419,0.25286865,3.765625,2.6875,6.234375
815,1696168144161,0.17211914,-1.0071411,0.24749756,8.46875,-3.3125,12.421875
816,1696168144204,0.21704102,-1.0181274,0.3180542,1.34375,-2.703125,5.28125
817,1696168144242,0.087890625,-1.0689087,0.31707764,1.734375,-11.0,6.171875
818,1696168144284,0.059570312,-0.9492798,0.30682373,-5.1875,-4.0,7.46875
819,1696168144324,0.07788086,-0.9248657,0.26019287,3.625,-1.015625,5.78125
820,1696168144363,0.1538086,-0.9505005,0.28948975,2.234375,4.328125,3.953125
821,1696168144401,0.16503906,-0.9727173,0.26190186,0.71875,0.609375,3.515625
822,1696168144442,0.13232422,-0.93048096,0.2850952,-0.46875,2.21875,0.25
823,1696168144479,0.09448242,-0.9085083,0.25213623,-1.953125,4.1875,-1.15625
824,1696168144522,0.09716797,-0.9319458,0.2982788,-0.953125,7.5625,-4.46875
825,1696168144562,0.14331055,-0.8862915,0.31756592,-3.265625,10.296875,-5.5
826,1696168144602,0.14135742,-0.9277954,0.3287964,-2.75,3.578125,-3.34375
827,1696168144642,0.11254883,-0.90875244,0.33392334,-0.03125,13.90625,-6.421875
828,1696168144681,0.1965332,-1.0457153,0.24676514,0.921875,-3.6875,-2.046875
829,1696168144722,0.1796875,-1.0493774,0.28704834,0.5,4.890625,-4.703125
830,1696168144763,0.16796875,-0.9500122,0.25726318,4.75,2.390625,2.015625
831,1696168144800,0.109375,-0.88848877,0.2946167,3.796875,7.9375,1.40625
832,1696168144840,0.08276367,-0.94903564,0.31829834,1.484375,7.921875,0.3125
833,1696168144881,0.12060547,-0.9661255,0.24603271,10.359375,5.734375,3.03125
834,1696168144924,0.10888672,-0.93707275,0.24505615,4.5,7.953125,2.515625
835,1696168144961,0.08911133,-0.97247314,0.2543335,8.015625,9.609375,2.375
836,1696168145000,0.1303711,-0.98565674,0.23406982,12.125,17.15625,-0.34375
837,1696168145043,0.19311523,-1.0586548,0.23577881,10.4375,14.296875,5.75
838,1696168145082,0.28808594,-1.2749634,0.24725342,4.53125,5.1875,2.953125
839,1696168145121,0.44213867,-1.4194946,0.16595459,17.140625,-8.78125,2.796875
840,1696168145140,0.41430664,-1.517395,0.10809326,3.046875,0.03125,-0.109375
841,1696168145181,0.2578125,-0.85162354,-0.054260254,-10.921875,17.28125,-0.953125
842,1696168145221,0.1381836,-0.92071533,-0.2715454,4.890625,8.34375,-1.203125
843,1696168145261,0.18920898,-0.9380493,-0.14898682,4.65625,-3.9375,-12.984375
844,1696168145300,0.16235352,-1.0261841,0.066833496,4.3125,11.34375,-13.765625
845,1696168145341,0.06201172,-0.9307251,0.058776855,-9.265625,9.015625,-8.703125
846,1696168145385,0.11694336,-0.8115845,-0.051574707,-10.515625,2.09375,-9.671875
847,1696168145421,0.103515625,-0.7620239,-0.025939941,0.59375,3.859375,-2.953125
848,1696168145460,0.016601562,-0.89385986,0.109313965,1.578125,4.796875,-5.75
849,1696168145501,0.060302734,-0.8875122,0.09222412,0.046875,4.25,-8.8125
850,1696168145541,0.07421875,-0.881897,0.07366943,-1.5,-0.125,-7.25
851,1696168145584,0.057373047,-0.85040283,0.0836792,-5.53125,3.734375,-6.40625
852,1696168145621,0.001953125,-0.86846924,0.10858154,-4.359375,5.59375,-6.84375
853,1696168145662,0.068359375,-0.8220825,0.14471436,-3.5,1.15625,0.140625
854,1696168145703,0.08691406,-0.8164673,0.059753418,-9.40625,-10.328125,-1.859375
855,1696168145740,0.04638672,-0.9890747,0.13519287,4.421875,-14.4375,1.375
856,1696168145781,0.0063476562,-0.9973755,0.06561279,5.671875,-10.21875,5.046875
857,1696168145821,-0.038085938,-0.9829712,0.08099365,7.0625,-2.640625,2.875
858,1696168145861,-0.036621094,-1.0918579,0.12225342,4.09375,-4.796875,0.46875
859,1696168145902,0.05859375,-1.1001587,0.16668701,7.734375,-1.625,3.640625
860,1696168145941,0.08911133,-0.92755127,0.0680542,2.6875,2.859375,3.78125
861,1696168145981,0.015380859,-1.0598755,-0.02130127,3.921875,-9.609375,5.796875
862,1696168146020,0.079589844,-1.565979,0.07122803,6.1875,-16.765625,6.875
863,1696168146065,0.13916016,-1.2761841,0.22137451,10.921875,7.703125,13.96875
864,1696168146102,0.33740234,-0.9937134,-0.09283447,4.03125,3.265625,10.5
865,1696168146142,0.32885742,-0.82769775,-0.053771973,1.125,-2.25,7.546875
866,1696168146189,0.2770996,-0.9138794,-0.043029785,-10.296875,-16.265625,1.125
867,1696168146222,0.28027344,-0.9673462,-0.025939941,1.796875,-13.546875,6.40625
868,1696168146259,0.35083008,-0.9319458,-0.009338379,1.59375,-11.96875,7.921875
869,1696168146303,0.27124023,-0.94659424,0.14691162,-9.65625,-7.078125,1.671875
870,1696168146344,0.125,-0.9661255,0.105407715,2.703125,-8.875,3.625
871,1696168146360,0.20532227,-0.8657837,0.04876709,-3.203125,-12.21875,6.28125
872,1696168146401,0.26489258,-0.88287354,0.039978027,-3.140625,-9.125,5.21875
873,1696168146441,0.2878418,-0.86505127,0.16229248,3.296875,-9.1875,0.984375
874,1696168146480,0.21508789,-0.81744385,0.15106201,-3.34375,-7.359375,3.984375
875,1696168146519,0.19824219,-0.78009033,0.10443115,0.96875,-13.09375,3.4375
876,1696168146562,0.13916016,-0.8753052,0.17230225,-0.984375,-7.34375,-1.640625
877,1696168146600,0.09277344,-0.86138916,0.18231201,-1.5625,1.609375,-1.84375
878,1696168146642,0.14819336,-0.8904419,0.14959717,-1.15625,-1.34375,-4.203125
879,1696168146682,0.100097656,-0.9192505,0.1774292,-5.5625,8.921875,-6.546875
880,1696168146723,0.14477539,-0.9380493,0.1918335,1.609375,9.984375,-4.71875
881,1696168146761,0.26660156,-0.88775635,0.1293335,1.28125,1.359375,-3.5625
882,1696168146800,0.24804688,-1.0032349,0.0836792,-0.140625,2.15625,-2.703125
883,1696168146842,0.20263672,-1.0254517,0.101257324,10.125,3.84375,-1.671875
884,1696168146883,0.11669922,-1.0374146,0.20281982,5.359375,16.890625,-1.78125
885,1696168146920,0.23510742,-1.1140747,0.11639404,6.734375,5.6875,-0.28125
886,1696168146965,0.33984375,-1.3640747,0.04827881,-0.234375,-0.5,-3.875
887,1696168147003,0.35253906,-1.395813,0.0602417,2.125,4.09375,-0.75
888,1696168147044,0.15698242,-1.1882935,-0.0017700195,-7.6875,18.015625,-1.546875
889,1696168147082,0.11401367,-0.9924927,-0.09674072,-11.09375,32.0625,-2.78125
890,1696168147120,0.11767578,-0.74957275,-0.20025635,-11.9375,15.484375,-9.078125
891,1696168147161,0.23999023,-1.0125122,-0.14093018,-3.96875,11.5,-20.046875
892,1696168147200,0.20336914,-0.9234009,0.10345459,-8.078125,20.203125,-14.78125
893,1696168147242,0.07910156,-0.8640747,0.116882324,-18.296875,5.796875,-12.421875
894,1696168147283,0.011962891,-0.88775635,0.012878418,2.109375,8.4375,-9.4375
895,1696168147323,-0.005126953,-0.8867798,0.019714355,-0.375,5.453125,-3.21875
896,1696168147364,0.049072266,-0.8855591,0.049987793,1.53125,6.234375,-5.515625
897,1696168147402,0.0073242188,-0.9299927,0.10491943,2.203125,7.8125,-4.296875
898,1696168147445,0.048583984,-0.86676025,0.06829834,-1.09375,3.3125,-2.15625
899,1696168147481,0.037109375,-0.8364868,0.06585693,-0.3125,0.71875,-3.375
900,1696168147522,-0.016113281,-0.8274536,0.06439209,-1.046875,3.828125,-2.203125
901,1696168147579,-0.06201172,-0.9331665,0.070495605,-1.0,-5.953125,0.171875
902,1696168147585,0.12890625,-1.0044556,0.12738037,-5.609375,-11.796875,-2.0625
903,1696168147622,-0.019042969,-0.9817505,0.097595215,-5.921875,-8.09375,2.5
904,1696168147661,-0.13085938,-0.928772,0.070495605,2.6875,-4.046875,7.140625
905,1696168147700,-0.05908203,-1.0657349,0.0072631836,9.890625,-9.78125,5.671875
906,1696168147742,0.16455078,-1.15802,0.16229248,4.578125,3.65625,0.46875
907,1696168147780,0.028076172,-1.1160278,0.10809326,1.203125,8.84375,2.140625
908,1696168147820,-0.008300781,-1.1272583,-0.0025024414,1.8125,2.34375,1.5
909,1696168147864,0.079833984,-1.3174438,0.06121826,-2.046875,-10.203125,1.609375
910,1696168147903,0.2265625,-1.2771606,0.10638428,0.453125,1.578125,11.546875
911,1696168147940,0.31152344,-0.95318604,-0.023254395,-1.625,-0.59375,13.953125
912,1696168147989,0.27929688,-0.81695557,0.04901123,-3.8125,-8.140625,8.828125
913,1696168148018,0.26757812,-0.9837036,0.06048584,2.890625,-7.65625,2.671875
914,1696168148059,0.27148438,-0.9795532,0.027282715,-1.40625,-12.125,8.28125
915,1696168148103,0.2121582,-0.9429321,0.059753418,-1.28125,-3.9375,8.625
916,1696168148141,0.12817383,-0.8904419,0.097351074,-6.953125,-0.765625,-1.765625
917,1696168148182,0.19189453,-0.9002075,0.117370605,-0.53125,-12.34375,6.0
918,1696168148219,0.34228516,-0.8933716,0.11810303,12.265625,-13.828125,16.53125
919,1696168148265,0.3293457,-0.9199829,0.113464355,-3.703125,-14.875,4.84375
920,1696168148302,0.14770508,-0.76397705,0.13885498,-9.140625,-12.59375,5.90625
921,1696168148341,0.09814453,-0.81988525,0.20184326,-4.203125,-14.15625,6.390625
922,1696168148382,0.028808594,-0.7896118,0.18890381,2.078125,-3.1875,8.765625
923,1696168148420,0.15454102,-0.86676025,0.1515503,0.625,-7.875,4.765625
924,1696168148460,0.20703125,-0.84039307,0.22747803,-1.6875,8.015625,-4.9375
925,1696168148499,0.24804688,-0.8118286,0.27996826,-0.625,6.203125,-2.625
926,1696168148541,0.22998047,-0.9656372,0.20526123,4.390625,-1.3125,-3.296875
927,1696168148580,0.27197266,-1.0256958,0.12030029,3.296875,-1.75,-5.625
928,1696168148617,0.20703125,-0.9590454,0.12860107,12.109375,1.4375,-2.640625
929,1696168148657,0.20043945,-0.9673462,0.10467529,6.09375,5.03125,-4.234375
930,1696168148700,0.2775879,-1.1089478,0.16107178,4.3125,-0.53125,-10.171875
931,1696168148739,0.29223633,-1.1987915,0.15179443,5.296875,-4.109375,-3.78125
932,1696168148780,0.2788086,-1.3262329,0.018737793,14.4375,-0.59375,-0.9375
933,1696168148799,0.24682617,-1.1394653,-0.022033691,1.359375,7.109375,-2.59375
934,1696168148840,0.16088867,-0.8965454,-0.06500244,-3.03125,12.734375,-1.421875
935,1696168148880,0.18237305,-0.8479614,-0.22930908,2.5625,8.40625,-4.765625
936,1696168148920,0.37304688,-0.9414673,-0.15948486,-1.671875,-2.1875,-10.0625
937,1696168148959,0.29882812,-1.0715942,0.016052246,0.65625,0.6875,-11.28125
938,1696168148998,0.07397461,-0.96173096,0.0036010742,-11.703125,1.5625,-6.875
939,1696168149038,-0.05029297,-0.925354,-0.03692627,-2.140625,1.234375,-8.765625
940,1696168149081,0.036132812,-0.92144775,-0.021057129,11.171875,6.78125,-4.046875
941,1696168149121,0.092041016,-0.94854736,0.05706787,4.640625,11.0625,-3.140625
942,1696168149161,0.12963867,-0.92559814,0.08270264,-5.65625,11.90625,-6.890625
943,1696168149202,0.038330078,-0.8753052,0.016296387,-7.734375,10.984375,-7.46875
944,1696168149241,-0.03466797,-0.8023071,0.015808105,-4.53125,8.125,-5.578125
945,1696168149281,0.016601562,-0.8389282,0.034362793,-1.578125,7.21875,-5.046875
946,1696168149322,0.0031738281,-0.9053345,0.039978027,-1.65625,1.515625,-1.140625
947,1696168149363,0.08203125,-0.9011841,0.027526855,0.71875,-1.53125,1.828125
948,1696168149401,0.060791016,-0.9788208,0.08538818,-1.953125,2.796875,3.046875
949,1696168149441,0.064697266,-0.98223877,0.0993042,-7.640625,-4.78125,0.390625
950,1696168149480,-0.057128906,-0.9644165,0.020446777,-1.234375,-7.75,4.625
951,1696168149521,0.022949219,-1.0073853,0.02508545,3.796875,-2.40625,15.359375
952,1696168149561,0.22973633,-1.1641235,0.081970215,0.140625,-5.265625,5.578125
953,1696168149602,0.1743164,-1.2007446,0.047058105,-4.15625,-5.265625,4.75
954,1696168149641,0.040039062,-1.218811,0.024108887,0.0,5.6875,8.328125
955,1696168149682,0.20996094,-1.34552,0.04510498,4.890625,0.109375,8.21875
956,1696168149733,0.40820312,-1.0488892,-0.085754395,-2.25,-8.078125,16.515625
957,1696168149765,0.35351562,-0.8706665,0.0016479492,-1.46875,-0.703125,13.0
958,1696168149802,0.2788086,-0.881897,-0.035949707,-3.546875,-6.71875,1.953125
959,1696168149841,0.29785156,-0.897522,-0.05255127,0.265625,-17.109375,7.90625
960,1696168149882,0.24023438,-0.94195557,0.021911621,6.171875,2.0625,5.78125
961,1696168149922,0.23657227,-0.9614868,0.06072998,-15.0625,-1.046875,-0.484375
962,1696168149965,0.23632812,-0.7920532,0.15252686,-2.921875,-4.3125,2.125
963,1696168150024,0.30419922,-0.7822876,0.11517334,16.84375,-7.890625,9.4375
964,1696168150040,0.3137207,-0.94122314,0.026794434,4.515625,-7.6875,8.921875
965,1696168150058,0.28710938,-0.86309814,0.11566162,-16.34375,-6.640625,0.71875
966,1696168150098,0.11621094,-0.7959595,0.14300537,2.0,-1.390625,3.140625
967,1696168150143,0.1171875,-0.89678955,0.101501465,4.875,-0.046875,3.21875
968,1696168150179,0.20629883,-0.89434814,0.14129639,-10.21875,-5.890625,0.25
969,1696168150221,0.26831055,-0.7268677,0.24578857,-5.671875,4.984375,-2.40625
970,1696168150262,0.1953125,-0.8933716,0.1630249,11.078125,3.890625,-5.03125
971,1696168150301,0.1472168,-0.9187622,0.17474365,-5.40625,0.875,-9.46875
972,1696168150343,0.1496582,-1.0169067,0.121276855,14.390625,4.625,-2.90625
973,1696168150382,0.42919922,-1.1577759,0.04827881,-1.625,-6.859375,9.21875
974,1696168150422,0.33789062,-0.9011841,0.15960693,-0.640625,11.046875,-2.4375
975,1696168150461,0.123046875,-0.8948364,-0.026428223,10.125,5.421875,1.3125
976,1696168150501,0.29882812,-1.1079712,-0.06378174,15.671875,-4.390625,4.84375
977,1696168150540,0.43164062,-1.2959595,0.10614014,8.78125,10.515625,-3.328125
978,1696168150581,0.33325195,-1.0232544,-0.013000488,-5.796875,19.15625,-1.609375
979,1696168150620,0.27856445,-1.0401001,-0.1675415,2.453125,3.515625,-1.25
980,1696168150662,0.21557617,-0.8933716,-0.14727783,9.625,6.15625,-3.65625
981,1696168150699,0.18920898,-0.89190674,-0.20562744,9.84375,14.484375,-3.296875
982,1696168150740,0.35668945,-0.9837036,-0.2029419,3.546875,3.71875,-7.53125
983,1696168150780,0.22631836,-1.041565,-0.12994385,6.90625,8.78125,-9.453125
984,1696168150826,0.12573242,-0.9277954,-0.1038208,-6.390625,6.265625,-7.828125
985,1696168150862,0.095703125,-0.9590454,-0.19659424,-0.359375,2.609375,-11.375
986,1696168150900,0.17822266,-1.0095825,-0.01373291,-3.4375,2.140625,-9.546875
987,1696168150941,0.11303711,-0.9885864,-0.014465332,-2.78125,12.59375,-1.953125
988,1696168150982,0.07910156,-0.9038696,-0.041809082,-11.78125,6.53125,-6.40625
989,1696168151021,0.08105469,-0.79473877,-0.09234619,-11.28125,6.0,-7.859375
990,1696168151060,0.056396484,-0.8479614,-0.024719238,-3.390625,3.328125,-4.09375
991,1696168151098,0.09057617,-0.8008423,0.07244873,2.265625,6.90625,-3.0625
992,1696168151140,0.06225586,-0.7788696,0.0119018555,-5.234375,-0.53125,-1.078125
993,1696168151181,0.09399414,-0.817688,-0.06011963,-4.53125,-16.125,2.828125
994,1696168151222,0.11621094,-0.9055786,0.015808105,-1.140625,-10.515625,4.09375
995,1696168151261,0.016113281,-1.0586548,-0.0025024414,-7.09375,-13.453125,1.9375
996,1696168151280,0.053222656,-1.0686646,-0.002746582,-0.59375,-13.75,5.421875
997,1696168151320,0.1965332,-0.98516846,0.13568115,6.796875,6.96875,9.609375
998,1696168151361,0.16821289,-1.1643677,-0.00030517578,-8.03125,-2.265625,1.8125
999,1696168151400,0.12768555,-1.1936646,-0.15655518,3.796875,3.09375,6.265625
1000,1696168151439,0.10131836,-1.1963501,-0.08111572,3.75,0.21875,8.15625
1001,1696168151481,0.40405273,-1.2507935,-0.03741455,4.296875,-0.859375,7.0625
1002,1696168151520,0.4284668,-0.9639282,-0.04058838,-4.734375,4.515625,10.171875
1003,1696168151562,0.31445312,-0.81451416,-0.11895752,-1.109375,4.015625,2.515625
1004,1696168151601,0.3642578,-0.8567505,-0.16436768,-2.6875,-11.15625,6.234375
1005,1696168151647,0.42504883,-0.94537354,-0.0569458,1.75,-9.890625,3.453125
1006,1696168151681,0.27319336,-0.9338989,-0.0032348633,-17.390625,-1.765625,-6.875
1007,1696168151723,0.21679688,-0.8858032,0.023620605,-2.515625,-6.3125,-5.015625
1008,1696168151760,0.24609375,-0.991272,-0.0020141602,-0.96875,-4.78125,3.140625
1009,1696168151801,0.28759766,-0.9678345,0.06732178,1.0625,1.25,4.859375
1010,1696168151843,0.3425293,-0.85162354,0.093688965,-18.453125,-6.59375,0.140625
1011,1696168151885,0.22387695,-0.79937744,0.07147217,-4.875,-5.265625,-2.171875
1012,1696168151922,0.11010742,-0.8098755,0.0680542,-1.78125,-4.03125,-1.671875
1013,1696168151961,0.061035156,-0.72906494,0.11785889,-2.34375,3.3125,2.171875
1014,1696168152007,0.15161133,-0.8130493,0.093444824,0.15625,4.046875,-0.890625
1015,1696168152042,0.3244629,-0.8562622,0.19012451,-3.828125,1.078125,-8.640625
1016,1696168152081,0.21166992,-0.862854,0.2584839,2.921875,-0.234375,-11.859375
1017,1696168152119,0.08935547,-0.960022,0.08856201,10.765625,0.828125,-1.25
1018,1696168152160,0.1887207,-1.0325317,-0.027160645,2.21875,-0.71875,1.53125
1019,1696168152202,0.2697754,-1.0874634,0.1437378,-0.125,-0.921875,-7.15625
1020,1696168152240,0.17602539,-1.1228638,0.18963623,0.625,4.609375,-9.796875
1021,1696168152280,0.15698242,-1.098938,0.03704834,0.578125,5.609375,-1.46875
1022,1696168152323,0.30664062,-1.1326294,-6.1035156e-05,8.15625,-2.953125,2.796875
1023,1696168152361,0.34594727,-1.1939087,0.09173584,5.265625,0.765625,-0.296875
1024,1696168152401,0.2619629,-1.2620239,-0.0051879883,4.390625,2.875,0.578125
1025,1696168152440,0.2626953,-1.0374146,-0.13140869,-4.46875,2.140625,6.578125
1026,1696168152479,0.20898438,-0.8508911,-0.2937622,-1.546875,5.875,4.953125
1027,1696168152500,0.22460938,-0.87335205,-0.22149658,-3.90625,7.84375,-7.0
1028,1696168152541,0.22949219,-1.0696411,0.041931152,4.0625,10.8125,-11.546875
1029,1696168152581,0.044433594,-0.9336548,0.029724121,-9.1875,11.03125,-9.5625
1030,1696168152622,0.118652344,-0.848938,-0.1038208,-5.84375,9.28125,-10.9375
1031,1696168152664,0.14135742,-0.82476807,-0.08062744,-8.125,7.203125,-11.703125
1032,1696168152700,0.071777344,-0.8496704,0.046569824,-2.9375,8.75,-6.8125
1033,1696168152743,0.014404297,-0.86138916,0.036071777,4.375,10.703125,-5.875
1034,1696168152785,0.032958984,-0.83184814,-0.0256958,-1.640625,8.703125,-7.078125
1035,1696168152819,0.08300781,-0.83428955,0.0014038086,1.15625,6.3125,-4.765625
1036,1696168152861,0.083496094,-0.9024048,0.04559326,-3.046875,1.578125,-2.4375
1037,1696168152903,-0.021972656,-0.87384033,0.032409668,-4.96875,-3.1875,-0.265625
1038,1696168152940,-0.05053711,-0.9480591,0.11566162,2.109375,-3.25,1.84375
1039,1696168152981,0.08300781,-1.0132446,0.098083496,-2.578125,-4.5,2.9375
1040,1696168153021,0.068847656,-1.0059204,0.032165527,-5.90625,-7.375,4.8125
1041,1696168153061,0.05444336,-1.0300903,-0.05279541,2.59375,-11.0,8.90625
1042,1696168153101,0.1928711,-1.1358032,0.034118652,11.078125,-10.453125,7.65625
1043,1696168153141,0.08154297,-1.3276978,0.074157715,0.125,-8.328125,3.46875
1044,1696168153179,0.033447266,-1.1096802,-0.031799316,6.875,12.859375,6.890625
1045,1696168153219,0.17529297,-1.1299438,-0.13018799,5.296875,-2.515625,7.796875
1046,1696168153264,0.42504883,-1.1358032,-0.008361816,3.171875,-2.53125,10.421875
1047,1696168153301,0.37841797,-0.92852783,-0.077941895,-7.59375,-8.421875,10.96875
1048,1696168153341,0.28759766,-0.8452759,-0.06524658,-6.84375,-5.8125,8.234375
1049,1696168153381,0.34350586,-0.93048096,-0.08795166,-2.921875,-14.0,7.953125
1050,1696168153422,0.30664062,-1.0044556,-0.038146973,-2.21875,-21.53125,2.96875
1051,1696168153461,0.19482422,-0.96661377,0.07220459,-1.765625,-2.1875,3.703125
1052,1696168153506,0.23095703,-0.92926025,0.026062012,-7.078125,-7.265625,3.71875
1053,1696168153540,0.31469727,-0.8804321,0.082214355,-2.34375,-9.390625,3.3125
1054,1696168153579,0.3642578,-0.87506104,0.07904053,4.453125,-2.09375,5.0625
1055,1696168153624,0.32250977,-0.85479736,0.08123779,-11.1875,-15.25,2.609375
1056,1696168153660,0.19677734,-0.7666626,0.12054443,-2.328125,-7.078125,2.640625
1057,1696168153701,0.07299805,-0.79107666,0.09979248,-2.59375,-7.9375,3.078125
1058,1696168153721,0.07836914,-0.79156494,0.05218506,-6.5,-3.359375,-0.40625
1059,1696168153761,0.18481445,-0.8286743,0.16473389,-0.234375,4.828125,-2.21875
1060,1696168153801,0.28125,-0.897522,0.24969482,2.046875,2.46875,-4.515625
1061,1696168153841,0.22680664,-0.97979736,0.17840576,-5.953125,2.953125,-8.0
1062,1696168153880,0.13696289,-0.878479,0.18060303,-3.6875,11.671875,-6.328125
1063,1696168153921,0.2199707,-1.0132446,0.16644287,6.1875,1.8125,-5.84375
1064,1696168153961,0.32373047,-1.1275024,0.15081787,3.84375,3.484375,-1.6875
1065,1696168154002,0.29956055,-1.1358032,0.09637451,-2.40625,7.609375,0.890625
1066,1696168154047,0.1538086,-0.99053955,0.06097412,-3.875,16.0,-7.1875
1067,1696168154081,0.22705078,-1.010315,0.10882568,6.796875,8.671875,-0.21875
1068,1696168154120,0.46679688,-1.4175415,0.00579834,15.0625,-2.046875,-4.21875
1069,1696168154160,0.38012695,-1.3953247,0.053894043,-12.640625,-2.75,-4.890625
1070,1696168154198,0.07836914,-0.86187744,-0.07110596,-16.359375,26.984375,6.90625
1071,1696168154237,0.111816406,-0.7727661,-0.2630005,18.21875,27.21875,-2.0625
1072,1696168154279,0.32226562,-0.95147705,-0.15216064,1.015625,-1.6875,-17.921875
1073,1696168154320,0.2565918,-0.9780884,0.11199951,-4.546875,17.328125,-11.6875
1074,1696168154362,0.1027832,-0.82354736,0.027282715,-3.84375,21.78125,-3.5
1075,1696168154401,0.09838867,-0.800354,-0.06524658,-5.359375,1.109375,-16.875
1076,1696168154442,0.041992188,-0.833313,0.03363037,7.09375,-2.484375,-10.984375
1077,1696168154482,0.092285156,-0.9590454,0.070495605,-4.59375,12.109375,-3.734375
1078,1696168154521,0.033691406,-0.8670044,0.0016479492,-6.890625,9.921875,-4.71875
1079,1696168154560,0.06225586,-0.82940674,-0.039855957,-2.625,8.84375,-6.671875
1080,1696168154600,0.115234375,-0.8814087,0.11004639,-5.796875,3.46875,-3.875
1081,1696168154642,0.038085938,-0.86309814,0.062438965,-7.65625,-6.65625,-2.328125
1082,1696168154681,-0.0107421875,-0.84625244,0.022155762,-4.09375,-7.78125,0.0625
1083,1696168154725,0.084472656,-0.94000244,0.061462402,8.71875,-9.296875,4.25
1084,1696168154763,0.1640625,-1.0706177,0.08392334,2.140625,-15.515625,4.15625
1085,1696168154801,0.030029297,-1.0410767,0.08905029,-5.625,-9.203125,1.53125
1086,1696168154841,-0.15332031,-1.0337524,0.012390137,2.0,-11.71875,4.09375
1087,1696168154881,0.0703125,-1.0667114,0.020446777,13.890625,0.171875,5.53125
1088,1696168154945,0.2548828,-1.2722778,0.06878662,2.140625,-1.1875,3.46875
1089,1696168154951,0.2019043,-1.2383423,0.035095215,-1.53125,3.515625,7.265625
1090,1696168154981,0.19628906,-1.1760864,-0.017150879,-2.078125,-8.828125,8.625
1091,1696168155022,0.28588867,-1.0803833,-0.007385254,0.84375,-4.890625,10.359375
1092,1696168155061,0.2980957,-0.9072876,-0.061584473,0.3125,-7.609375,9.875
1093,1696168155101,0.27783203,-0.82037354,0.0028686523,3.484375,-6.375,5.5
1094,1696168155141,0.29541016,-0.83917236,-0.05670166,-2.59375,-13.46875,4.03125
1095,1696168155188,0.33740234,-0.91192627,-0.06451416,1.09375,-21.828125,5.1875
1096,1696168155221,0.19946289,-0.9326782,0.08026123,-6.84375,-3.203125,1.875
1097,1696168155268,0.21679688,-0.98321533,0.09295654,1.40625,-6.984375,1.515625
1098,1696168155300,0.23828125,-0.9092407,0.043640137,-2.40625,-7.984375,5.75
1099,1696168155338,0.36279297,-0.88287354,0.04095459,-5.328125,-5.921875,5.71875
1100,1696168155380,0.25634766,-0.89801025,0.13397217,1.5,-5.8125,2.296875
1101,1696168155424,0.20385742,-0.8760376,0.11444092,-4.0625,-7.328125,4.796875
1102,1696168155461,0.16064453,-0.84503174,0.050720215,-0.890625,-6.9375,4.828125
1103,1696168155500,0.16577148,-0.86016846,0.12982178,-1.75,-4.203125,1.484375
1104,1696168155541,0.21240234,-0.89385986,0.19085693,-2.703125,-0.25,1.0
1105,1696168155580,0.28710938,-0.8743286,0.17279053,0.5625,-8.078125,2.6875
1106,1696168155622,0.23632812,-0.87994385,0.16644287,-2.53125,-5.046875,-2.96875
1107,1696168155660,0.17700195,-0.8713989,0.215271,3.8125,-0.078125,-1.0
1108,1696168155702,0.18896484,-0.8880005,0.16546631,1.96875,-9.953125,1.046875
1109,1696168155741,0.22558594,-0.9475708,0.17108154,9.546875,-5.6875,-3.546875
1110,1696168155780,0.15917969,-1.0940552,0.059753418,7.796875,-1.921875,2.21875
1111,1696168155819,0.27416992,-1.0403442,0.11639404,-3.953125,3.953125,3.09375
1112,1696168155864,0.21069336,-0.96417236,0.17718506,6.421875,12.15625,-4.203125
1113,1696168155906,0.2446289,-1.0418091,0.11395264,2.15625,6.890625,5.46875
1114,1696168155941,0.5151367,-1.0308228,0.04486084,-0.21875,-6.59375,7.921875
1115,1696168155982,0.33154297,-1.0427856,0.070007324,6.34375,5.40625,1.1875
1116,1696168156022,0.22973633,-1.0654907,0.012390137,11.484375,10.5625,3.328125
1117,1696168156061,0.30322266,-1.130188,-0.10089111,8.140625,-6.546875,1.453125
1118,1696168156100,0.41674805,-1.0745239,-0.07720947,0.890625,7.3125,1.015625
1119,1696168156162,0.27319336,-0.87457275,-0.20953369,4.140625,24.921875,-3.1875
1120,1696168156181,0.3232422,-0.9067993,-0.19781494,-3.8125,6.515625,-12.34375
1121,1696168156198,0.32788086,-0.9085083,-0.047180176,0.5625,2.421875,-11.390625
1122,1696168156284,0.20361328,-0.928772,-0.082336426,-1.515625,5.125,-5.546875
1123,1696168156290,0.18432617,-1.0144653,-0.10455322,0.453125,10.953125,-12.859375
1124,1696168156320,0.08496094,-1.0183716,-0.051330566,1.125,5.40625,-10.671875
1125,1696168156361,0.10961914,-0.9258423,-0.043762207,-1.890625,12.046875,-2.203125
1126,1696168156401,0.14404297,-0.8772583,-0.02960205,-1.15625,12.65625,-5.109375
1127,1696168156440,0.1003418,-0.8928833,-0.020568848,-3.046875,10.609375,-8.390625
1128,1696168156482,0.010986328,-0.89508057,0.027770996,-3.125,16.859375,-9.6875
1129,1696168156517,0.08862305,-0.84259033,0.022644043,-5.0625,11.21875,-4.515625
1130,1696168156558,0.08276367,-0.8242798,-0.003479004,-11.765625,1.875,-0.125
1131,1696168156602,0.06640625,-0.84576416,0.051208496,-10.234375,-2.15625,-1.84375
1132,1696168156637,0.12475586,-0.9456177,0.005065918,2.765625,-1.96875,-0.359375
1133,1696168156677,0.055419922,-0.9998169,0.0040893555,-5.6875,-6.234375,0.921875
1134,1696168156718,0.13354492,-1.0149536,-0.019104004,-0.25,-16.34375,4.859375
1135,1696168156761,0.12036133,-1.0183716,0.062927246,5.421875,3.5625,7.46875
1136,1696168156797,0.25097656,-1.2612915,0.016052246,-0.90625,-8.734375,5.09375
1137,1696168156838,0.29785156,-1.1692505,-0.124572754,-6.015625,-8.21875,7.171875
1138,1696168156877,0.30908203,-1.0925903,-0.066223145,-9.0,-4.203125,9.40625
1139,1696168156917,0.31030273,-1.1218872,0.066345215,2.984375,-7.765625,9.75
1140,1696168156958,0.32617188,-0.94732666,-0.055725098,4.4375,-3.96875,11.3125
1141,1696168156999,0.3515625,-0.8909302,-0.024230957,-2.4375,-8.03125,9.265625
1142,1696168157039,0.48461914,-0.8274536,-0.101867676,2.921875,-18.4375,6.609375
1143,1696168157081,0.32543945,-0.8689575,0.032409668,-7.046875,-13.140625,-1.796875
1144,1696168157125,0.19799805,-0.8831177,0.020690918,-5.34375,-6.765625,3.140625
1145,1696168157164,0.31396484,-0.8833618,-0.0056762695,5.890625,-15.59375,3.71875
1146,1696168157197,0.3383789,-0.881897,0.09515381,-3.171875,-6.609375,1.75
1147,1696168157241,0.4086914,-0.9146118,0.09051514,0.96875,-12.703125,3.390625
1148,1696168157279,0.28857422,-0.87164307,0.101257324,-4.234375,-12.03125,0.25
1149,1696168157318,0.22314453,-0.7991333,0.12762451,2.0,-9.140625,2.234375
1150,1696168157379,0.16821289,-0.8521118,0.06756592,-2.40625,-11.890625,2.765625
1151,1696168157399,0.27026367,-0.81915283,0.14886475,-1.90625,-8.3125,0.453125
1152,1696168157420,0.23706055,-0.9578247,0.21185303,3.125,-4.09375,-2.265625
1153,1696168157464,0.22998047,-0.91412354,0.10687256,-7.609375,-6.25,-1.421875
1154,1696168157501,0.25732422,-0.767395,0.18963623,-5.46875,-0.75,-4.71875
1155,1696168157539,0.23925781,-0.8882446,0.24188232,4.4375,-0.296875,-4.90625
1156,1696168157583,0.22485352,-0.95196533,0.24725342,-2.75,-4.5,-6.46875
1157,1696168157624,0.14331055,-0.91241455,0.09539795,4.9375,1.140625,-3.65625
1158,1696168157660,0.2841797,-0.9307251,0.051696777,6.609375,-1.09375,-1.109375
1159,1696168157701,0.30859375,-1.0120239,0.17816162,3.34375,0.171875,-2.375
1160,1696168157740,0.18823242,-1.0454712,0.07244873,0.578125,4.71875,-4.8125
1161,1696168157781,0.16137695,-0.9678345,0.08001709,3.8125,11.53125,-4.609375
1162,1696168157823,0.31420898,-1.1401978,0.046569824,21.640625,6.453125,3.953125
1163,1696168157860,0.42285156,-1.4299927,0.050231934,1.578125,6.8125,-12.59375
1164,1696168157900,0.27563477,-1.2195435,0.0602417,-10.984375,9.765625,-5.9375
1165,1696168157944,0.140625,-1.0369263,-0.09942627,12.390625,28.109375,3.46875
1166,1696168157981,0.2241211,-0.9673462,-0.18902588,-5.484375,19.9375,-6.703125
1167,1696168158024,0.2529297,-0.8665161,-0.16729736,5.3125,14.8125,-7.734375
1168,1696168158065,0.35742188,-0.93292236,-0.10040283,-1.078125,15.578125,-7.421875
1169,1696168158099,0.19311523,-0.91607666,0.014831543,-11.75,19.453125,-12.953125
1170,1696168158139,0.024169922,-0.8875122,-0.034729004,-15.03125,13.609375,-8.90625
1171,1696168158181,0.04321289,-0.8430786,-0.07598877,-1.234375,9.15625,-7.6875
1172,1696168158221,0.057861328,-0.944397,-0.028869629,11.625,18.875,-4.25
1173,1696168158261,0.09106445,-0.8882446,0.047790527,2.765625,17.421875,2.140625
1174,1696168158301,0.095214844,-0.8826294,-0.0076293945,3.4375,19.296875,-5.5625
1175,1696168158340,-0.028076172,-0.9326782,-0.06402588,-1.09375,16.8125,-7.203125
1176,1696168158381,0.091308594,-0.8386841,-0.03668213,-5.359375,3.59375,-0.8125
1177,1696168158425,0.22363281,-0.7942505,0.02923584,-6.328125,-5.625,-0.3125
1178,1696168158460,0.0126953125,-0.9627075,-0.012756348,11.203125,-8.46875,0.0625
1179,1696168158501,-0.030517578,-1.0230103,-0.058898926,-14.34375,-18.15625,0.9375
1180,1696168158541,0.095214844,-0.9763794,0.02923584,5.515625,-5.796875,3.6875
1181,1696168158580,0.13452148,-0.9487915,-0.018615723,-6.28125,-6.953125,4.90625
1182,1696168158621,0.12182617,-1.0071411,-0.05230713,-0.53125,-10.125,3.546875
1183,1696168158640,0.17407227,-1.3709106,0.029724121,3.53125,-12.96875,4.359375
1184,1696168158681,0.08081055,-1.2991333,0.034606934,-17.734375,-6.5,10.1875
1185,1696168158720,0.2277832,-1.0686646,-0.15948486,4.4375,8.140625,10.65625
1186,1696168158762,0.27539062,-1.0176392,-0.030578613,1.796875,-5.5,11.828125
1187,1696168158803,0.42041016,-0.9248657,-0.042297363,-12.578125,-14.34375,11.265625
1188,1696168158841,0.31347656,-0.8201294,-0.028869629,-12.96875,-14.484375,2.796875
1189,1696168158882,0.29345703,-0.93341064,-0.041809082,1.9375,-7.5625,2.171875
1190,1696168158924,0.26220703,-0.97052,0.046081543,-1.78125,-3.8125,6.453125
1191,1696168158961,0.21533203,-0.88653564,0.08905029,-18.03125,-1.203125,-0.5
1192,1696168159001,0.23876953,-0.8430786,0.019226074,-5.828125,-4.484375,3.359375
1193,1696168159041,0.2980957,-0.9404907,0.11566162,5.875,-4.59375,10.015625
1194,1696168159080,0.38085938,-0.92926025,0.11907959,-10.09375,-5.859375,2.34375
1195,1696168159125,0.28686523,-0.80670166,0.15667725,-14.171875,-0.34375,-1.03125
1196,1696168159162,0.16699219,-0.819397,0.12322998,-1.484375,-5.359375,2.25
1197,1696168159202,0.16870117,-0.8882446,0.10101318,-2.78125,-10.078125,4.484375
1198,1696168159241,0.19702148,-0.8604126,0.18670654,-0.78125,5.0,-0.234375
1199,1696168159282,0.25390625,-0.86798096,0.20233154,-2.328125,-3.703125,-3.65625
1200,1696168159324,0.19042969,-0.85406494,0.22576904,-0.609375,2.015625,-5.140625
1201,1696168159363,0.1652832,-0.8694458,0.1762085,-0.109375,-1.390625,-4.421875
1202,1696168159404,0.119628906,-0.82037354,0.2074585,-7.75,6.46875,-7.46875
1203,1696168159442,0.18823242,-0.93096924,0.17645264,13.8125,2.828125,-6.453125
1204,1696168159481,0.29833984,-0.9573364,0.23968506,2.453125,-0.203125,-4.1875
1205,1696168159522,0.2475586,-1.1109009,0.2374878,5.1875,2.953125,-4.703125
1206,1696168159562,0.13110352,-1.1538696,0.08441162,-1.90625,5.796875,-1.09375
1207,1696168159599,0.17358398,-0.9414673,0.14837646,-1.328125,8.3125,-1.96875
1208,1696168159641,0.29541016,-1.0264282,0.22991943,11.125,9.28125,2.71875
1209,1696168159681,0.27539062,-1.3030396,0.13934326,-4.046875,-0.703125,-1.28125
1210,1696168159721,0.28979492,-1.1924438,0.10614014,2.34375,10.84375,-0.96875
1211,1696168159760,0.3569336,-1.1997681,-0.0154418945,4.765625,10.453125,1.765625
1212,1696168159801,0.24511719,-1.0093384,-0.004699707,-7.59375,12.6875,1.84375
1213,1696168159843,0.18237305,-0.80792236,-0.16485596,5.453125,19.90625,1.078125
1214,1696168159860,0.34106445,-0.8875122,-0.18927002,5.171875,12.0625,-6.03125
1215,1696168159898,0.31054688,-1.0344849,-0.008850098,-3.078125,10.3125,-14.890625
1216,1696168159941,0.13500977,-0.9229126,0.00579834,-12.375,12.625,-6.890625
1217,1696168159982,0.15478516,-0.91412354,-0.043029785,-2.484375,1.59375,-6.109375
1218,1696168160021,0.18774414,-0.9771118,0.042419434,-1.40625,0.53125,-7.375
1219,1696168160058,0.08984375,-0.93048096,0.08319092,0.15625,10.703125,-4.59375
1220,1696168160099,0.072509766,-0.8694458,0.007019043,0.078125,6.0625,-4.65625
1221,1696168160140,0.14477539,-0.8386841,0.028015137,-0.28125,7.59375,-8.5625
1222,1696168160178,0.057617188,-0.91778564,0.07562256,-1.421875,6.515625,-7.84375
1223,1696168160222,0.020507812,-0.9212036,0.105407715,4.109375,5.609375,-6.921875
1224,1696168160260,0.029052734,-0.81622314,0.09173584,0.546875,8.734375,-4.640625
1225,1696168160303,-0.040527344,-0.8401489,0.059753418,-3.46875,0.796875,-3.9375
1226,1696168160341,0.040283203,-0.8858032,0.07684326,3.328125,-0.296875,-2.453125
1227,1696168160379,0.060791016,-0.96466064,0.061706543,5.171875,1.4375,1.296875
1228,1696168160419,0.1652832,-0.96588135,0.04559326,-8.78125,-4.390625,4.015625
1229,1696168160459,0.21801758,-1.1646118,0.04046631,6.234375,-8.640625,3.234375
1230,1696168160497,0.2277832,-1.4817505,0.070251465,3.484375,-9.9375,5.65625
1231,1696168160537,0.06665039,-1.12677,0.020690918,3.328125,-4.375,12.015625
1232,1696168160577,0.13085938,-1.0222778,-0.07525635,7.796875,-5.59375,11.375
1233,1696168160617,0.30297852,-0.9924927,-0.06719971,4.03125,-8.375,14.265625
1234,1696168160658,0.3852539,-0.95196533,0.024597168,1.390625,-5.453125,9.296875
1235,1696168160697,0.35546875,-0.88946533,-0.1453247,-1.328125,-7.734375,7.265625
1236,1696168160738,0.26757812,-0.90460205,-0.074279785,1.890625,-7.0,1.140625
1237,1696168160778,0.2211914,-0.9668579,-0.00030517578,0.171875,0.875,0.953125
1238,1696168160817,0.30151367,-0.9216919,-0.021057129,-3.09375,-8.96875,2.484375
1239,1696168160858,0.31689453,-0.80426025,-6.1035156e-05,0.71875,-8.359375,3.453125
1240,1696168160900,0.2902832,-0.9204712,0.0040893555,5.90625,-6.703125,2.28125
1241,1696168160938,0.2939453,-0.9673462,0.07879639,-5.015625,-8.21875,2.21875
1242,1696168160978,0.2421875,-0.86383057,0.07659912,-7.296875,-7.03125,1.859375
1243,1696168161019,0.22338867,-0.8753052,0.012878418,0.765625,-6.765625,4.96875
1244,1696168161057,0.18139648,-0.9585571,0.10809326,-1.8125,-6.5,2.03125
1245,1696168161078,0.2084961,-0.92510986,0.16131592,-3.734375,3.3125,-1.0625
1246,1696168161120,0.21166992,-0.7788696,0.101745605,-5.328125,-2.984375,-1.953125
1247,1696168161161,0.14624023,-0.83062744,0.1486206,6.25,7.890625,-2.53125
1248,1696168161200,0.23144531,-0.8562622,0.10882568,8.78125,7.328125,4.21875
1249,1696168161242,0.21459961,-0.8440552,0.090026855,-2.328125,2.296875,-1.328125
1250,1696168161278,0.16967773,-0.9002075,0.09320068,0.8125,9.34375,-7.90625
