,timestamp,accel_x,accel_y,accel_z,gyro_x,gyro_y,gyro_z,ind
0,1695742419438,0.10083008,-0.97442627,-0.020812988,-1.171875,-3.09375,-0.625,0
1,1695742419478,0.111572266,-0.9920044,-0.022277832,2.578125,-4.640625,-0.171875,1
2,1695742419518,0.103515625,-0.98638916,-0.007385254,-1.484375,-0.125,-0.59375,2
3,1695742419558,0.10913086,-0.97320557,-0.03375244,-0.703125,-4.125,-0.203125,3
4,1695742419598,0.11352539,-0.9534302,-0.047180176,-1.40625,-3.734375,-0.84375,4
5,1695742419638,0.111328125,-0.9680786,0.00579834,-3.9375,-1.96875,-1.609375,5
6,1695742419678,0.092285156,-0.95562744,-0.006652832,-6.390625,-6.5,-2.109375,6
7,1695742419718,0.095703125,-0.9690552,0.0040893555,-7.125,-7.234375,-2.546875,7
8,1695742419758,0.09399414,-0.98223877,0.038024902,-8.78125,-2.765625,-2.65625,8
9,1695742419798,0.05102539,-0.9961548,0.007751465,-10.78125,-9.015625,-2.34375,9
10,1695742419838,0.09692383,-0.9805298,0.051208496,-7.765625,-7.328125,-2.40625,10
11,1695742419878,0.17480469,-0.96588135,-0.00592041,-6.578125,-7.0,-3.859375,11
12,1695742419918,0.072753906,-1.0464478,0.085632324,-4.328125,-3.28125,-2.171875,12
13,1695742419958,0.06323242,-0.97442627,0.06365967,-4.140625,-4.0625,-2.203125,13
14,1695742419998,0.08520508,-0.9768677,0.042419434,-4.765625,-3.8125,-4.34375,14
15,1695742420038,0.05126953,-0.97442627,0.07879639,-3.75,-1.703125,-4.9375,15
16,1695742420078,0.06225586,-1.0142212,0.062194824,-3.984375,-2.125,-2.59375,16
17,1695742420118,0.07763672,-1.0171509,0.070495605,-6.1875,2.3125,-3.109375,17
18,1695742420158,0.08129883,-0.99005127,0.117614746,-6.0625,1.703125,-4.0,18
19,1695742420198,0.026611328,-0.99591064,0.058044434,-4.40625,2.421875,-2.890625,19
20,1695742420238,0.08105469,-0.991272,0.06903076,-11.890625,7.3125,-3.5,20
21,1695742420278,0.03125,-1.0010376,0.12445068,0.859375,4.109375,0.875,21
22,1695742420318,0.088378906,-1.0120239,0.11151123,7.6875,11.453125,4.921875,22
23,1695742420358,0.06591797,-1.0115356,0.11883545,13.21875,7.5,2.515625,23
24,1695742420398,0.05102539,-0.9729614,0.049987793,12.34375,4.359375,-0.65625,24
25,1695742420438,0.076171875,-0.95440674,0.034606934,6.109375,8.703125,4.0,25
26,1695742420478,0.057861328,-1.0110474,0.05682373,11.421875,4.484375,2.34375,26
27,1695742420518,0.061767578,-1.0037231,0.009216309,10.0,3.078125,3.515625,27
28,1695742420558,0.080322266,-1.0007935,0.016540527,6.0625,7.59375,4.21875,28
29,1695742420598,0.068115234,-0.97540283,0.012878418,11.90625,0.703125,1.5625,29
30,1695742420638,0.07543945,-0.97613525,-0.06719971,5.78125,5.3125,4.609375,30
31,1695742420678,0.13452148,-1.0252075,0.020446777,6.0625,10.1875,8.671875,31
32,1695742420718,0.08642578,-0.97198486,-0.046203613,8.0625,1.3125,2.46875,32
33,1695742420758,0.08154297,-0.9546509,-0.07501221,6.640625,4.140625,4.96875,33
34,1695742420798,0.13696289,-1.013977,-0.04425049,3.875,9.734375,5.125,34
35,1695742420838,0.12646484,-0.9158325,-0.04840088,2.34375,-0.328125,2.1875,35
36,1695742420878,0.10522461,-0.94976807,-0.054016113,-0.671875,2.53125,4.390625,36
37,1695742420918,0.1459961,-0.9456177,-0.013977051,-1.71875,-4.390625,1.046875,37
38,1695742420958,0.12841797,-0.93536377,-0.08648682,-4.3125,-12.1875,-2.046875,38
39,1695742420998,0.12548828,-0.97540283,-0.031311035,-4.71875,-6.4375,-2.140625,39
40,1695742421038,0.12597656,-0.9314575,-0.04156494,-15.640625,-9.3125,-4.640625,40
41,1695742421078,0.095458984,-0.98150635,-0.05230713,-15.40625,-17.890625,-2.828125,41
42,1695742421118,0.14404297,-1.0134888,0.055603027,-5.625,2.703125,-3.5,42
43,1695742421158,0.10205078,-1.0278931,-0.024719238,-12.734375,-12.25,-2.5,43
44,1695742421198,0.10546875,-0.95928955,0.059020996,-4.5,-6.75,-1.8125,44
45,1695742421238,0.15771484,-0.9627075,0.019470215,-7.328125,-0.78125,-2.1875,45
46,1695742421278,0.06542969,-0.96759033,0.02947998,-9.734375,-11.484375,-3.875,46
47,1695742421318,0.11328125,-1.0005493,0.08026123,-6.625,-4.34375,-2.328125,47
48,1695742421358,0.107910156,-1.038147,0.062194824,-6.25,-3.703125,-0.859375,48
49,1695742421398,0.10571289,-0.97613525,0.053649902,-7.390625,-4.171875,-4.46875,49
50,1695742421438,0.12524414,-0.973938,0.070251465,-5.21875,-1.6875,-3.421875,50
51,1695742421478,0.11401367,-1.0015259,0.08465576,-8.484375,-0.046875,-3.90625,51
52,1695742421518,0.10864258,-1.0003052,0.11102295,-13.5,-0.65625,-6.96875,52
53,1695742421558,0.083984375,-0.99786377,0.11077881,-7.8125,3.34375,-6.9375,53
54,1695742421598,0.021240234,-1.0178833,0.13641357,-5.3125,0.265625,-3.90625,54
55,1695742421638,0.020263672,-0.94366455,0.16107178,-3.1875,2.828125,-1.109375,55
56,1695742421678,0.092285156,-1.0078735,0.15032959,0.15625,5.6875,-0.5625,56
57,1695742421718,0.052001953,-1.0369263,0.13763428,7.109375,9.625,-1.921875,57
58,1695742421758,0.08642578,-1.0088501,0.105407715,7.015625,6.734375,0.53125,58
59,1695742421798,0.025878906,-0.95269775,0.086364746,13.625,3.296875,-0.03125,59
60,1695742421838,0.099609375,-0.99468994,0.07366943,8.53125,19.109375,2.171875,60
61,1695742421878,0.035888672,-0.97198486,0.13372803,7.515625,1.109375,2.4375,61
62,1695742421918,0.052246094,-0.9558716,0.016296387,19.0,-1.46875,3.0,62
63,1695742421958,0.09863281,-1.0278931,0.0038452148,2.828125,12.34375,3.6875,63
64,1695742421998,0.07836914,-0.9807739,0.12298584,5.984375,3.046875,3.828125,64
65,1695742422038,0.10449219,-0.9758911,-0.030578613,24.828125,-6.40625,-0.140625,65
66,1695742422078,0.076660156,-0.97052,-0.06939697,0.359375,4.515625,4.53125,66
67,1695742422118,0.11010742,-0.98321533,0.024353027,6.3125,2.03125,4.984375,67
68,1695742422158,0.10473633,-0.98760986,-0.012756348,1.359375,2.296875,1.828125,68
69,1695742422198,0.08251953,-0.9619751,-0.045959473,7.8125,-6.015625,3.296875,69
70,1695742422238,0.13598633,-0.92803955,-0.024719238,-2.5,-1.421875,1.671875,70
71,1695742422278,0.07080078,-0.97784424,-0.06549072,-5.125,-8.8125,1.0625,71
72,1695742422318,0.13720703,-0.98394775,0.030212402,-6.015625,0.125,-0.15625,72
73,1695742422358,0.09716797,-0.93878174,-0.066467285,-9.015625,-12.46875,-4.15625,73
74,1695742422398,0.103027344,-0.9668579,0.04949951,-9.015625,-4.6875,-1.890625,74
75,1695742422438,0.07763672,-0.98101807,-0.009094238,-9.84375,-9.296875,-2.0625,75
76,1695742422478,0.08911133,-1.022522,0.047058105,-7.71875,-4.9375,-2.640625,76
77,1695742422518,0.09033203,-1.000061,0.046081543,-10.484375,-7.0625,-4.265625,77
78,1695742422558,0.07299805,-0.98760986,0.070739746,-8.140625,-6.96875,-4.90625,78
79,1695742422598,0.12866211,-0.97979736,0.07342529,-6.515625,-1.578125,-4.6875,79
80,1695742422638,0.10595703,-0.9849243,0.055358887,-8.640625,-4.140625,-3.921875,80
81,1695742422678,0.05517578,-0.9951782,0.09686279,-8.203125,-1.15625,-2.90625,81
82,1695742422718,0.08251953,-0.986145,0.101501465,-7.140625,-1.3125,-4.34375,82
83,1695742422758,0.04663086,-1.0088501,0.097351074,-6.875,-2.359375,-2.59375,83
84,1695742422798,0.06933594,-0.96832275,0.105163574,-6.59375,0.8125,-2.09375,84
85,1695742422838,0.076416016,-0.97906494,0.11102295,-6.4375,1.15625,-2.90625,85
86,1695742422878,0.046875,-0.9998169,0.14666748,-6.0625,-1.046875,-1.8125,86
87,1695742422918,0.06689453,-0.99053955,0.13812256,-5.15625,-1.96875,-2.34375,87
88,1695742422958,0.07836914,-0.9937134,0.12860107,-4.125,0.8125,-3.390625,88
89,1695742422998,0.07421875,-0.99835205,0.1281128,-4.15625,0.0625,-3.890625,89
90,1695742423038,0.03515625,-1.038147,0.1642456,6.1875,6.109375,-0.5625,90
91,1695742423078,0.04638672,-0.98321533,0.12664795,9.859375,4.28125,2.46875,91
92,1695742423118,0.080322266,-0.96173096,0.11566162,8.328125,4.953125,1.890625,92
93,1695742423158,0.07495117,-0.99591064,0.10394287,8.0625,11.359375,-0.109375,93
94,1695742423198,0.030273438,-1.0042114,0.093688965,9.5625,1.78125,1.84375,94
95,1695742423238,0.068359375,-0.9871216,0.08343506,10.9375,2.890625,2.28125,95
96,1695742423278,0.095703125,-0.960022,0.04852295,9.125,2.296875,-0.34375,96
97,1695742423318,0.06689453,-1.0239868,0.049743652,11.484375,8.21875,3.65625,97
98,1695742423358,0.064941406,-0.9859009,0.0368042,11.46875,9.390625,4.234375,98
99,1695742423398,0.033935547,-0.98223877,0.0014038086,9.8125,-0.53125,3.703125,99
100,1695742423438,0.037597656,-1.0261841,-0.014465332,20.0,9.5625,5.671875,100
101,1695742423478,0.13256836,-0.9663696,0.016052246,7.796875,9.828125,-0.15625,101
102,1695742423518,0.07836914,-0.89801025,-0.061828613,-4.78125,-5.546875,0.46875,102
103,1695742423558,0.087402344,-0.9414673,-0.062561035,-5.25,-6.078125,-0.4375,103
104,1695742423598,0.099365234,-1.0095825,0.027038574,-11.09375,-3.921875,-2.09375,104
105,1695742423638,0.08203125,-0.9558716,-0.032287598,-12.890625,-4.90625,-4.484375,105
106,1695742423678,0.05859375,-0.9741821,-0.002746582,-13.015625,-9.859375,-2.71875,106
107,1695742423718,0.084472656,-1.0046997,0.06463623,-5.71875,-0.640625,-5.40625,107
108,1695742423758,0.07836914,-0.99053955,0.010925293,-5.625,-9.84375,-1.203125,108
109,1695742423798,0.1015625,-0.99346924,0.047790527,-6.109375,-1.09375,-1.90625,109
110,1695742423838,0.08544922,-0.9949341,0.04486084,-6.890625,-2.953125,-2.046875,110
111,1695742423878,0.043945312,-1.0274048,0.09881592,-4.515625,-0.140625,-2.6875,111
112,1695742423918,0.060546875,-0.9536743,0.02142334,-5.171875,-6.328125,-1.8125,112
113,1695742423958,0.08886719,-0.9871216,0.0692749,-5.375,-1.671875,-1.59375,113
114,1695742423998,0.055664062,-0.9990845,0.097595215,-7.875,-1.78125,-3.21875,114
115,1695742424038,0.041259766,-1.0022583,0.07269287,-1.65625,-4.453125,-3.140625,115
116,1695742424078,0.055908203,-0.9924927,0.07196045,0.578125,-1.5625,-1.328125,116
117,1695742424118,0.055664062,-0.9871216,0.09564209,-3.640625,0.90625,-3.734375,117
118,1695742424158,0.041259766,-0.9915161,0.10272217,-5.046875,3.03125,-5.046875,118
119,1695742424198,0.0107421875,-1.0154419,0.090270996,-3.125,-0.875,-3.40625,119
120,1695742424238,0.034179688,-0.99786377,0.10491943,-3.671875,-0.421875,-3.34375,120
121,1695742424278,0.029785156,-0.98272705,0.08123779,-2.140625,0.578125,-3.375,121
122,1695742424318,0.032470703,-1.0164185,0.11004639,2.78125,6.65625,-2.75,122
123,1695742424358,0.020751953,-1.0247192,0.093444824,5.640625,5.6875,-0.1875,123
124,1695742424398,0.0041503906,-1.0022583,0.086364746,6.953125,9.203125,0.34375,124
125,1695742424438,0.030761719,-0.9463501,0.08026123,6.8125,7.484375,-2.671875,125
126,1695742424478,0.00024414062,-1.0151978,0.06121826,9.5,7.8125,1.21875,126
127,1695742424518,0.025878906,-1.005188,0.058044434,3.46875,9.515625,-0.140625,127
128,1695742424558,0.017089844,-0.98516846,0.046569824,11.703125,1.765625,-0.984375,128
129,1695742424598,0.011962891,-0.98321533,0.03387451,6.171875,8.546875,1.5625,129
130,1695742424638,0.05102539,-0.9932251,0.030944824,9.15625,4.078125,3.53125,130
131,1695742424678,0.025146484,-1.003479,0.0065307617,14.890625,-1.40625,1.8125,131
132,1695742424718,0.010253906,-1.0093384,-0.054504395,13.609375,6.515625,6.625,132
133,1695742424758,0.03466797,-0.94976807,-0.011779785,9.015625,1.734375,6.046875,133
134,1695742424798,0.026611328,-0.97857666,-0.05645752,1.96875,-0.703125,1.59375,134
135,1695742424838,0.02758789,-0.9553833,-0.05230713,0.484375,-3.9375,2.6875,135
136,1695742424878,0.030761719,-0.9783325,-0.049865723,-4.75,-3.90625,-0.0625,136
137,1695742424918,0.052978516,-0.9639282,-0.050842285,-7.265625,-6.53125,-0.59375,137
138,1695742424958,0.06616211,-0.97906494,-0.038635254,-8.75,-1.90625,0.109375,138
139,1695742424998,0.0690918,-0.956604,-0.039367676,-12.703125,-4.375,-0.25,139
140,1695742425038,0.027832031,-1.0181274,0.013122559,-7.8125,-8.703125,1.046875,140
141,1695742425078,0.07910156,-1.0049438,0.024597168,-5.125,-0.4375,-0.09375,141
142,1695742425118,0.042236328,-1.0061646,-0.03375244,-9.28125,-9.75,0.28125,142
143,1695742425158,0.064697266,-0.97198486,0.039245605,-6.359375,-3.65625,-2.5625,143
144,1695742425198,0.06933594,-1.0020142,0.04559326,-5.796875,1.0,-1.140625,144
145,1695742425238,0.09448242,-0.9963989,0.012878418,-9.25,-5.15625,-4.328125,145
146,1695742425278,0.08569336,-0.98443604,0.07196045,-6.6875,0.875,-4.59375,146
147,1695742425318,0.014160156,-1.0049438,0.066101074,-1.890625,-1.703125,-3.640625,147
148,1695742425358,0.020751953,-0.9973755,0.04852295,-0.140625,-9.984375,-6.0,148
149,1695742425398,0.040527344,-0.97540283,0.023864746,-0.265625,-3.265625,-3.625,149
150,1695742425438,0.044921875,-0.9939575,0.054138184,-9.796875,4.15625,-2.625,150
151,1695742425478,0.014892578,-1.0183716,0.09320068,-5.046875,0.84375,-1.65625,151
152,1695742425518,0.005859375,-1.008606,0.062438965,-3.3125,0.265625,-2.578125,152
153,1695742425558,0.021484375,-0.9636841,0.06048584,-5.25,0.734375,-2.359375,153
154,1695742425598,0.0234375,-0.97784424,0.0836792,-9.359375,7.75,-0.140625,154
155,1695742425638,0.045410156,-1.019104,0.13031006,-5.5625,8.84375,-2.625,155
156,1695742425678,0.0146484375,-0.99884033,0.09661865,4.9375,1.75,-3.625,156
157,1695742425718,-0.012207031,-1.0059204,0.105163574,4.4375,6.484375,-3.046875,157
158,1695742425758,0.03149414,-0.9758911,0.078308105,3.765625,2.34375,-1.75,158
159,1695742425798,0.013916016,-0.9780884,0.058532715,7.390625,-1.90625,1.15625,159
160,1695742425838,-0.026855469,-1.022522,0.05609131,6.984375,4.0,3.5625,160
161,1695742425878,-0.013427734,-1.006897,0.051452637,4.0625,2.0,5.34375,161
162,1695742425918,0.04296875,-0.9714966,0.0758667,7.84375,2.109375,3.828125,162
163,1695742425958,0.033691406,-0.9949341,0.027526855,15.03125,2.46875,7.296875,163
164,1695742425998,0.030029297,-0.99005127,-0.003479004,7.75,3.203125,6.015625,164
165,1695742426038,0.037109375,-0.991272,-0.013000488,11.265625,-1.21875,3.875,165
166,1695742426078,0.055908203,-0.97906494,-0.030822754,6.203125,4.4375,4.3125,166
167,1695742426118,0.083984375,-1.0037231,0.0067749023,7.984375,3.90625,4.6875,167
168,1695742426158,0.036621094,-0.9795532,-0.02545166,12.421875,-0.4375,2.734375,168
169,1695742426198,0.04321289,-0.958313,-0.08111572,10.421875,-2.15625,2.9375,169
170,1695742426238,0.092041016,-0.93927,-0.07525635,-2.734375,-5.890625,0.8125,170
171,1695742426278,0.072021484,-0.9768677,-0.07086182,-3.265625,-3.28125,0.546875,171
172,1695742426318,0.115234375,-0.9834595,-0.054992676,-7.015625,1.265625,-0.5625,172
173,1695742426358,0.048828125,-0.98028564,-0.019592285,-1.25,-5.984375,-1.15625,173
174,1695742426398,0.057861328,-0.95977783,-0.08111572,-0.703125,-6.46875,-3.734375,174
175,1695742426438,0.018798828,-0.98687744,-0.062072754,-16.125,-0.96875,0.484375,175
176,1695742426478,0.08691406,-1.0337524,0.028015137,-12.203125,-2.765625,-2.5625,176
177,1695742426518,0.1459961,-0.97076416,0.017028809,-7.5625,3.171875,-3.359375,177
178,1695742426558,-0.0024414062,-0.9951782,0.02947998,2.703125,-5.328125,-0.46875,178
179,1695742426598,0.03149414,-0.9463501,-0.050598145,1.3125,-13.390625,-0.21875,179
180,1695742426638,0.075683594,-0.986145,-0.030822754,-15.25,0.984375,0.515625,180
181,1695742426678,0.122802734,-1.0186157,0.06317139,-7.46875,2.078125,-4.015625,181
182,1695742426718,0.052734375,-1.0078735,0.01751709,-7.90625,-0.59375,-2.890625,182
183,1695742426758,0.048095703,-0.9854126,0.030944824,-3.96875,1.796875,-0.265625,183
184,1695742426798,0.0637207,-0.9536743,0.02947998,-4.3125,-4.09375,-3.90625,184
185,1695742426838,0.072753906,-0.98028564,0.034362793,-3.890625,-0.234375,-3.875,185
186,1695742426878,0.028564453,-1.0210571,0.07122803,-7.171875,2.5,-2.90625,186
187,1695742426918,0.045166016,-1.0015259,0.0680542,-4.125,-3.78125,-2.1875,187
188,1695742426958,0.056152344,-0.97979736,0.04510498,-3.796875,-0.78125,-3.03125,188
189,1695742426998,0.025390625,-0.9834595,0.050476074,-2.5625,1.984375,-2.0,189
190,1695742427038,0.029541016,-1.0222778,0.04071045,-2.328125,2.125,0.875,190
191,1695742427078,0.042236328,-1.0481567,0.10491943,-2.203125,7.65625,0.03125,191
192,1695742427118,0.018066406,-0.97369385,0.06756592,7.515625,2.296875,-0.5,192
193,1695742427158,0.053466797,-0.98150635,0.03289795,4.234375,8.703125,0.671875,193
194,1695742427198,0.030517578,-0.9783325,0.066589355,3.609375,4.78125,3.421875,194
195,1695742427238,0.052001953,-1.0012817,0.04144287,5.9375,2.578125,0.390625,195
196,1695742427278,0.049560547,-0.99884033,0.024108887,5.171875,4.75,3.078125,196
197,1695742427318,0.038085938,-0.9824829,0.034362793,8.125,1.125,4.5,197
198,1695742427358,0.07446289,-0.99420166,-6.1035156e-05,6.109375,4.984375,2.34375,198
199,1695742427398,0.05078125,-0.9829712,0.0016479492,4.4375,4.9375,3.546875,199
200,1695742427438,0.052978516,-0.9885864,-0.009094238,2.296875,-0.0625,4.40625,200
201,1695742427478,0.09375,-0.9829712,-0.046203613,6.484375,-2.75,2.34375,201
202,1695742427518,0.09838867,-0.9924927,0.030456543,5.0625,8.5,6.15625,202
203,1695742427558,0.06591797,-0.96710205,-0.047424316,0.078125,0.03125,2.96875,203
204,1695742427598,0.061767578,-0.9397583,-0.06793213,-2.484375,-7.375,1.078125,204
205,1695742427638,0.08325195,-0.9573364,-0.02178955,-2.859375,-1.3125,-1.875,205
206,1695742427678,0.111083984,-0.97003174,0.0079956055,-9.5625,-5.96875,-3.046875,206
207,1695742427718,0.072265625,-0.9873657,0.0067749023,-11.328125,-5.59375,0.09375,207
208,1695742427758,0.09423828,-0.99102783,-0.0032348633,-5.09375,-4.625,-3.125,208
209,1695742427798,0.107666016,-1.0098267,0.042419434,-5.265625,-1.078125,-0.875,209
210,1695742427838,0.07421875,-0.9968872,0.014831543,-4.328125,-4.15625,-3.078125,210
211,1695742427878,0.0949707,-0.9446411,0.018493652,-5.65625,-4.3125,-2.984375,211
212,1695742427918,0.0847168,-0.99957275,0.031921387,-4.4375,-1.65625,-2.34375,212
213,1695742427958,0.072021484,-1.0217896,0.055358887,-5.203125,-0.1875,-3.421875,213
214,1695742427998,0.06567383,-1.00177,0.034851074,-1.1875,-3.734375,-1.53125,214
215,1695742428038,0.091552734,-0.9651489,0.054626465,-0.9375,-2.421875,-2.984375,215
216,1695742428078,0.045654297,-0.9915161,0.05218506,-3.828125,0.78125,-0.625,216
217,1695742428118,0.045410156,-1.02594,0.049743652,-3.859375,1.53125,-0.234375,217
218,1695742428158,0.05883789,-0.9859009,0.042175293,-6.453125,-2.03125,-3.203125,218
219,1695742428198,0.07739258,-0.9824829,0.07342529,-5.40625,2.078125,-3.203125,219
220,1695742428238,0.05834961,-1.0066528,0.07293701,-3.375,1.734375,-0.1875,220
221,1695742428278,0.068847656,-0.98760986,0.07196045,-2.765625,-1.453125,-0.109375,221
222,1695742428318,0.06689453,-1.0003052,0.07220459,0.5625,3.703125,-2.9375,222
223,1695742428358,0.043701172,-1.0349731,0.07293701,0.4375,5.515625,-0.984375,223
224,1695742428398,0.0078125,-0.9846802,0.08929443,5.4375,4.546875,0.03125,224
225,1695742428438,0.032470703,-0.96881104,0.026794434,7.125,2.734375,1.0625,225
226,1695742428478,0.059570312,-0.9673462,0.04901123,3.125,7.765625,2.0625,226
227,1695742428518,0.046142578,-1.0171509,0.043151855,3.203125,6.65625,2.625,227
228,1695742428558,0.060302734,-1.0012817,0.051452637,4.171875,6.171875,2.78125,228
229,1695742428598,0.06738281,-0.9768677,0.012145996,2.21875,8.03125,1.625,229
230,1695742428638,0.04638672,-0.9819946,0.030456543,2.84375,7.21875,1.609375,230
231,1695742428678,0.061767578,-0.98394775,0.039001465,4.03125,5.125,3.828125,231
232,1695742428718,0.07348633,-0.98443604,0.0099487305,4.21875,3.21875,1.328125,232
233,1695742428758,0.0859375,-0.97442627,0.007507324,2.0625,4.328125,0.4375,233
234,1695742428798,0.072753906,-0.97979736,0.013122559,2.5625,3.390625,2.296875,234
235,1695742428838,0.08496094,-0.9710083,-0.0010375977,1.109375,0.015625,2.484375,235
236,1695742428878,0.09692383,-0.9846802,0.010437012,4.109375,-0.859375,1.9375,236
237,1695742428918,0.08203125,-0.9590454,-0.0056762695,2.609375,-1.578125,-0.625,237
238,1695742428958,0.052734375,-0.97003174,-0.016662598,0.0,-4.828125,0.59375,238
239,1695742428998,0.08959961,-0.9402466,-0.032043457,0.34375,-3.109375,-1.828125,239
240,1695742429038,0.079833984,-0.96295166,-0.023986816,-10.015625,-8.46875,-4.5625,240
241,1695742429078,0.06225586,-0.9768677,0.01776123,-8.203125,-12.015625,-1.78125,241
242,1695742429118,0.12475586,-1.0037231,0.039001465,-5.9375,-2.390625,-1.453125,242
243,1695742429158,0.115234375,-1.0164185,0.04095459,-5.84375,-0.921875,0.546875,243
244,1695742429198,0.07739258,-0.9824829,0.012634277,-3.546875,-3.96875,-5.09375,244
245,1695742429238,0.036376953,-0.9771118,0.012634277,0.0625,-2.46875,-1.125,245
246,1695742429278,0.05908203,-0.9956665,0.051452637,-2.203125,-2.6875,-2.15625,246
247,1695742429318,0.091552734,-1.0071411,0.05316162,-5.71875,-4.390625,-4.25,247
248,1695742429358,0.05053711,-0.9949341,0.020690918,-0.625,-0.390625,-4.25,248
249,1695742429398,0.016601562,-0.9998169,0.018249512,-6.546875,3.5625,-2.796875,249
250,1695742429438,0.049072266,-0.9776001,0.07269287,-7.65625,1.921875,-2.796875,250
251,1695742429478,0.061035156,-0.9927368,0.058776855,-4.765625,-0.0625,-3.90625,251
252,1695742429518,0.04296875,-0.99005127,0.07928467,-9.3125,6.125,-1.40625,252
253,1695742429558,0.02734375,-1.013977,0.066833496,-2.421875,-1.203125,-0.875,253
254,1695742429598,0.041259766,-0.9758911,0.074157715,-7.671875,3.03125,-2.015625,254
255,1695742429638,0.033203125,-1.0088501,0.101501465,-2.453125,2.875,-1.875,255
256,1695742429678,0.057617188,-0.9927368,0.093688965,-1.734375,2.53125,0.125,256
257,1695742429718,0.044921875,-0.99420166,0.08905029,1.5,0.84375,-0.265625,257
258,1695742429758,0.015380859,-1.0166626,0.074401855,2.328125,4.75,2.25,258
259,1695742429798,0.0715332,-0.9907837,0.09051514,5.328125,6.78125,1.546875,259
260,1695742429838,0.036621094,-0.9837036,0.070739746,13.28125,7.625,3.15625,260
261,1695742429878,0.049316406,-1.0005493,0.05218506,9.59375,6.71875,6.40625,261
262,1695742429918,0.036865234,-0.98321533,-0.002746582,15.515625,-0.890625,2.125,262
263,1695742429958,0.064941406,-0.9805298,0.010681152,-1.109375,8.671875,2.265625,263
264,1695742429998,0.08666992,-0.98931885,0.041931152,6.765625,4.296875,2.3125,264
265,1695742430038,0.06347656,-1.0112915,0.0038452148,8.90625,3.859375,3.203125,265
266,1695742430078,0.06933594,-0.97491455,-0.037902832,7.34375,4.078125,1.984375,266
267,1695742430118,0.04321289,-0.95684814,-0.04425049,5.6875,1.875,1.75,267
268,1695742430158,0.07714844,-0.9651489,-0.031555176,0.8125,0.578125,1.828125,268
269,1695742430198,0.09692383,-0.9998169,-0.01373291,1.90625,-0.9375,1.09375,269
270,1695742430238,0.078125,-0.9649048,-0.02911377,-0.421875,-0.21875,1.453125,270
271,1695742430278,0.07763672,-0.9553833,-0.07867432,-3.484375,-6.59375,-0.703125,271
272,1695742430318,0.10473633,-0.97540283,-0.031799316,-1.140625,-2.4375,-2.28125,272
273,1695742430358,0.09106445,-0.9639282,-0.05230713,-4.53125,-4.125,-1.5,273
274,1695742430398,0.07006836,-0.9788208,0.0138549805,-4.828125,0.25,0.359375,274
275,1695742430438,0.052001953,-0.98443604,-0.031799316,-3.34375,-5.171875,0.28125,275
276,1695742430478,0.057861328,-0.9985962,-0.0005493164,-5.328125,-4.859375,-0.09375,276
277,1695742430518,0.10546875,-0.9495239,-0.030334473,-10.546875,-6.1875,-4.125,277
278,1695742430558,0.087890625,-1.0095825,0.016540527,-11.3125,-6.75,-5.375,278
279,1695742430598,0.07055664,-1.0281372,0.07562256,-5.953125,0.125,-1.921875,279
280,1695742430638,0.076171875,-0.9924927,0.016784668,-5.0625,-3.734375,-1.21875,280
281,1695742430678,0.07763672,-0.94537354,0.024841309,-4.8125,-0.828125,-3.3125,281
282,1695742430718,0.072753906,-0.9871216,0.026550293,-5.203125,-1.953125,-1.765625,282
283,1695742430758,0.07543945,-1.0056763,0.06585693,-5.109375,-0.546875,-2.609375,283
284,1695742430798,0.060058594,-1.0105591,0.048034668,-3.421875,-1.046875,-2.0625,284
285,1695742430838,0.045898438,-0.95806885,0.057800293,-1.3125,2.25,0.03125,285
286,1695742430878,0.030517578,-0.99713135,0.0446167,-1.59375,0.5,1.53125,286
287,1695742430918,0.051757812,-0.9837036,0.06976318,-2.015625,-2.453125,-0.375,287
288,1695742430958,0.08105469,-0.9805298,0.04925537,-1.671875,-1.4375,-0.359375,288
289,1695742430998,0.07006836,-1.0115356,0.06561279,0.078125,1.671875,0.46875,289
290,1695742431038,0.06347656,-1.0083618,0.070007324,0.75,1.984375,1.859375,290
291,1695742431078,0.049072266,-1.0029907,0.06097412,2.671875,2.140625,0.8125,291
292,1695742431118,0.048095703,-0.9920044,0.039001465,5.5,8.1875,1.921875,292
293,1695742431158,0.08496094,-0.98760986,0.038024902,2.53125,5.546875,1.328125,293
294,1695742431198,0.076416016,-0.98883057,0.035095215,5.28125,5.984375,1.390625,294
295,1695742431238,0.063964844,-1.0005493,0.04095459,4.953125,7.265625,2.703125,295
296,1695742431278,0.0859375,-0.98883057,0.019714355,3.59375,5.171875,1.265625,296
297,1695742431318,0.09082031,-0.9800415,0.008728027,4.921875,4.890625,1.125,297
298,1695742431358,0.08276367,-0.9968872,0.010925293,4.03125,5.640625,3.109375,298
299,1695742431398,0.06201172,-0.9837036,-0.0005493164,4.140625,0.75,1.265625,299
300,1695742431438,0.10839844,-1.0061646,-0.023010254,6.75,4.5,2.4375,300
301,1695742431478,0.09765625,-0.9915161,-0.020568848,4.640625,6.09375,2.0,301
302,1695742431518,0.095214844,-0.9595337,-0.030334473,4.6875,5.5,2.4375,302
303,1695742431558,0.075683594,-0.95440674,-0.016418457,1.625,0.40625,3.515625,303
304,1695742431598,0.099365234,-0.9385376,-0.03375244,-2.109375,-4.15625,0.984375,304
305,1695742431638,0.07446289,-0.97540283,-0.04888916,-2.515625,-7.140625,2.25,305
306,1695742431678,0.11645508,-0.9795532,-0.029846191,-7.015625,-6.28125,-0.484375,306
307,1695742431718,0.12133789,-0.97906494,0.019958496,-7.796875,-1.296875,-0.46875,307
308,1695742431758,0.07446289,-0.9241333,-0.05255127,-11.265625,-13.53125,-0.875,308
309,1695742431798,0.13085938,-0.9678345,0.01751709,-7.578125,-4.71875,-2.046875,309
310,1695742431838,0.1394043,-1.0232544,0.062438965,-6.46875,2.953125,2.09375,310
311,1695742431878,0.053466797,-0.98565674,-0.02154541,-9.515625,-7.796875,-0.171875,311
312,1695742431918,0.13305664,-0.9673462,0.038269043,-4.390625,-3.34375,-1.4375,312
313,1695742431958,0.12573242,-1.0015259,0.07513428,-4.34375,1.703125,-1.6875,313
314,1695742431998,0.10131836,-0.98272705,0.039001465,-6.15625,-6.953125,-2.546875,314
315,1695742432038,0.1159668,-0.9668579,0.05633545,-2.984375,-2.90625,-0.78125,315
316,1695742432078,0.11303711,-0.98638916,0.057800293,-3.28125,0.484375,-1.09375,316
317,1695742432118,0.096191406,-0.98638916,0.06072998,-4.140625,-3.8125,-3.6875,317
318,1695742432158,0.08325195,-0.9898071,0.06561279,-0.90625,-4.03125,-3.109375,318
319,1695742432198,0.10253906,-0.98516846,0.07537842,-0.84375,0.40625,-0.921875,319
320,1695742432238,0.08544922,-0.9685669,0.06439209,-3.03125,-4.734375,-2.03125,320
321,1695742432278,0.08203125,-0.98565674,0.06756592,-2.5625,-1.3125,-2.0625,321
322,1695742432318,0.076660156,-1.0054321,0.078308105,-4.0,0.78125,-1.796875,322
323,1695742432358,0.10839844,-0.9727173,0.08880615,-3.21875,-0.234375,-1.96875,323
324,1695742432398,0.0949707,-1.0088501,0.0692749,-0.9375,4.734375,-1.578125,324
325,1695742432438,0.1015625,-1.0181274,0.049743652,1.3125,7.234375,-2.109375,325
326,1695742432478,0.052734375,-0.9866333,0.093444824,6.78125,7.078125,2.328125,326
327,1695742432518,0.088378906,-0.98638916,0.05731201,7.21875,8.59375,2.578125,327
328,1695742432558,0.09448242,-0.9883423,0.05731201,8.734375,3.0625,0.40625,328
329,1695742432598,0.036376953,-0.98638916,0.010925293,13.15625,4.765625,1.890625,329
330,1695742432638,0.13134766,-0.9949341,0.028259277,-3.734375,17.921875,5.421875,330
331,1695742432678,0.091552734,-0.9758911,0.054382324,9.328125,0.40625,0.15625,331
332,1695742432718,0.06323242,-0.9602661,-0.018127441,6.484375,5.125,4.390625,332
333,1695742432758,0.12915039,-0.9963989,0.018981934,5.796875,5.140625,3.09375,333
334,1695742432798,0.091796875,-0.95147705,-0.0051879883,2.734375,-1.421875,-0.25,334
335,1695742432838,0.095458984,-0.97491455,-0.039611816,5.734375,-0.859375,2.765625,335
336,1695742432878,0.13720703,-1.0059204,-0.0056762695,0.546875,3.578125,1.859375,336
337,1695742432918,0.08251953,-0.96759033,-0.026916504,2.46875,-2.015625,0.75,337
338,1695742432958,0.10229492,-0.9631958,-0.030090332,0.515625,0.609375,1.375,338
339,1695742432998,0.122802734,-0.94732666,-0.04058838,-1.09375,-6.421875,-2.171875,339
340,1695742433038,0.13647461,-0.9678345,-0.010070801,-3.671875,-2.515625,-0.21875,340
341,1695742433078,0.12792969,-0.97076416,-0.012023926,-5.71875,-2.015625,-1.703125,341
342,1695742433118,0.096191406,-0.9631958,-0.016418457,-7.0625,-7.546875,-2.296875,342
343,1695742433158,0.09887695,-0.9741821,-0.0012817383,-7.6875,-8.078125,-2.34375,343
344,1695742433198,0.1274414,-0.99713135,0.015563965,-6.625,-6.5,-5.0625,344
345,1695742433238,0.091308594,-1.010315,0.03314209,-8.078125,-3.96875,-1.640625,345
346,1695742433278,0.08081055,-0.98809814,0.031677246,-7.546875,-7.40625,-2.078125,346
347,1695742433318,0.12890625,-0.9795532,0.030944824,-4.0625,-2.6875,-1.609375,347
348,1695742433358,0.13354492,-1.0010376,0.034851074,-5.140625,-0.765625,-2.140625,348
349,1695742433398,0.11254883,-0.97784424,0.038024902,-6.53125,-0.171875,-3.0625,349
350,1695742433438,0.06982422,-0.98223877,0.066589355,-4.15625,0.9375,-2.578125,350
351,1695742433478,0.06762695,-0.99420166,0.042419434,-3.875,-3.234375,-2.359375,351
352,1695742433518,0.10595703,-0.9800415,0.062927246,-4.59375,-0.078125,-3.09375,352
353,1695742433558,0.07104492,-0.98931885,0.07318115,-4.78125,2.671875,-3.15625,353
354,1695742433598,0.044677734,-1.0093384,0.08392334,-6.40625,-1.234375,-3.421875,354
355,1695742433638,0.08081055,-0.96221924,0.07904053,-6.21875,-1.265625,-3.28125,355
356,1695742433678,0.0859375,-0.9834595,0.08831787,-3.5625,1.59375,-3.953125,356
357,1695742433718,0.068603516,-0.9993286,0.09954834,-5.515625,1.0625,-3.71875,357
358,1695742433758,0.06201172,-0.97979736,0.090026855,-4.0,-1.0625,-2.671875,358
359,1695742433798,0.10571289,-1.0186157,0.09979248,2.21875,4.34375,-2.5,359
360,1695742433838,0.053955078,-1.0120239,0.101257324,1.78125,8.5,-1.9375,360
361,1695742433878,0.040039062,-0.96832275,0.09832764,6.90625,4.28125,-0.4375,361
362,1695742433918,0.032958984,-0.9837036,0.070495605,3.1875,4.734375,0.546875,362
363,1695742433958,0.08300781,-0.9824829,0.09881592,0.40625,7.0,-1.34375,363
364,1695742433998,0.040527344,-0.99591064,0.070495605,5.65625,3.71875,0.078125,364
365,1695742434038,0.04321289,-1.0239868,0.06390381,5.578125,6.296875,1.171875,365
366,1695742434078,0.07299805,-0.9680786,0.05706787,5.125,4.0,0.890625,366
367,1695742434118,0.088134766,-0.9624634,0.04901123,6.1875,2.75,1.296875,367
368,1695742434158,0.04711914,-1.000061,0.0289917,5.375,4.015625,4.953125,368
369,1695742434198,0.07397461,-1.0195923,0.03289795,4.109375,3.84375,2.015625,369
370,1695742434238,0.055664062,-0.99468994,0.0079956055,8.3125,3.375,2.09375,370
371,1695742434278,0.07128906,-0.9624634,0.016296387,4.578125,4.921875,1.9375,371
372,1695742434318,0.080322266,-0.9492798,-0.003479004,1.703125,-1.53125,1.890625,372
373,1695742434358,0.07910156,-0.95684814,-0.0049438477,-1.0625,-3.609375,1.203125,373
374,1695742434398,0.09741211,-0.9985962,0.010925293,-2.390625,-5.375,-0.421875,374
375,1695742434438,0.068359375,-0.9866333,0.031433105,-3.140625,-2.734375,0.0,375
376,1695742434478,0.06982422,-0.9561157,0.0065307617,-6.1875,-9.359375,-1.0625,376
377,1695742434518,0.072021484,-0.97442627,0.020935059,-6.09375,-9.09375,-1.40625,377
378,1695742434558,0.0847168,-1.0132446,0.04486084,-7.453125,-5.171875,-0.53125,378
379,1695742434598,0.055419922,-1.0054321,0.034851074,-9.234375,-9.0625,-1.828125,379
380,1695742434638,0.107177734,-0.9656372,0.047302246,-6.265625,-5.1875,-2.6875,380
381,1695742434678,0.079589844,-1.006897,0.09075928,-5.453125,-0.53125,-0.15625,381
382,1695742434718,0.08691406,-0.9768677,0.08416748,-6.015625,-4.328125,-2.765625,382
383,1695742434758,0.08251953,-0.9990845,0.07293701,-4.375,-4.78125,-4.453125,383
384,1695742434798,0.056884766,-0.9968872,0.09075928,-1.671875,-1.703125,-4.09375,384
385,1695742434838,0.061523438,-0.99664307,0.07196045,-3.125,-4.90625,-6.03125,385
386,1695742434878,0.052001953,-1.0234985,0.09613037,-3.421875,0.515625,-3.375,386
387,1695742434918,0.03955078,-0.9883423,0.08709717,-3.15625,-3.65625,-3.09375,387
388,1695742434958,0.041015625,-0.96466064,0.0914917,-7.25,2.265625,-2.96875,388
389,1695742434998,0.040039062,-0.99786377,0.10443115,-5.046875,0.390625,-1.65625,389
390,1695742435038,0.05126953,-1.0042114,0.11883545,-7.078125,0.015625,-1.859375,390
391,1695742435078,0.049072266,-0.9924927,0.12200928,-3.5,-0.03125,-1.734375,391
392,1695742435118,0.048095703,-0.98931885,0.1239624,-4.3125,1.25,-1.625,392
393,1695742435158,0.045898438,-0.99835205,0.14447021,2.78125,6.578125,0.75,393
394,1695742435198,0.02709961,-1.0110474,0.113464355,7.890625,3.9375,0.703125,394
395,1695742435238,0.037353516,-0.98516846,0.09881592,8.5,3.390625,1.71875,395
396,1695742435278,0.024169922,-0.9639282,0.08660889,9.296875,4.34375,2.78125,396
397,1695742435318,0.075683594,-0.9961548,0.09613037,3.234375,5.5,2.8125,397
398,1695742435358,0.0390625,-1.0056763,0.097839355,11.6875,0.28125,0.03125,398
399,1695742435398,0.008544922,-1.00177,0.017028809,13.65625,3.609375,2.265625,399
400,1695742435438,0.09399414,-1.0254517,0.029968262,4.578125,7.078125,4.25,400
401,1695742435478,0.041748047,-0.9729614,0.001159668,13.8125,2.953125,2.796875,401
402,1695742435518,0.071777344,-0.9746704,0.002380371,9.21875,9.84375,2.28125,402
403,1695742435558,0.056396484,-0.94317627,-0.0071411133,2.59375,2.84375,1.28125,403
404,1695742435598,0.04711914,-0.9697876,-0.003479004,3.78125,-1.203125,1.59375,404
405,1695742435638,0.08129883,-1.0108032,0.006286621,-1.09375,3.734375,1.171875,405
406,1695742435678,0.05078125,-0.95196533,-0.002746582,-1.59375,-5.421875,-1.4375,406
407,1695742435718,0.060058594,-0.9631958,-0.031799316,-3.03125,-7.53125,-2.234375,407
408,1695742435758,0.067871094,-1.0039673,-0.0068969727,-4.34375,0.703125,-1.640625,408
409,1695742435798,0.05493164,-0.96173096,0.0079956055,-10.78125,-5.53125,-3.703125,409
410,1695742435838,0.03466797,-0.956604,-0.006652832,-11.109375,-15.140625,-5.25,410
411,1695742435878,0.048583984,-0.98883057,0.035095215,-7.328125,-5.625,-0.625,411
412,1695742435918,0.1352539,-1.0581665,0.082458496,-5.96875,0.484375,-1.625,412
413,1695742435958,0.07763672,-0.9824829,0.03753662,-8.078125,-3.296875,-1.640625,413
414,1695742435998,0.032470703,-0.9612427,0.04925537,-6.265625,-1.75,-0.890625,414
415,1695742436038,0.047607422,-1.0020142,0.0770874,-4.8125,-1.875,-2.40625,415
416,1695742436078,0.083740234,-1.0073853,0.07635498,-4.921875,-2.875,-2.1875,416
417,1695742436118,0.064208984,-0.9873657,0.077819824,-6.5625,-0.296875,-3.671875,417
418,1695742436158,0.024414062,-0.9932251,0.08074951,-3.75,-0.734375,-3.59375,418
419,1695742436198,0.010009766,-0.9932251,0.09979248,-3.4375,-3.890625,-4.859375,419
420,1695742436238,0.041503906,-0.98687744,0.08123779,-5.90625,-1.359375,-4.65625,420
421,1695742436278,0.038330078,-1.0003052,0.105895996,-7.90625,4.109375,-2.171875,421
422,1695742436318,0.013183594,-0.9885864,0.117614746,-2.703125,-2.5,-0.75,422
423,1695742436358,0.023925781,-0.98638916,0.08782959,-5.5625,-0.15625,-2.421875,423
424,1695742436398,0.032958984,-1.0120239,0.13201904,-3.515625,3.25,-1.265625,424
425,1695742436438,0.0087890625,-0.98394775,0.1005249,-1.984375,-1.875,-0.75,425
426,1695742436478,0.049560547,-0.9898071,0.12835693,-3.1875,6.890625,0.296875,426
427,1695742436518,0.0014648438,-1.0176392,0.124694824,3.421875,3.515625,1.546875,427
428,1695742436558,0.008544922,-1.0239868,0.13201904,5.296875,6.203125,0.703125,428
429,1695742436598,0.02734375,-0.9492798,0.08416748,6.046875,3.296875,1.03125,429
430,1695742436638,0.024169922,-0.99298096,0.08929443,5.515625,4.671875,3.296875,430
431,1695742436678,0.052978516,-0.9937134,0.09906006,4.171875,2.703125,2.65625,431
432,1695742436718,0.04321289,-1.0059204,0.07122803,6.78125,3.15625,3.890625,432
433,1695742436758,0.057617188,-0.9824829,0.08880615,2.8125,6.984375,1.96875,433
434,1695742436798,0.022705078,-1.0059204,0.05682373,9.703125,3.8125,3.140625,434
435,1695742436838,0.028320312,-0.97906494,0.042419434,0.734375,2.390625,3.265625,435
436,1695742436878,0.07080078,-1.005188,0.03704834,3.6875,2.90625,2.890625,436
437,1695742436918,0.080078125,-0.99005127,0.07635498,-0.5,5.859375,2.296875,437
438,1695742436958,0.07080078,-0.9536743,0.035583496,0.4375,-4.5625,1.625,438
439,1695742436998,0.0769043,-0.9817505,0.055847168,-0.90625,-1.890625,0.84375,439
440,1695742437038,0.050048828,-0.9951782,0.053649902,0.796875,-8.046875,0.5625,440
441,1695742437078,0.07373047,-0.98394775,0.025817871,2.375,-11.359375,-1.15625,441
442,1695742437118,0.084472656,-0.9824829,0.04852295,-4.5625,-4.5625,-1.953125,442
443,1695742437158,0.067871094,-0.9351196,0.02142334,-9.125,-11.25,-4.046875,443
444,1695742437198,0.030273438,-1.0076294,0.0848999,-9.765625,-6.625,0.59375,444
445,1695742437238,0.06542969,-0.9949341,0.078063965,-6.671875,-9.34375,-2.296875,445
446,1695742437278,0.079589844,-1.0073853,0.09100342,-4.390625,-5.953125,-2.140625,446
447,1695742437318,0.026123047,-0.9956665,0.093688965,-3.265625,-3.328125,1.890625,447
448,1695742437358,0.050048828,-0.94903564,0.053649902,-9.609375,-10.03125,-0.828125,448
449,1695742437398,0.052978516,-0.9956665,0.109802246,-7.140625,-1.046875,1.484375,449
450,1695742437438,0.08227539,-1.0115356,0.14642334,-7.984375,1.9375,1.078125,450
451,1695742437478,0.060058594,-0.9990845,0.14007568,-7.21875,1.5,0.75,451
452,1695742437518,0.056640625,-0.9680786,0.13787842,-4.421875,0.890625,0.40625,452
453,1695742437558,0.068847656,-0.987854,0.137146,-4.34375,-0.78125,-0.453125,453
454,1695742437598,0.0847168,-1.0149536,0.1437378,-5.25,2.4375,-1.25,454
455,1695742437638,0.057373047,-0.9873657,0.16912842,-3.046875,1.78125,-3.28125,455
456,1695742437678,0.052490234,-0.9702759,0.1408081,-2.359375,1.421875,-4.453125,456
457,1695742437718,0.031982422,-0.9834595,0.14105225,-4.984375,2.171875,-0.859375,457
458,1695742437758,0.06201172,-0.9866333,0.17230225,-3.84375,1.125,-1.0625,458
459,1695742437798,0.056884766,-1.0076294,0.15618896,-1.796875,6.0625,1.109375,459
460,1695742437838,0.06225586,-1.0044556,0.18011475,1.125,8.65625,-0.296875,460
461,1695742437878,0.045410156,-0.97320557,0.14593506,6.078125,2.5,-0.859375,461
462,1695742437918,0.024658203,-0.9915161,0.11273193,6.78125,3.6875,3.140625,462
463,1695742437958,0.13134766,-1.0078735,0.1618042,-3.65625,14.546875,1.578125,463
464,1695742437998,0.0793457,-0.9854126,0.16229248,13.25,-0.453125,-0.484375,464
465,1695742438038,0.032226562,-0.9927368,0.07293701,10.828125,7.6875,2.0625,465
466,1695742438078,0.06982422,-0.9883423,0.12835693,-0.375,9.875,2.828125,466
467,1695742438118,0.047607422,-0.9768677,0.10369873,11.59375,-4.203125,1.734375,467
468,1695742438158,0.111328125,-1.0186157,0.022888184,6.015625,7.34375,4.734375,468
469,1695742438198,0.115234375,-0.99053955,0.13983154,1.25,10.953125,5.296875,469
470,1695742438238,0.08569336,-0.9627075,0.08685303,20.625,-8.0625,2.875,470
471,1695742438278,0.06225586,-0.98760986,-0.04425049,11.921875,2.046875,4.765625,471
472,1695742438318,0.099853516,-1.0073853,0.055847168,0.359375,7.328125,7.0,472
473,1695742438358,0.13500977,-0.98565674,0.06561279,13.375,-1.1875,3.5625,473
474,1695742438398,0.091796875,-0.96221924,-0.024719238,1.0625,-2.125,2.28125,474
475,1695742438438,0.11767578,-0.95880127,0.04095459,0.53125,-0.703125,1.25,475
476,1695742438478,0.11791992,-0.93634033,-0.04083252,-3.515625,-14.28125,-1.234375,476
477,1695742438518,0.12988281,-0.975647,0.028259277,-4.671875,-4.34375,0.59375,477
478,1695742438558,0.11425781,-0.9837036,0.07537842,-15.390625,-1.328125,-1.71875,478
479,1695742438598,0.07543945,-0.96661377,-0.022277832,-15.015625,-19.15625,-1.5,479
480,1695742438638,0.18725586,-0.99835205,0.113708496,-1.359375,8.359375,-1.546875,480
481,1695742438678,0.119140625,-1.0247192,0.07635498,-11.53125,-4.75,-1.96875,481
482,1695742438718,0.04248047,-0.9585571,0.090270996,-6.3125,-6.53125,1.609375,482
483,1695742438758,0.1586914,-0.9710083,0.06732178,-5.96875,-1.703125,-1.65625,483
484,1695742438798,0.11010742,-0.9973755,0.0914917,-8.140625,-4.953125,-4.625,484
485,1695742438838,0.11645508,-0.9885864,0.13250732,-4.03125,-0.921875,-1.0625,485
486,1695742438878,0.09838867,-0.9793091,0.10418701,-5.375,-3.21875,-2.71875,486
487,1695742438918,0.111328125,-0.97857666,0.12371826,-4.609375,-7.125,-3.921875,487
488,1695742438958,0.123291016,-0.99957275,0.12298584,-3.78125,-2.625,-2.234375,488
489,1695742438998,0.07885742,-0.98883057,0.12005615,-2.828125,-0.9375,-2.71875,489
490,1695742439038,0.08227539,-0.97247314,0.12664795,-7.40625,-1.59375,-3.1875,490
491,1695742439078,0.087890625,-0.9890747,0.13787842,-3.609375,-0.59375,-2.40625,491
492,1695742439118,0.07080078,-0.9873657,0.1515503,-5.578125,1.21875,-2.4375,492
493,1695742439158,0.07861328,-0.975647,0.17108154,-3.359375,1.15625,-3.0625,493
494,1695742439198,0.0703125,-0.9920044,0.13397217,-4.078125,3.8125,-2.609375,494
495,1695742439238,0.06762695,-0.9985962,0.15423584,0.1875,4.40625,-1.40625,495
496,1695742439278,0.10107422,-0.98565674,0.1708374,-1.34375,9.609375,-0.484375,496
497,1695742439318,0.072753906,-1.0110474,0.19134521,9.015625,5.734375,-0.90625,497
498,1695742439358,0.037841797,-0.9619751,0.10345459,9.15625,0.703125,-2.78125,498
499,1695742439398,0.06738281,-0.97735596,0.09564209,-3.40625,8.015625,-0.5,499
500,1695742439438,0.08935547,-1.0025024,0.16986084,3.03125,2.65625,-0.40625,500
501,1695742439478,0.0703125,-1.003479,0.11395264,5.25,5.03125,-0.90625,501
502,1695742439518,0.099609375,-0.9776001,0.116882324,1.53125,5.671875,-2.28125,502
503,1695742439558,0.022216797,-0.96417236,0.09954834,9.8125,-1.4375,-2.515625,503
504,1695742439598,0.046875,-0.9788208,0.06854248,-3.28125,4.75,0.09375,504
505,1695742439638,0.099121094,-1.0098267,0.15618896,-3.1875,5.078125,0.140625,505
506,1695742439678,0.078125,-0.973938,0.09906006,6.796875,-6.171875,-3.359375,506
507,1695742439718,0.076171875,-0.9834595,0.08148193,1.484375,1.875,-0.34375,507
508,1695742439758,0.0690918,-0.98638916,0.112976074,3.4375,-1.140625,-0.21875,508
509,1695742439798,0.064697266,-0.99005127,0.08074951,0.203125,-4.359375,0.6875,509
510,1695742439838,0.08642578,-0.96295166,0.07733154,-0.5625,-6.90625,-1.34375,510
511,1695742439878,0.076171875,-0.9783325,0.08392334,-2.71875,-6.5,-1.375,511
512,1695742439918,0.07348633,-0.98223877,0.10858154,-4.984375,-5.953125,-0.4375,512
513,1695742439958,0.043701172,-0.97735596,0.101745605,-5.796875,-9.546875,-1.046875,513
514,1695742439998,0.048339844,-1.000061,0.1251831,-3.84375,-5.40625,-0.53125,514
515,1695742440038,0.060791016,-1.0012817,0.120788574,-3.578125,-4.75,0.28125,515
516,1695742440078,0.041748047,-0.99957275,0.10491943,-4.390625,-10.28125,-1.109375,516
517,1695742440118,0.091796875,-0.9776001,0.14202881,-7.390625,-2.328125,-1.171875,517
518,1695742440158,0.05908203,-0.9985962,0.14569092,-6.46875,-2.890625,-5.6875,518
519,1695742440198,0.019042969,-1.017395,0.13739014,-4.796875,-3.84375,-2.046875,519
520,1695742440238,0.06225586,-0.99224854,0.14569092,-10.015625,1.421875,-2.78125,520
521,1695742440278,0.04248047,-0.9812622,0.15692139,-6.1875,-0.34375,-2.734375,521
522,1695742440318,0.06762695,-0.99102783,0.19329834,-8.0,1.046875,-3.25,522
523,1695742440358,0.0041503906,-0.99224854,0.1762085,-4.265625,-0.609375,-4.40625,523
524,1695742440398,0.0021972656,-0.98687744,0.17279053,-5.09375,-0.46875,-2.546875,524
525,1695742440438,0.019042969,-0.9692993,0.18133545,-6.90625,0.015625,-2.3125,525
526,1695742440478,0.028076172,-0.98394775,0.20697021,-5.015625,1.609375,-3.21875,526
527,1695742440518,0.010498047,-0.987854,0.19940186,-2.84375,1.875,-1.84375,527
528,1695742440558,0.041992188,-0.98321533,0.20648193,1.4375,6.4375,1.125,528
529,1695742440598,0.010253906,-1.0066528,0.18304443,1.453125,1.984375,2.3125,529
530,1695742440638,0.057373047,-0.9746704,0.20306396,4.0,7.84375,1.625,530
531,1695742440678,0.018798828,-0.9819946,0.19940186,8.46875,4.953125,2.484375,531
532,1695742440718,0.009521484,-0.9998169,0.15350342,6.859375,1.109375,2.484375,532
533,1695742440758,0.060791016,-0.98638916,0.16107178,2.484375,8.0,2.03125,533
534,1695742440798,0.016845703,-0.9873657,0.18182373,10.0625,2.046875,3.1875,534
535,1695742440838,0.057617188,-1.0007935,0.11126709,8.8125,4.328125,3.4375,535
536,1695742440878,0.07055664,-0.9812622,0.152771,2.0625,7.9375,1.78125,536
537,1695742440918,0.041259766,-0.9734497,0.14813232,10.8125,-1.9375,2.078125,537
538,1695742440958,0.06982422,-0.9968872,0.09295654,3.03125,6.0,2.109375,538
539,1695742440998,0.05493164,-0.99346924,0.13690186,9.296875,-1.875,0.34375,539
540,1695742441038,0.046142578,-1.0032349,0.042419434,7.25,1.28125,1.671875,540
541,1695742441078,0.095214844,-0.9788208,0.12347412,0.125,3.828125,2.515625,541
542,1695742441118,0.046875,-0.9834595,0.059509277,3.296875,-4.203125,2.5,542
543,1695742441158,0.08300781,-0.97247314,0.06903076,-1.109375,-1.9375,2.921875,543
544,1695742441198,0.0769043,-0.98931885,0.093444824,-2.6875,0.078125,0.75,544
545,1695742441238,0.07080078,-0.99176025,0.08709717,-1.796875,-2.046875,1.09375,545
546,1695742441278,0.07885742,-0.97369385,0.07659912,-1.09375,-2.640625,-0.1875,546
547,1695742441318,0.064941406,-0.956604,0.07269287,-4.21875,-6.125,-2.375,547
548,1695742441358,0.057128906,-0.9859009,0.1149292,-5.84375,-6.5,-0.9375,548
549,1695742441398,0.068847656,-1.0149536,0.11566162,-5.84375,-6.765625,-0.390625,549
550,1695742441438,0.12402344,-1.0076294,0.12542725,-6.9375,3.25,-2.21875,550
551,1695742441478,0.0690918,-0.9768677,0.12567139,-4.6875,-5.890625,-4.109375,551
552,1695742441518,0.02319336,-0.9846802,0.097839355,-6.75,-8.046875,-0.40625,552
553,1695742441558,0.11230469,-0.989563,0.12322998,-4.421875,-5.25,-2.421875,553
554,1695742441598,0.095214844,-1.0144653,0.1642456,-3.640625,-0.046875,-1.125,554
555,1695742441638,0.051513672,-0.99176025,0.14349365,-2.140625,-1.3125,-0.78125,555
556,1695742441678,0.025878906,-0.9846802,0.11151123,-4.75,-1.75,-1.796875,556
557,1695742441718,0.059570312,-0.97369385,0.14129639,-6.046875,0.1875,-3.5,557
558,1695742441758,0.05883789,-0.989563,0.16326904,-5.5625,2.375,-1.15625,558
559,1695742441798,0.087890625,-0.9883423,0.16864014,-3.28125,-0.03125,-0.15625,559
560,1695742441838,0.06689453,-0.9776001,0.15692139,-4.546875,0.609375,-0.453125,560
561,1695742441878,0.043945312,-0.98443604,0.16351318,-1.640625,0.828125,-1.75,561
562,1695742441918,0.049072266,-0.9927368,0.15325928,-1.375,0.109375,-2.078125,562
563,1695742441958,0.071777344,-0.9824829,0.17767334,-2.9375,5.234375,-2.0,563
564,1695742441998,0.072265625,-1.0046997,0.17694092,4.484375,5.546875,0.171875,564
565,1695742442038,0.02758789,-0.97662354,0.15106201,7.21875,4.15625,0.796875,565
566,1695742442078,0.05444336,-0.99713135,0.14520264,-0.984375,12.515625,0.5,566
567,1695742442118,0.056640625,-0.9885864,0.1671753,7.5625,0.34375,1.359375,567
568,1695742442158,0.056152344,-0.9678345,0.12591553,5.6875,5.4375,1.203125,568
569,1695742442198,0.08081055,-1.0137329,0.1515503,4.53125,7.9375,2.78125,569
570,1695742442238,0.038330078,-1.0032349,0.12591553,12.359375,0.453125,2.28125,570
571,1695742442278,0.0715332,-0.9793091,0.06829834,8.296875,0.265625,2.109375,571
572,1695742442318,0.08544922,-0.987854,0.10076904,0.59375,5.703125,1.875,572
573,1695742442358,0.07104492,-1.0003052,0.11907959,10.40625,2.46875,2.234375,573
574,1695742442398,0.060546875,-0.9829712,0.050964355,2.96875,-0.34375,1.109375,574
575,1695742442438,0.084472656,-0.9932251,0.050964355,7.125,-0.234375,1.0625,575
576,1695742442478,0.083740234,-1.0108032,0.085876465,2.75,6.015625,1.515625,576
577,1695742442518,0.08105469,-0.95391846,0.05999756,3.703125,-2.265625,0.53125,577
578,1695742442558,0.07446289,-0.95758057,0.030212402,-1.578125,-4.375,1.140625,578
579,1695742442598,0.09350586,-0.9776001,0.04827881,-3.703125,-5.375,0.25,579
580,1695742442638,0.079833984,-1.0108032,0.06488037,-5.421875,-1.375,0.828125,580
581,1695742442678,0.099609375,-0.95318604,0.06097412,-8.15625,-5.046875,-2.28125,581
582,1695742442718,0.08081055,-0.9859009,0.08319092,-5.046875,-2.96875,-2.140625,582
583,1695742442758,0.06201172,-0.9993286,0.11126709,-3.265625,-1.5,-1.59375,583
584,1695742442798,0.092285156,-0.97369385,0.07513428,-6.65625,-10.484375,-3.375,584
585,1695742442838,0.052734375,-0.98687744,0.113708496,-7.65625,-7.109375,-1.484375,585
586,1695742442878,0.10522461,-1.0125122,0.094177246,-5.21875,-4.890625,-4.640625,586
587,1695742442918,0.09472656,-1.0269165,0.12762451,-2.828125,-0.71875,-3.890625,587
588,1695742442958,0.048828125,-0.97613525,0.11566162,-2.5,-0.203125,-1.859375,588
589,1695742442998,0.071777344,-0.9685669,0.07977295,-4.390625,-2.546875,-2.328125,589
590,1695742443038,0.0690918,-1.0007935,0.1293335,-4.765625,2.125,-2.265625,590
591,1695742443078,0.060791016,-1.0088501,0.1449585,-4.328125,2.484375,-2.171875,591
592,1695742443118,0.048095703,-1.0003052,0.12420654,-3.90625,1.8125,-1.671875,592
593,1695742443158,0.055664062,-0.97784424,0.1515503,-4.421875,1.296875,-1.8125,593
594,1695742443198,0.029785156,-0.9829712,0.1395874,-5.546875,1.171875,-2.953125,594
595,1695742443238,0.041259766,-1.0020142,0.17230225,-5.21875,4.765625,-0.609375,595
596,1695742443278,0.0690918,-0.9927368,0.17425537,-3.875,-2.59375,-3.625,596
597,1695742443318,0.041992188,-0.9692993,0.13641357,-2.640625,0.4375,-3.3125,597
598,1695742443358,0.05908203,-1.0193481,0.16741943,-3.5625,8.53125,-0.703125,598
599,1695742443398,0.06982422,-1.0044556,0.2086792,6.234375,-0.34375,-1.90625,599
600,1695742443438,0.01928711,-0.97198486,0.09661865,2.5,-3.484375,0.0625,600
601,1695742443478,0.047607422,-0.99957275,0.14959717,0.78125,7.65625,1.359375,601
602,1695742443518,0.049560547,-0.98272705,0.184021,7.4375,-0.171875,-0.234375,602
603,1695742443558,0.004638672,-0.9717407,0.11175537,7.875,-3.921875,0.859375,603
604,1695742443598,0.044189453,-1.0054321,0.11029053,2.015625,1.6875,2.671875,604
605,1695742443638,0.060791016,-0.98443604,0.14178467,6.046875,-1.046875,1.078125,605
606,1695742443678,0.045166016,-0.98443604,0.08074951,9.21875,-3.5,0.8125,606
607,1695742443718,0.041259766,-0.9890747,0.078552246,3.421875,0.21875,2.71875,607
608,1695742443758,0.07543945,-0.97784424,0.10223389,6.21875,-6.03125,-0.671875,608
609,1695742443798,0.03100586,-0.97198486,0.040222168,4.734375,-5.296875,-1.21875,609
610,1695742443838,0.06958008,-0.97906494,0.08709717,-1.40625,1.21875,1.96875,610
611,1695742443878,0.060791016,-0.9981079,0.093933105,8.890625,-6.9375,0.34375,611
612,1695742443918,0.01977539,-0.96539307,0.03265381,7.8125,-3.8125,0.828125,612
613,1695742443958,0.048095703,-0.972229,0.04437256,2.953125,-0.828125,1.578125,613
614,1695742443998,0.060791016,-0.9763794,0.051696777,4.828125,-3.3125,3.234375,614
615,1695742444038,0.06713867,-0.98443604,0.043640137,4.3125,-4.140625,3.703125,615
616,1695742444078,0.061767578,-0.972229,0.04437256,2.28125,-1.796875,3.5625,616
617,1695742444118,0.036132812,-0.9795532,0.034118652,-0.375,-5.625,1.578125,617
618,1695742444158,0.044189453,-0.9907837,0.034118652,-2.359375,-8.15625,1.8125,618
619,1695742444198,0.092285156,-1.0310669,0.034851074,-8.15625,-4.453125,4.109375,619
620,1695742444238,0.1496582,-1.0100708,0.078552246,-6.0625,-1.265625,-0.109375,620
621,1695742444278,0.09326172,-1.0117798,0.08880615,0.15625,-2.625,0.40625,621
622,1695742444318,0.068603516,-0.99542236,0.055603027,0.015625,-2.34375,0.9375,622
623,1695742444358,0.079833984,-0.96539307,0.029724121,-3.765625,-4.859375,1.015625,623
624,1695742444398,0.09448242,-0.9944458,0.07537842,-5.28125,0.046875,1.0625,624
625,1695742444438,0.07910156,-0.98223877,0.08148193,-3.5,-0.359375,2.5,625
626,1695742444478,0.083740234,-0.9902954,0.062683105,-1.40625,-3.921875,1.203125,626
627,1695742444518,0.075683594,-0.98687744,0.06781006,-5.203125,1.828125,3.0625,627
628,1695742444558,0.103515625,-0.99713135,0.09442139,-4.953125,2.421875,1.421875,628
629,1695742444598,0.08935547,-0.9793091,0.085632324,-1.25,-1.28125,1.1875,629
630,1695742444638,0.111572266,-0.9871216,0.089538574,-6.0,1.21875,0.875,630
631,1695742444678,0.11401367,-0.9783325,0.09661865,-3.765625,-0.21875,1.40625,631
632,1695742444718,0.08105469,-0.9866333,0.10003662,-1.3125,0.25,0.671875,632
633,1695742444758,0.095703125,-0.987854,0.09613037,-3.296875,1.0625,0.34375,633
634,1695742444798,0.11035156,-0.9915161,0.101257324,1.390625,2.859375,0.28125,634
635,1695742444838,0.1171875,-1.0032349,0.11517334,-1.390625,3.4375,1.734375,635
636,1695742444878,0.10620117,-0.9727173,0.11419678,3.453125,-0.53125,-0.1875,636
637,1695742444918,0.099853516,-0.9939575,0.06439209,2.296875,0.859375,1.625,637
638,1695742444958,0.14013672,-0.9871216,0.08856201,-2.21875,1.5,-1.390625,638
639,1695742444998,0.12719727,-0.9758911,0.10760498,0.703125,2.96875,-3.734375,639
640,1695742445038,0.099609375,-0.9817505,0.07537842,1.3125,1.171875,-4.296875,640
641,1695742445078,0.09033203,-1.0066528,0.06561279,-0.828125,4.203125,-3.296875,641
642,1695742445118,0.10595703,-0.97491455,0.09515381,-0.40625,1.625,-3.0,642
643,1695742445158,0.11230469,-0.97198486,0.055603027,3.671875,1.890625,-3.96875,643
644,1695742445198,0.09277344,-1.0029907,0.09466553,1.484375,8.640625,-2.015625,644
645,1695742445238,0.08154297,-0.9841919,0.055847168,6.265625,2.46875,-3.0625,645
646,1695742445278,0.06689453,-1.0090942,0.024841309,2.6875,7.9375,-0.375,646
647,1695742445318,0.107910156,-0.9963989,0.07489014,-0.890625,11.328125,-1.203125,647
648,1695742445358,0.10131836,-0.95562744,0.054626465,6.515625,2.984375,-1.609375,648
649,1695742445398,0.083984375,-0.94366455,0.051208496,-7.34375,8.109375,-0.703125,649
650,1695742445438,0.08081055,-0.9570923,0.04046631,-3.46875,-0.25,-1.09375,650
651,1695742445478,0.09350586,-0.96051025,0.04510498,-4.0,-3.03125,-1.1875,651
652,1695742445518,0.09106445,-0.9795532,0.09295654,-6.390625,2.0,-2.078125,652
653,1695742445558,0.06298828,-0.99835205,0.04949951,-6.5625,-5.40625,-0.78125,653
654,1695742445598,0.09472656,-0.9780884,0.09564209,-3.4375,0.546875,-1.046875,654
655,1695742445638,0.1184082,-0.98443604,0.070251465,-4.453125,0.046875,-3.09375,655
656,1695742445678,0.057373047,-1.005188,0.11175537,-2.1875,-0.71875,-1.4375,656
657,1695742445718,0.07397461,-0.9873657,0.0758667,-3.71875,-0.875,-0.671875,657
658,1695742445758,0.09008789,-0.9771118,0.086364746,-3.703125,1.0625,-1.515625,658
659,1695742445798,0.080078125,-1.0054321,0.10028076,-4.8125,2.65625,-2.109375,659
660,1695742445838,0.056640625,-0.98809814,0.08929443,-4.421875,0.234375,-1.703125,660
661,1695742445878,0.0703125,-1.005188,0.12249756,-2.609375,-0.015625,-2.421875,661
662,1695742445918,0.05859375,-0.98028564,0.101745605,-2.3125,0.4375,-2.421875,662
663,1695742445958,0.06274414,-0.972229,0.113464355,-4.234375,1.625,-3.1875,663
664,1695742445998,0.04272461,-0.9902954,0.12908936,-4.78125,0.65625,-2.5,664
665,1695742446038,0.05517578,-0.9961548,0.1293335,-1.453125,-0.375,-1.765625,665
666,1695742446078,0.02734375,-0.9951782,0.10784912,-2.703125,0.765625,0.0625,666
667,1695742446118,0.072021484,-0.97662354,0.14886475,-0.96875,6.640625,-0.875,667
668,1695742446158,0.049072266,-1.0188599,0.11444092,2.9375,4.484375,1.578125,668
669,1695742446198,0.030029297,-1.0066528,0.10809326,5.046875,3.453125,2.390625,669
670,1695742446238,0.061767578,-0.9649048,0.093933105,4.859375,4.71875,2.203125,670
671,1695742446278,0.057617188,-1.0012817,0.10247803,5.703125,7.359375,2.140625,671
672,1695742446318,0.047851562,-1.0037231,0.09490967,4.625,4.4375,1.171875,672
673,1695742446358,0.05517578,-0.9956665,0.07318115,7.625,5.40625,2.265625,673
674,1695742446398,0.0925293,-0.98687744,0.07220459,5.921875,4.265625,2.921875,674
675,1695742446438,0.067871094,-0.9685669,0.074645996,7.3125,4.875,3.03125,675
676,1695742446478,0.075683594,-1.0054321,0.047058105,5.59375,4.203125,3.671875,676
677,1695742446518,0.0546875,-1.0093384,0.029968262,2.515625,6.0,2.21875,677
678,1695742446558,0.0859375,-0.9661255,0.047058105,4.71875,4.59375,2.3125,678
679,1695742446598,0.09887695,-0.9795532,0.013122559,5.734375,4.03125,2.25,679
680,1695742446638,0.11352539,-1.017395,0.04827881,6.5,8.171875,2.5625,680
681,1695742446678,0.06518555,-0.9619751,0.007751465,2.65625,-0.4375,1.515625,681
682,1695742446718,0.09643555,-0.9463501,0.001159668,2.296875,0.671875,0.53125,682
683,1695742446758,0.09838867,-0.9536743,-0.017150879,-2.921875,-6.625,-2.21875,683
684,1695742446798,0.11450195,-0.99420166,0.029968262,-2.65625,-2.234375,0.9375,684
685,1695742446838,0.10253906,-0.9817505,0.00018310547,-3.375,0.484375,-0.234375,685
686,1695742446878,0.072509766,-0.9590454,0.031677246,-3.328125,-3.359375,-0.578125,686
687,1695742446918,0.07885742,-0.93951416,-0.003967285,-2.59375,-7.25,-1.6875,687
688,1695742446958,0.095947266,-1.0005493,0.022644043,-6.28125,-10.234375,-2.15625,688
689,1695742446998,0.12915039,-1.000061,0.07611084,-3.8125,4.25,-0.03125,689
690,1695742447038,0.05883789,-1.0039673,0.009460449,-6.609375,-3.734375,0.421875,690
691,1695742447078,0.09350586,-0.9536743,0.028747559,-7.515625,-5.5625,-1.609375,691
692,1695742447118,0.15209961,-0.9866333,0.06097412,-8.125,-1.9375,-3.953125,692
693,1695742447158,0.078125,-1.0215454,0.06317139,-3.25,-1.21875,-2.5,693
694,1695742447198,0.087646484,-0.9944458,0.08294678,-2.015625,-2.046875,0.8125,694
695,1695742447238,0.06665039,-0.97857666,0.06317139,-2.9375,-1.0,-0.96875,695
696,1695742447278,0.078125,-0.98101807,0.07366943,-4.21875,-2.046875,-3.015625,696
697,1695742447318,0.096191406,-1.0020142,0.078308105,-2.546875,0.15625,-2.625,697
698,1695742447358,0.09350586,-1.0105591,0.081970215,-5.84375,-0.953125,-1.234375,698
699,1695742447398,0.09033203,-0.97125244,0.093688965,-3.546875,0.296875,-1.203125,699
700,1695742447438,0.049316406,-0.99224854,0.08514404,-3.40625,2.890625,-1.140625,700
701,1695742447478,0.048095703,-1.0037231,0.10296631,-6.109375,2.796875,-1.046875,701
702,1695742447518,0.09472656,-0.97369385,0.10076904,-3.703125,4.703125,-1.4375,702
703,1695742447558,0.08691406,-0.9944458,0.09490967,0.59375,4.984375,-1.125,703
704,1695742447598,0.059570312,-1.0046997,0.11199951,1.9375,3.0625,1.25,704
705,1695742447638,0.046142578,-0.9837036,0.09197998,3.640625,2.046875,0.3125,705
706,1695742447678,0.08203125,-0.9805298,0.08099365,6.375,2.203125,-0.1875,706
707,1695742447718,0.083496094,-0.97662354,0.08392334,4.96875,5.515625,0.546875,707
708,1695742447758,0.05810547,-1.0003052,0.06707764,4.1875,2.75,1.640625,708
709,1695742447798,0.1003418,-0.99835205,0.07244873,4.1875,5.109375,1.78125,709
710,1695742447838,0.091796875,-0.98931885,0.047302246,2.828125,3.875,1.53125,710
711,1695742447878,0.08251953,-0.9849243,0.06414795,3.28125,4.703125,2.078125,711
712,1695742447918,0.08300781,-0.98565674,0.039733887,3.328125,3.171875,0.609375,712
713,1695742447958,0.09741211,-0.9973755,0.038269043,5.640625,2.15625,1.09375,713
714,1695742447998,0.11206055,-0.98883057,0.0368042,6.03125,6.625,1.8125,714
715,1695742448038,0.07861328,-1.0029907,0.023620605,4.515625,3.0625,3.3125,715
716,1695742448078,0.09887695,-0.9573364,0.00579834,1.46875,0.703125,-0.109375,716
717,1695742448118,0.09082031,-0.98028564,0.0018920898,3.15625,0.5625,2.453125,717
718,1695742448158,0.103759766,-0.9692993,0.008483887,0.0,-2.8125,-0.265625,718
719,1695742448198,0.10864258,-0.95806885,-0.0056762695,-1.296875,-4.5625,0.203125,719
720,1695742448238,0.10986328,-0.9819946,0.018493652,-1.453125,-1.3125,0.625,720
721,1695742448278,0.106933594,-0.9495239,0.016540527,-5.703125,-1.59375,-1.328125,721
722,1695742448318,0.07373047,-0.9841919,0.00970459,-6.65625,-7.625,-0.875,722
723,1695742448358,0.07714844,-0.987854,0.06097412,-2.953125,-5.1875,1.0625,723
724,1695742448398,0.08618164,-0.9963989,-0.016662598,-8.265625,-13.078125,-1.078125,724
725,1695742448438,0.16674805,-0.9890747,0.053649902,-4.234375,-4.390625,-3.46875,725
726,1695742448478,0.1315918,-1.0125122,0.07904053,-4.046875,4.390625,0.078125,726
727,1695742448518,0.07495117,-0.9837036,0.026306152,-5.25,-3.25,0.28125,727
728,1695742448558,0.10205078,-0.9456177,0.05291748,-3.546875,-2.84375,0.453125,728
729,1695742448598,0.12475586,-0.98809814,0.06097412,-5.84375,-1.75,-3.859375,729
730,1695742448638,0.072021484,-1.015686,0.10076904,-3.984375,1.71875,-2.484375,730
731,1695742448678,0.0793457,-1.0227661,0.082214355,-3.703125,-3.875,-1.078125,731
732,1695742448718,0.11035156,-0.9614868,0.05706787,-2.0,-1.09375,-1.390625,732
733,1695742448758,0.09692383,-0.9819946,0.070251465,-4.0625,0.984375,-2.796875,733
734,1695742448798,0.064941406,-1.0007935,0.0848999,-5.71875,0.5625,-2.21875,734
735,1695742448838,0.076416016,-1.0112915,0.09246826,-5.15625,-0.1875,-1.0,735
736,1695742448878,0.09106445,-0.98516846,0.09539795,-2.015625,2.25,-0.125,736
737,1695742448918,0.09033203,-0.97857666,0.081726074,-4.0625,1.46875,-1.25,737
738,1695742448958,0.08300781,-0.98565674,0.11004639,-3.5625,1.875,-1.015625,738
739,1695742448998,0.0847168,-1.0098267,0.101745605,-1.265625,2.515625,0.171875,739
740,1695742449038,0.08276367,-1.0061646,0.12298584,1.84375,3.5625,2.125,740
741,1695742449078,0.10253906,-0.9678345,0.09124756,1.1875,3.046875,-0.578125,741
742,1695742449118,0.06689453,-1.0046997,0.10272217,3.984375,5.046875,1.96875,742
743,1695742449158,0.09375,-0.9944458,0.08734131,3.6875,3.859375,2.171875,743
744,1695742449198,0.11035156,-0.9800415,0.061706543,4.28125,4.03125,0.890625,744
745,1695742449238,0.0847168,-0.97979736,0.081726074,1.703125,5.171875,2.578125,745
746,1695742449278,0.10107422,-0.9834595,0.07562256,2.421875,2.5,0.984375,746
747,1695742449318,0.11376953,-1.0007935,0.06317139,3.328125,3.546875,2.359375,747
748,1695742449358,0.10498047,-0.9927368,0.06048584,4.421875,3.546875,1.9375,748
749,1695742449398,0.10546875,-0.97662354,0.04876709,2.84375,3.78125,2.046875,749
750,1695742449438,0.10888672,-0.98101807,0.03265381,2.671875,1.140625,1.609375,750
751,1695742449478,0.12475586,-0.98565674,0.058776855,5.171875,4.046875,1.84375,751
752,1695742449518,0.095458984,-0.9854126,0.031188965,0.546875,2.078125,0.21875,752
753,1695742449558,0.11645508,-0.96099854,0.026306152,0.875,-1.8125,-0.09375,753
754,1695742449598,0.103759766,-0.9871216,0.054138184,2.03125,2.96875,0.59375,754
755,1695742449638,0.11303711,-0.96099854,0.02166748,-1.25,-5.84375,-0.984375,755
756,1695742449678,0.11621094,-0.95562744,0.02508545,-1.09375,-7.515625,-1.0625,756
757,1695742449718,0.13598633,-0.97125244,0.047302246,-2.359375,-2.28125,-1.578125,757
758,1695742449758,0.11450195,-0.960022,0.04876709,-6.765625,-3.5,-1.0,758
759,1695742449798,0.08154297,-0.9741821,0.024597168,-7.1875,-8.65625,-1.4375,759
