,timestamp,accel_x,accel_y,accel_z,gyro_x,gyro_y,gyro_z,ind
0,1695773139487,-0.1730957,-0.93170166,0.20819092,1.015625,-0.5,-2.828125,0
1,1695773139527,-0.10913086,-1.0134888,0.21478271,3.96875,0.015625,1.5,1
2,1695773139567,-0.18896484,-0.9649048,0.21258545,-0.390625,-4.984375,5.375,2
3,1695773139607,-0.22241211,-0.9573364,0.24725342,1.703125,-1.859375,1.28125,3
4,1695773139647,-0.16894531,-0.99713135,0.22113037,0.140625,-0.109375,-0.84375,4
5,1695773139687,-0.18139648,-0.96221924,0.20941162,-2.609375,-2.1875,-1.046875,5
6,1695773139727,-0.19946289,-0.97613525,0.22015381,5.203125,3.359375,1.046875,6
7,1695773139767,-0.18530273,-0.96954346,0.17327881,9.953125,12.078125,5.265625,7
8,1695773139807,-0.17871094,-0.9595337,0.18865967,8.078125,10.125,5.109375,8
9,1695773139847,-0.1743164,-1.1126099,0.15350342,4.203125,15.78125,2.21875,9
10,1695773139887,-0.13720703,-0.8345337,0.14447021,5.921875,17.875,4.4375,10
11,1695773139927,-0.122558594,-1.1900024,0.262146,-2.421875,5.1875,-1.359375,11
12,1695773139967,-0.2097168,-0.9273071,0.10394287,-3.3125,4.359375,4.875,12
13,1695773140007,-0.17993164,-1.0110474,0.19451904,8.609375,9.96875,0.0,13
14,1695773140047,-0.16821289,-0.9976196,0.18988037,13.625,18.203125,16.09375,14
15,1695773140087,-0.07910156,-0.91192627,0.058044434,-4.953125,7.171875,3.109375,15
16,1695773140127,-0.055664062,-1.0808716,0.21697998,4.28125,10.578125,9.703125,16
17,1695773140167,-0.14355469,-0.8965454,0.038513184,-2.359375,11.984375,5.328125,17
18,1695773140207,-0.10473633,-0.98883057,0.27093506,8.21875,25.859375,1.09375,18
19,1695773140247,-0.030517578,-1.0735474,0.20037842,7.4375,9.3125,5.65625,19
20,1695773140287,0.016601562,-0.8843384,0.13031006,-8.4375,-2.546875,-5.40625,20
21,1695773140327,-0.1315918,-1.085022,0.24554443,1.5625,-19.015625,-1.078125,21
22,1695773140367,-0.18188477,-0.93585205,0.24383545,1.984375,0.59375,5.234375,22
23,1695773140407,-0.041992188,-0.9500122,0.062194824,-19.515625,0.015625,-17.046875,23
24,1695773140447,-0.07519531,-1.0759888,0.215271,-5.140625,-8.625,-8.140625,24
25,1695773140487,-0.140625,-1.1226196,0.27191162,0.859375,-11.4375,-0.0625,25
26,1695773140527,-0.1159668,-0.8772583,0.10418701,4.828125,12.171875,4.671875,26
27,1695773140567,-0.12475586,-1.0049438,0.04876709,12.328125,-1.734375,-5.5,27
28,1695773140607,-0.056884766,-0.9907837,0.49456787,7.109375,23.640625,5.703125,28
29,1695773140647,-0.1303711,-0.9834595,-0.020568848,-16.0625,-3.796875,-3.484375,29
30,1695773140687,-0.12890625,-0.8008423,0.22821045,-16.28125,-1.703125,-15.90625,30
31,1695773140727,-0.16503906,-1.0261841,0.14935303,6.9375,-15.859375,-2.328125,31
32,1695773140767,-0.2121582,-1.2627563,0.4574585,16.09375,2.734375,11.9375,32
33,1695773140807,0.021240234,-0.8833618,-0.057434082,-15.890625,7.921875,-21.015625,33
34,1695773140847,-0.1328125,-0.84576416,0.039978027,-13.671875,0.390625,-12.359375,34
35,1695773140887,-0.109375,-0.84869385,0.23382568,9.171875,-18.78125,-14.4375,35
36,1695773140927,-0.24951172,-1.4119263,0.38079834,15.765625,-3.828125,14.125,36
37,1695773140967,-0.03466797,-0.7546997,0.04876709,1.828125,16.84375,-1.96875,37
38,1695773141007,-0.123046875,-0.95806885,0.050964355,-22.265625,-8.578125,-14.203125,38
39,1695773141047,-0.20800781,-0.8609009,0.12249756,17.203125,-15.484375,-4.578125,39
40,1695773141087,-0.38989258,-1.427063,0.6600952,11.078125,-6.21875,14.53125,40
41,1695773141127,-0.03564453,-0.6782837,-0.17828369,-9.90625,25.046875,-15.796875,41
42,1695773141167,-0.114746094,-0.9734497,0.13079834,-20.765625,-17.1875,-20.53125,42
43,1695773141207,-0.21142578,-1.0078735,0.09857178,9.890625,-19.390625,10.046875,43
44,1695773141247,-0.5029297,-1.0669556,0.5687866,29.265625,29.59375,33.9375,44
45,1695773141287,-0.01953125,-0.92071533,-0.14093018,-12.9375,14.875,-20.75,45
46,1695773141327,-0.22265625,-0.83258057,0.20135498,-16.328125,-11.53125,-9.234375,46
47,1695773141367,-0.16967773,-1.2153931,0.097351074,-22.390625,-38.484375,0.671875,47
48,1695773141407,-0.2919922,-0.79888916,0.3842163,12.8125,50.828125,18.5,48
49,1695773141447,-0.095214844,-0.9871216,-0.07159424,-8.953125,-7.046875,-17.578125,49
50,1695773141487,-0.17285156,-0.8308716,0.26116943,5.359375,3.75,-2.203125,50
51,1695773141527,-0.29833984,-1.2666626,0.22259521,-16.75,-33.734375,5.875,51
52,1695773141567,-0.19628906,-0.8074341,0.20941162,6.859375,39.09375,6.3125,52
53,1695773141607,-0.080566406,-0.93634033,0.020446777,-9.28125,-6.09375,-22.96875,53
54,1695773141647,-0.1784668,-1.0120239,0.3060913,-2.84375,8.296875,-0.125,54
55,1695773141687,-0.27416992,-0.9702759,0.10614014,-5.46875,-23.375,3.4375,55
56,1695773141727,-0.2602539,-0.94000244,0.20892334,5.34375,22.8125,12.1875,56
57,1695773141767,-0.052490234,-0.93218994,0.14276123,-6.140625,3.15625,-22.578125,57
58,1695773141807,-0.20825195,-1.1963501,0.3085327,-7.59375,-5.453125,-0.328125,58
59,1695773141847,-0.26464844,-0.8052368,0.22869873,-14.6875,1.421875,8.734375,59
60,1695773141887,-0.38183594,-0.9932251,0.25238037,-28.296875,-29.109375,-7.765625,60
61,1695773141927,-0.16772461,-0.9776001,0.2946167,-14.359375,-0.25,-9.078125,61
62,1695773141967,-0.14770508,-0.99468994,0.24749756,-4.671875,-20.734375,-0.4375,62
63,1695773142007,-0.26098633,-1.0437622,0.22650146,5.109375,-7.84375,14.671875,63
64,1695773142047,-0.25463867,-0.79693604,0.22650146,1.46875,0.578125,9.953125,64
65,1695773142087,-0.24780273,-0.89630127,0.19134521,10.265625,3.203125,1.890625,65
66,1695773142127,-0.12792969,-0.956604,0.23919678,4.328125,5.1875,-0.5,66
67,1695773142167,-0.1730957,-1.0100708,0.20941162,-0.34375,-0.484375,3.453125,67
68,1695773142207,-0.20117188,-1.024231,0.22528076,2.90625,5.921875,-1.609375,68
69,1695773142247,-0.1899414,-1.0095825,0.18011475,6.390625,16.5,1.1875,69
70,1695773142287,-0.15991211,-0.925354,0.2970581,16.375,31.03125,-3.5625,70
71,1695773142327,-0.18579102,-1.036438,0.199646,7.3125,9.078125,7.6875,71
72,1695773142367,-0.14282227,-0.81500244,0.19158936,-2.34375,0.921875,-2.875,72
73,1695773142407,-0.15600586,-1.0664673,0.32122803,-8.59375,-15.21875,-1.5,73
74,1695773142447,-0.23828125,-1.1050415,0.17816162,-6.6875,-12.828125,4.578125,74
75,1695773142487,-0.16918945,-0.9011841,0.20257568,-9.140625,-1.484375,2.078125,75
76,1695773142527,-0.12963867,-0.9534302,0.21917725,-8.0625,-4.609375,-0.703125,76
77,1695773142567,-0.16894531,-0.99224854,0.2086792,-9.90625,-5.90625,-0.359375,77
78,1695773142607,-0.1340332,-0.9378052,0.21209717,13.578125,3.234375,2.234375,78
79,1695773142647,-0.16699219,-1.0352173,0.28289795,4.625,-1.796875,6.46875,79
80,1695773142687,-0.068359375,-1.109436,0.24066162,-12.0,-6.078125,-13.09375,80
81,1695773142727,-0.27856445,-0.8989868,0.20135498,-6.875,-14.59375,9.0,81
82,1695773142767,-0.20703125,-0.86383057,0.15594482,-12.046875,-9.75,-2.65625,82
83,1695773142807,-0.22265625,-0.8447876,0.35076904,6.265625,13.9375,2.15625,83
84,1695773142847,-0.099853516,-1.1619263,0.26654053,15.890625,10.25,2.921875,84
85,1695773142887,-0.14746094,-0.9927368,0.2609253,3.90625,-2.6875,9.5625,85
86,1695773142927,-0.19726562,-0.96832275,0.25506592,-28.15625,-9.28125,3.921875,86
87,1695773142967,-0.3076172,-0.9614868,0.2399292,4.390625,-11.71875,5.65625,87
88,1695773143007,-0.06982422,-0.9817505,0.30560303,-0.421875,4.59375,5.328125,88
89,1695773143047,-0.06323242,-0.92437744,0.15716553,-14.484375,-11.515625,-6.265625,89
90,1695773143087,-0.13305664,-0.97125244,0.17352295,6.3125,-4.71875,-3.625,90
91,1695773143127,-0.1394043,-0.9607544,0.28070068,2.9375,-3.765625,9.875,91
92,1695773143167,-0.24023438,-0.9795532,0.22137451,-2.59375,-4.125,-0.859375,92
93,1695773143207,-0.16040039,-0.96173096,0.20404053,-3.625,6.4375,-8.65625,93
94,1695773143247,-0.10498047,-0.98516846,0.2489624,-1.203125,9.59375,-3.15625,94
95,1695773143287,-0.07910156,-1.0073853,0.2609253,4.328125,8.359375,3.515625,95
96,1695773143327,-0.13427734,-0.93829346,0.23577881,1.6875,4.84375,-1.046875,96
97,1695773143367,-0.171875,-0.9417114,0.11566162,-4.125,11.484375,-6.6875,97
98,1695773143407,-0.087890625,-1.0100708,0.34100342,6.140625,19.0625,-8.4375,98
99,1695773143447,-0.10668945,-1.0774536,0.2694702,13.59375,10.140625,11.984375,99
100,1695773143487,-0.22021484,-0.73638916,0.2062378,-2.03125,6.4375,0.03125,100
101,1695773143527,-0.13134766,-1.0838013,0.23822021,0.46875,-4.953125,-3.8125,101
102,1695773143567,-0.14160156,-0.91363525,0.14031982,3.640625,-6.265625,-5.53125,102
103,1695773143607,-0.084472656,-1.2312622,0.401062,20.0,13.15625,9.953125,103
104,1695773143647,-0.13696289,-0.7930298,0.08026123,-1.28125,3.5625,10.21875,104
105,1695773143687,-0.059814453,-0.9351196,0.08905029,-4.734375,-13.109375,-16.515625,105
106,1695773143727,-0.19458008,-1.0379028,0.11541748,-2.3125,-15.3125,-1.125,106
107,1695773143767,-0.22192383,-1.1880493,0.48724365,18.71875,16.34375,8.59375,107
108,1695773143807,-0.17529297,-0.8230591,0.058044434,-1.9375,3.953125,3.390625,108
109,1695773143847,-0.08276367,-0.79156494,0.04901123,-1.921875,-7.25,-9.390625,109
110,1695773143887,-0.13183594,-1.1221313,0.21380615,2.03125,-9.25,2.546875,110
111,1695773143927,-0.203125,-1.0747681,0.22137451,-10.078125,-4.296875,-6.984375,111
112,1695773143967,-0.13183594,-0.9014282,0.29193115,12.171875,17.46875,3.890625,112
113,1695773144007,-0.0925293,-0.848938,0.012634277,-8.015625,-5.40625,-10.578125,113
114,1695773144047,-0.1496582,-1.0366821,0.16790771,0.484375,-9.0,1.03125,114
115,1695773144087,-0.2722168,-1.0894165,0.24481201,-10.546875,-14.15625,-1.8125,115
116,1695773144127,-0.23657227,-0.95928955,0.30633545,6.1875,24.46875,4.75,116
117,1695773144167,-0.084472656,-0.8804321,0.029968262,-1.234375,6.046875,-10.390625,117
118,1695773144207,-0.08251953,-1.0855103,0.1984253,-11.625,-1.5625,-2.59375,118
119,1695773144247,-0.2397461,-0.9336548,0.22113037,-4.890625,-3.0625,3.953125,119
120,1695773144287,-0.29296875,-0.96099854,0.2518921,-1.234375,8.640625,-1.1875,120
121,1695773144327,-0.12988281,-0.94415283,0.22796631,2.59375,4.75,-6.46875,121
122,1695773144367,-0.05078125,-1.0901489,0.19256592,-5.390625,-6.890625,-1.1875,122
123,1695773144407,-0.17041016,-0.9663696,0.22845459,-9.28125,-2.140625,1.09375,123
124,1695773144447,-0.25195312,-0.9434204,0.21234131,-8.375,-1.5,-5.671875,124
125,1695773144487,-0.22680664,-0.97442627,0.27288818,-9.046875,4.625,-8.015625,125
126,1695773144527,-0.099609375,-0.98760986,0.22406006,-26.21875,1.1875,-7.828125,126
127,1695773144567,-0.24951172,-0.91656494,0.23480225,-28.171875,-38.734375,-10.25,127
128,1695773144607,-0.1772461,-1.0755005,0.5470581,10.640625,3.0,9.15625,128
129,1695773144647,-0.21777344,-0.84625244,0.15863037,-9.71875,-0.046875,0.40625,129
130,1695773144687,-0.19946289,-0.96710205,0.22747803,3.3125,-7.453125,-5.125,130
131,1695773144727,-0.1640625,-0.94244385,0.30584717,4.984375,-4.40625,4.828125,131
132,1695773144767,-0.2529297,-0.9402466,0.24822998,8.21875,-3.9375,3.984375,132
133,1695773144807,-0.24243164,-0.94610596,0.2675171,10.703125,1.0,0.109375,133
134,1695773144847,-0.20288086,-0.92437744,0.27264404,5.796875,2.53125,-0.953125,134
135,1695773144887,-0.21459961,-0.9817505,0.23114014,3.265625,-1.59375,-0.421875,135
136,1695773144927,-0.19702148,-0.97369385,0.23431396,-2.046875,-0.703125,0.1875,136
137,1695773144967,-0.16552734,-0.9788208,0.22381592,-0.890625,-1.125,-0.046875,137
138,1695773145007,-0.18310547,-0.973938,0.2374878,2.53125,-0.296875,0.546875,138
139,1695773145047,-0.2109375,-0.9585571,0.2518921,-0.265625,-2.96875,-1.78125,139
140,1695773145087,-0.23828125,-0.93414307,0.22259521,-5.109375,-2.625,-4.953125,140
141,1695773145127,-0.22045898,-0.9871216,0.23260498,1.0625,1.171875,-1.71875,141
142,1695773145167,-0.22753906,-0.95806885,0.23284912,1.71875,4.828125,0.4375,142
143,1695773145207,-0.23242188,-0.99542236,0.25360107,1.625,7.890625,-0.78125,143
144,1695773145247,-0.16455078,-1.0093384,0.04437256,4.1875,12.390625,-2.15625,144
145,1695773145287,-0.15454102,-0.99591064,0.4611206,7.765625,20.296875,5.75,145
146,1695773145327,-0.25097656,-0.927063,0.13616943,1.578125,6.53125,12.296875,146
147,1695773145367,-0.1472168,-0.8088989,0.18792725,-6.578125,0.46875,-13.125,147
148,1695773145407,-0.23608398,-1.0789185,0.23895264,8.234375,-9.296875,-0.09375,148
149,1695773145447,-0.21948242,-1.1550903,0.37664795,16.21875,4.0,9.65625,149
150,1695773145487,-0.15405273,-0.89141846,0.10736084,-4.78125,6.625,3.265625,150
151,1695773145527,-0.23144531,-0.80181885,0.1227417,-22.1875,-7.1875,-8.703125,151
152,1695773145567,-0.2614746,-1.03302,0.26312256,2.734375,-15.359375,-5.75,152
153,1695773145607,-0.2475586,-1.1165161,0.34613037,6.40625,11.453125,7.859375,153
154,1695773145647,-0.048828125,-0.86383057,0.07659912,-7.015625,10.890625,-9.3125,154
155,1695773145687,-0.15942383,-0.9307251,0.13470459,-18.421875,-11.859375,-12.1875,155
156,1695773145727,-0.27539062,-0.8550415,0.27557373,6.953125,0.71875,6.890625,156
157,1695773145767,-0.37670898,-1.2512817,0.3866577,19.421875,-12.671875,6.859375,157
158,1695773145807,-0.23388672,-0.82354736,0.086120605,0.328125,27.078125,10.515625,158
159,1695773145847,-0.015625,-1.0593872,0.26531982,-5.546875,-9.953125,-19.40625,159
160,1695773145887,-0.22851562,-0.9429321,0.2489624,-0.71875,15.703125,16.03125,160
161,1695773145927,-0.29467773,-0.92803955,0.25653076,-13.6875,-1.171875,3.84375,161
162,1695773145967,-0.2265625,-0.80474854,0.12884521,-11.203125,2.40625,-13.46875,162
163,1695773146007,-0.11352539,-1.1953735,0.33685303,10.625,-1.953125,-5.9375,163
164,1695773146047,-0.13085938,-0.9685669,0.15789795,9.125,-2.25,6.53125,164
165,1695773146087,-0.19995117,-1.1358032,0.23626709,-0.125,-1.25,8.796875,165
166,1695773146127,-0.2614746,-0.7918091,0.2736206,-3.484375,12.234375,1.8125,166
167,1695773146167,-0.2006836,-1.0737915,0.18450928,-4.953125,-7.28125,-10.40625,167
168,1695773146207,-0.1574707,-0.8596802,0.2814331,-30.34375,0.203125,-6.75,168
169,1695773146247,-0.16625977,-1.0403442,0.13885498,-26.5625,-27.15625,-13.609375,169
170,1695773146287,-0.1977539,-0.98516846,0.49334717,6.0,5.65625,10.234375,170
171,1695773146327,-0.17041016,-0.9788208,0.17254639,-18.578125,-8.359375,-1.125,171
172,1695773146367,-0.28222656,-0.85040283,0.26922607,-1.609375,-11.0,2.171875,172
173,1695773146407,-0.18823242,-1.0044556,0.33148193,6.078125,-0.953125,4.171875,173
174,1695773146447,-0.17626953,-0.86846924,0.13616943,15.90625,-3.84375,-1.9375,174
175,1695773146487,-0.13378906,-1.0679321,0.3053589,21.609375,2.234375,5.578125,175
176,1695773146527,-0.1940918,-0.8982544,0.25238037,3.140625,4.40625,8.25,176
177,1695773146567,-0.25,-0.9319458,0.2074585,-8.484375,-3.65625,-0.984375,177
178,1695773146607,-0.15258789,-0.9944458,0.22039795,-7.078125,-4.578125,-9.28125,178
179,1695773146647,-0.17578125,-1.0269165,0.27679443,-0.515625,-3.5,-0.96875,179
180,1695773146687,-0.2175293,-0.99542236,0.23919678,-0.578125,6.171875,2.0,180
181,1695773146727,-0.23999023,-0.9697876,0.20037842,5.890625,8.765625,2.890625,181
182,1695773146767,-0.19213867,-1.0100708,0.16278076,5.875,11.71875,-3.1875,182
183,1695773146807,-0.13061523,-0.9573364,0.39691162,8.5625,21.390625,4.171875,183
184,1695773146847,-0.2758789,-0.94903564,0.19891357,-2.21875,3.0,10.25,184
185,1695773146887,-0.13891602,-0.8296509,0.18377686,-9.4375,0.65625,-10.0,185
186,1695773146927,-0.19458008,-1.0476685,0.3007202,-8.125,-0.71875,-5.09375,186
187,1695773146967,-0.14135742,-1.02594,0.11517334,3.328125,-5.015625,-9.71875,187
188,1695773147007,-0.2319336,-1.1372681,0.45721436,5.8125,-2.203125,9.3125,188
189,1695773147047,-0.06933594,-0.9351196,0.11981201,-7.1875,2.09375,5.015625,189
190,1695773147087,-0.39208984,-0.64141846,0.1852417,-0.90625,7.125,5.171875,190
191,1695773147127,-0.13500977,-1.1636353,0.2218628,-7.390625,-5.828125,-11.328125,191
192,1695773147167,-0.14916992,-0.98638916,0.39935303,-1.03125,-1.8125,-8.453125,192
193,1695773147207,-0.076171875,-1.1228638,0.34539795,8.09375,8.09375,7.109375,193
194,1695773147247,-0.2861328,-0.65338135,0.0016479492,3.453125,2.5625,6.140625,194
195,1695773147287,-0.15356445,-1.069397,0.29071045,3.828125,-15.71875,-4.34375,195
196,1695773147327,-0.30737305,-0.9546509,0.29486084,1.46875,3.046875,4.015625,196
197,1695773147367,-0.23901367,-1.072815,0.35516357,1.1875,4.6875,-10.796875,197
198,1695773147407,-0.024169922,-1.0444946,0.24334717,4.21875,12.140625,0.59375,198
199,1695773147447,-0.22949219,-0.8213501,0.09588623,-8.578125,-7.515625,8.015625,199
200,1695773147487,-0.23583984,-0.9038696,0.2074585,-19.375,0.28125,-11.484375,200
201,1695773147527,-0.25439453,-1.0125122,0.31781006,5.84375,-23.546875,-20.8125,201
202,1695773147567,-0.19970703,-1.3045044,0.24066162,-0.171875,11.765625,10.34375,202
203,1695773147607,-0.027832031,-0.677063,0.21209717,0.046875,9.515625,8.15625,203
204,1695773147647,-0.37060547,-1.0484009,0.15301514,-9.3125,0.234375,4.03125,204
205,1695773147687,-0.27172852,-0.8555298,0.33270264,0.59375,3.15625,-2.59375,205
206,1695773147727,-0.19921875,-0.8677368,0.20794678,-1.546875,-5.65625,-18.28125,206
207,1695773147767,-0.26708984,-1.47052,0.35369873,-6.421875,-5.78125,1.015625,207
208,1695773147807,0.1003418,-0.74053955,0.2387085,-5.734375,13.53125,10.0625,208
209,1695773147847,-0.3840332,-0.7703247,0.13739014,-8.28125,-8.625,5.703125,209
210,1695773147887,-0.28515625,-0.86431885,0.24334717,6.890625,3.390625,-2.015625,210
211,1695773147927,-0.26513672,-1.0425415,0.26800537,-0.296875,-13.765625,-15.953125,211
212,1695773147967,-0.15917969,-1.0725708,0.27459717,13.1875,16.828125,6.796875,212
213,1695773148007,-0.11376953,-1.0750122,0.3710327,2.0625,16.234375,6.59375,213
214,1695773148047,-0.16845703,-0.78790283,0.073913574,1.484375,5.0625,2.84375,214
215,1695773148087,-0.2355957,-0.9109497,0.26507568,6.484375,3.34375,5.40625,215
216,1695773148127,-0.21508789,-0.8648071,0.20233154,-3.359375,0.859375,-11.8125,216
217,1695773148167,-0.2097168,-1.2373657,0.35198975,4.546875,-16.90625,-20.34375,217
218,1695773148207,-0.119628906,-0.9585571,0.13861084,-3.515625,-0.8125,-6.546875,218
219,1695773148247,-0.12133789,-0.92559814,0.20037842,-3.671875,-7.71875,-4.796875,219
220,1695773148287,-0.30932617,-1.0818481,0.29974365,3.90625,1.546875,16.015625,220
221,1695773148327,-0.30786133,-0.897522,0.22235107,9.296875,7.703125,14.359375,221
222,1695773148367,-0.19189453,-0.895813,0.13861084,-6.65625,6.0625,-7.40625,222
223,1695773148407,-0.1574707,-0.9692993,0.1828003,-8.5625,-4.640625,-11.6875,223
224,1695773148447,-0.16308594,-1.0935669,0.29193115,-0.203125,0.953125,1.75,224
225,1695773148487,-0.2421875,-0.9104614,0.18890381,-5.875,-1.203125,5.9375,225
226,1695773148527,-0.2536621,-0.9915161,0.26068115,-1.03125,-2.703125,1.921875,226
227,1695773148567,-0.15478516,-0.9524536,0.21038818,-5.296875,-2.3125,0.078125,227
228,1695773148607,-0.17529297,-0.989563,0.27679443,-15.9375,-6.34375,-3.25,228
229,1695773148647,-0.1887207,-0.92926025,0.22723389,-20.28125,-5.625,-0.015625,229
230,1695773148687,-0.2685547,-0.9026489,0.24969482,-9.75,-25.421875,-7.453125,230
231,1695773148727,-0.16479492,-1.1177368,0.48919678,7.640625,3.171875,9.65625,231
232,1695773148767,-0.24951172,-0.90875244,0.19110107,-5.4375,-8.9375,8.125,232
233,1695773148807,-0.30249023,-0.8713989,0.21551514,-3.25,-12.40625,-1.578125,233
234,1695773148847,-0.14819336,-0.9002075,0.22576904,5.328125,1.1875,-3.53125,234
235,1695773148887,-0.19897461,-1.0725708,0.29022217,5.671875,-3.203125,3.109375,235
236,1695773148927,-0.1821289,-0.9312134,0.20672607,-1.578125,2.765625,1.484375,236
237,1695773148967,-0.19604492,-0.97735596,0.27996826,-2.609375,-1.9375,1.0,237
238,1695773149007,-0.21948242,-0.95513916,0.27166748,0.515625,-2.0,4.6875,238
239,1695773149047,-0.2097168,-0.94903564,0.22576904,-2.109375,-1.390625,-0.40625,239
240,1695773149087,-0.18701172,-0.95928955,0.24481201,-3.609375,-1.234375,-3.515625,240
241,1695773149127,-0.19360352,-1.0142212,0.28338623,-0.359375,-2.75,1.8125,241
242,1695773149167,-0.19335938,-0.9619751,0.2616577,1.4375,2.03125,3.1875,242
243,1695773149207,-0.2084961,-0.94854736,0.24505615,-0.078125,1.125,0.78125,243
244,1695773149247,-0.21484375,-0.93463135,0.20941162,1.84375,9.8125,-1.40625,244
245,1695773149287,-0.20800781,-0.95513916,0.26776123,2.859375,9.125,-1.375,245
246,1695773149327,-0.19921875,-0.9680786,0.20355225,0.609375,13.515625,2.78125,246
247,1695773149367,-0.15820312,-1.038147,0.3703003,4.6875,3.09375,-1.984375,247
248,1695773149407,-0.17993164,-0.9915161,0.23944092,5.296875,7.09375,9.59375,248
249,1695773149447,-0.16552734,-0.87677,0.1954956,6.28125,1.453125,2.546875,249
250,1695773149487,-0.12670898,-1.046936,0.29486084,5.828125,-0.296875,5.421875,250
251,1695773149527,-0.15893555,-0.9038696,0.12225342,-6.890625,2.171875,3.4375,251
252,1695773149567,-0.21582031,-0.954895,0.29486084,0.875,2.046875,-1.953125,252
253,1695773149607,-0.1184082,-1.0628052,0.2555542,5.71875,0.34375,3.75,253
254,1695773149647,-0.123291016,-0.93096924,0.23309326,-1.875,-2.375,2.640625,254
255,1695773149687,-0.15332031,-1.0527954,0.27703857,-30.40625,-16.625,2.28125,255
256,1695773149727,-0.2529297,-0.8789673,0.22210693,-13.75,-14.4375,-2.984375,256
257,1695773149767,-0.1274414,-1.055481,0.35198975,-1.28125,-6.234375,1.375,257
258,1695773149807,-0.1694336,-0.9338989,0.277771,-0.984375,-4.703125,3.109375,258
259,1695773149847,-0.15454102,-0.92437744,0.21160889,5.59375,0.6875,0.078125,259
260,1695773149887,-0.13354492,-0.93829346,0.2975464,-1.15625,-1.6875,0.765625,260
261,1695773149927,-0.15454102,-0.9968872,0.28289795,-5.734375,-7.625,0.78125,261
262,1695773149967,-0.1706543,-0.94000244,0.23919678,-8.0625,-6.125,-1.453125,262
263,1695773150007,-0.12670898,-1.0137329,0.3053589,-5.765625,-0.59375,-5.921875,263
264,1695773150047,-0.15161133,-0.96417236,0.27947998,-0.609375,-0.53125,0.484375,264
265,1695773150087,-0.15356445,-0.93829346,0.27581787,-0.1875,2.390625,-2.65625,265
266,1695773150127,-0.1628418,-0.9602661,0.27825928,-3.203125,6.8125,-2.0625,266
267,1695773150167,-0.1899414,-0.9873657,0.26971436,-1.40625,7.953125,-1.109375,267
268,1695773150207,-0.17114258,-1.0054321,0.23114014,-7.765625,16.796875,3.828125,268
269,1695773150247,-0.1652832,-0.9216919,0.36566162,7.953125,17.28125,4.25,269
270,1695773150287,-0.095458984,-1.0076294,0.3258667,15.140625,15.734375,12.046875,270
271,1695773150327,-0.13793945,-0.8311157,0.29974365,2.78125,6.9375,7.046875,271
272,1695773150367,-0.044433594,-1.0523071,0.30462646,-4.59375,-5.46875,-11.046875,272
273,1695773150407,-0.12963867,-0.89849854,0.23480225,-3.03125,-9.453125,-12.453125,273
274,1695773150447,-0.16918945,-1.0217896,0.30194092,11.453125,-3.546875,-2.859375,274
275,1695773150487,-0.17700195,-1.0020142,0.32537842,11.8125,2.15625,9.375,275
276,1695773150527,-0.13696289,-0.92803955,0.15423584,-8.078125,0.578125,-5.84375,276
277,1695773150567,-0.10205078,-0.9924927,0.22845459,-3.3125,-4.0625,-10.59375,277
278,1695773150607,-0.13793945,-1.0217896,0.3673706,11.625,12.671875,1.25,278
279,1695773150647,-0.15307617,-1.0164185,0.22088623,7.859375,1.3125,7.15625,279
280,1695773150687,-0.14428711,-0.87213135,0.04144287,-9.0625,-1.34375,-5.390625,280
281,1695773150727,-0.15600586,-1.0889282,0.4454956,12.828125,11.234375,-0.09375,281
282,1695773150767,-0.11303711,-0.9199829,0.23797607,11.296875,0.421875,6.375,282
283,1695773150807,-0.15820312,-0.8616333,0.184021,-1.03125,-11.84375,0.71875,283
284,1695773150847,-0.17602539,-0.9819946,0.3139038,-18.46875,-11.671875,-10.453125,284
285,1695773150887,-0.30200195,-1.0005493,0.2296753,-19.234375,-12.15625,-0.421875,285
286,1695773150927,-0.21850586,-0.8501587,0.33563232,-5.96875,-4.875,-1.984375,286
287,1695773150967,-0.05126953,-1.1511841,0.37469482,-12.984375,-1.640625,-0.40625,287
288,1695773151007,-0.13183594,-0.99835205,0.21063232,-15.390625,-8.609375,2.265625,288
289,1695773151047,-0.16967773,-0.80792236,0.20550537,9.84375,0.921875,-0.671875,289
290,1695773151087,-0.12646484,-1.0132446,0.3192749,16.46875,14.296875,4.984375,290
291,1695773151127,-0.19116211,-0.9585571,0.28656006,-7.953125,-8.453125,-0.078125,291
292,1695773151167,-0.21411133,-0.95684814,0.28216553,-7.796875,0.734375,-9.90625,292
293,1695773151207,-0.110839844,-1.0598755,0.32684326,-0.21875,-0.578125,-5.859375,293
294,1695773151247,-0.16967773,-0.90167236,0.2694702,4.0625,1.640625,2.3125,294
295,1695773151287,-0.15722656,-0.9373169,0.2855835,-0.734375,-4.25,-1.78125,295
296,1695773151327,-0.21240234,-0.95806885,0.3139038,-1.890625,-3.203125,2.625,296
297,1695773151367,-0.19970703,-0.986145,0.23699951,9.15625,5.75,2.328125,297
298,1695773151407,-0.09399414,-1.1853638,0.20941162,10.84375,8.765625,-0.84375,298
299,1695773151447,-0.061767578,-0.85601807,0.2975464,14.0625,26.859375,0.046875,299
300,1695773151487,-0.26049805,-0.9048462,0.25164795,1.671875,-6.3125,10.859375,300
301,1695773151527,-0.19067383,-0.7732544,0.2633667,-4.4375,-2.28125,-10.40625,301
302,1695773151567,-0.19555664,-1.1262817,0.30316162,-5.515625,-9.578125,-6.015625,302
303,1695773151607,-0.11010742,-1.0115356,0.2682495,-0.171875,-1.546875,-8.171875,303
304,1695773151647,-0.1665039,-0.97247314,0.28070068,8.5625,-4.453125,7.734375,304
305,1695773151687,-0.18139648,-0.9446411,0.24847412,1.4375,5.0625,10.28125,305
306,1695773151727,-0.1928711,-0.9961548,0.19940186,-0.125,-1.21875,0.453125,306
307,1695773151767,-0.10522461,-1.0117798,0.1593628,-1.328125,0.796875,-1.703125,307
308,1695773151807,-0.16699219,-0.9324341,0.3307495,3.046875,19.71875,0.828125,308
309,1695773151847,-0.1862793,-0.92633057,0.17254639,5.734375,-4.75,6.265625,309
310,1695773151887,-0.11621094,-0.9216919,0.25457764,5.53125,2.203125,-5.546875,310
311,1695773151927,-0.13012695,-1.081604,0.16937256,10.15625,-20.046875,-1.015625,311
312,1695773151967,-0.21557617,-1.0088501,0.38031006,20.578125,22.203125,21.390625,312
313,1695773152007,-0.06298828,-0.93170166,0.109802246,-13.421875,-5.640625,-10.5625,313
314,1695773152047,-0.20458984,-0.8435669,0.20355225,-10.234375,-9.9375,-8.609375,314
315,1695773152087,-0.19262695,-1.1074829,0.262146,5.53125,-19.359375,-4.296875,315
316,1695773152127,-0.19750977,-1.0264282,0.30047607,12.28125,3.296875,10.265625,316
317,1695773152167,0.0068359375,-0.9065552,0.08001709,-2.171875,4.78125,-6.609375,317
318,1695773152207,-0.13916016,-0.98883057,0.11639404,-5.65625,-23.171875,-10.765625,318
319,1695773152247,-0.3347168,-1.0679321,0.30096436,-0.734375,-3.6875,14.046875,319
320,1695773152287,-0.27685547,-0.86846924,0.16156006,2.203125,9.3125,3.625,320
321,1695773152327,-0.1430664,-1.0911255,0.15618896,5.09375,0.328125,-11.515625,321
322,1695773152367,-0.07495117,-0.96710205,0.18548584,-0.703125,17.28125,2.265625,322
323,1695773152407,-0.11791992,-0.9924927,0.14324951,-17.25,-6.953125,-2.984375,323
324,1695773152447,-0.28686523,-0.94317627,0.23822021,-13.546875,7.640625,0.5,324
325,1695773152487,-0.19482422,-0.8718872,0.16278076,-16.25,-1.609375,-15.9375,325
326,1695773152527,-0.17871094,-1.1043091,0.37127686,-13.3125,-2.0,-7.9375,326
327,1695773152567,-0.15063477,-1.008606,0.28411865,-25.140625,5.515625,-1.53125,327
328,1695773152607,-0.3071289,-0.86065674,0.26141357,-14.3125,-10.359375,5.453125,328
329,1695773152647,-0.17626953,-1.0606079,0.30755615,-6.421875,-5.484375,0.140625,329
330,1695773152687,-0.16015625,-0.9590454,0.3307495,0.671875,9.84375,11.140625,330
331,1695773152727,-0.1821289,-0.9133911,0.22796631,4.953125,-0.21875,5.953125,331
332,1695773152767,-0.080078125,-0.96099854,0.30316162,0.265625,0.65625,2.34375,332
333,1695773152807,-0.14575195,-0.9002075,0.27923584,-3.5,5.890625,-1.09375,333
334,1695773152847,-0.18261719,-0.881897,0.29266357,12.078125,6.359375,-7.546875,334
335,1695773152887,-0.10986328,-1.0569458,0.36419678,5.15625,-6.25,-3.359375,335
336,1695773152927,-0.18847656,-0.9727173,0.24676514,-6.421875,-5.78125,0.40625,336
337,1695773152967,-0.19970703,-0.94537354,0.31536865,-3.96875,-4.53125,3.78125,337
338,1695773153007,-0.21459961,-0.96173096,0.29437256,1.015625,-4.8125,3.515625,338
339,1695773153047,-0.18774414,-0.9019165,0.29241943,-0.296875,2.453125,-3.6875,339
340,1695773153087,-0.13452148,-1.050354,0.26287842,2.6875,-0.484375,-3.171875,340
341,1695773153127,-0.16455078,-0.925354,0.23675537,-4.25,-2.390625,-0.375,341
342,1695773153167,-0.20336914,-0.9590454,0.31097412,-1.34375,-2.5,-0.390625,342
343,1695773153207,-0.24609375,-0.96221924,0.34344482,6.328125,4.8125,3.4375,343
344,1695773153247,-0.14819336,-0.9619751,0.27386475,1.765625,4.078125,0.734375,344
345,1695773153287,-0.1274414,-0.93829346,0.25579834,-5.984375,-0.765625,-5.734375,345
346,1695773153327,-0.20336914,-1.0122681,0.3139038,0.3125,0.265625,-1.890625,346
347,1695773153367,-0.21289062,-0.9277954,0.28729248,1.09375,3.703125,1.078125,347
348,1695773153407,-0.15576172,-0.9365845,0.2723999,-2.9375,4.171875,-3.328125,348
349,1695773153447,-0.13574219,-1.0176392,0.32073975,3.625,-2.5625,-3.484375,349
350,1695773153487,-0.18286133,-0.9360962,0.293396,5.515625,5.625,2.671875,350
351,1695773153527,-0.16186523,-1.2039185,0.15447998,4.28125,0.3125,-5.71875,351
352,1695773153567,-0.15844727,-0.8262329,0.35150146,16.828125,16.28125,0.859375,352
353,1695773153607,-0.20239258,-1.0193481,0.1786499,-1.5625,-0.9375,5.96875,353
354,1695773153647,-0.17578125,-0.8652954,0.2243042,0.21875,1.046875,-1.75,354
355,1695773153687,-0.1875,-1.1265259,0.3817749,8.875,6.90625,15.8125,355
356,1695773153727,-0.111816406,-0.85406494,0.2062378,-7.71875,5.171875,-1.828125,356
357,1695773153767,-0.095703125,-1.0066528,0.20355225,-22.3125,-15.0,-13.0625,357
358,1695773153807,-0.15966797,-0.9336548,0.28070068,-10.421875,-6.03125,-2.65625,358
359,1695773153847,-0.16015625,-0.97247314,0.2597046,-11.1875,-8.484375,-0.015625,359
360,1695773153887,-0.1965332,-0.91729736,0.28216553,-22.015625,-10.984375,-5.609375,360
361,1695773153927,-0.22851562,-0.9771118,0.37835693,-23.421875,-10.5625,-5.9375,361
362,1695773153967,-0.25830078,-1.0288696,0.4100952,-15.4375,-15.8125,7.046875,362
363,1695773154007,-0.22314453,-0.94195557,0.3991089,-2.984375,-1.796875,12.1875,363
364,1695773154047,-0.23291016,-0.87042236,0.32684326,5.453125,6.453125,7.8125,364
365,1695773154087,-0.09301758,-0.91973877,0.30316162,11.359375,5.21875,5.484375,365
366,1695773154127,-0.1472168,-0.93536377,0.277771,3.140625,1.078125,-1.140625,366
367,1695773154167,-0.13500977,-0.9854126,0.3710327,4.84375,3.703125,-1.625,367
368,1695773154207,-0.17138672,-0.9680786,0.371521,2.65625,1.40625,2.53125,368
369,1695773154247,-0.15185547,-0.958313,0.2819214,-4.21875,-2.734375,-1.59375,369
370,1695773154287,-0.16625977,-0.94000244,0.3204956,3.203125,2.96875,2.8125,370
371,1695773154327,-0.13720703,-0.98516846,0.3480835,2.828125,2.671875,2.453125,371
372,1695773154367,-0.17407227,-0.89801025,0.33685303,-2.359375,3.015625,-0.265625,372
373,1695773154407,-0.12573242,-0.9463501,0.3168335,0.734375,6.109375,-4.078125,373
374,1695773154447,-0.12011719,-0.95025635,0.32733154,2.25,4.140625,-3.640625,374
375,1695773154487,-0.12768555,-0.97198486,0.3048706,-1.5,9.765625,2.09375,375
376,1695773154527,-0.17944336,-0.9463501,0.32806396,-3.890625,1.09375,-8.015625,376
377,1695773154567,-0.13769531,-1.0010376,0.31976318,7.453125,7.015625,3.890625,377
378,1695773154607,-0.19042969,-0.88067627,0.3366089,9.015625,8.296875,-1.65625,378
379,1695773154647,-0.1262207,-1.0784302,0.36175537,10.421875,2.5,-2.234375,379
380,1695773154687,-0.21044922,-0.84747314,0.21746826,-1.328125,1.15625,2.109375,380
381,1695773154727,-0.061035156,-1.0442505,0.34906006,2.171875,0.828125,-10.359375,381
382,1695773154767,-0.16601562,-0.95196533,0.25701904,0.078125,-3.046875,4.0,382
383,1695773154807,-0.19091797,-0.93170166,0.34490967,4.984375,-1.921875,-5.203125,383
384,1695773154847,-0.23925781,-0.9529419,0.3024292,-1.171875,-8.65625,1.578125,384
385,1695773154887,-0.106933594,-0.9221802,0.22625732,1.328125,4.171875,-7.546875,385
386,1695773154927,-0.103027344,-1.1204224,0.30096436,9.8125,-1.890625,-1.265625,386
387,1695773154967,-0.21655273,-0.94366455,0.27825928,-1.9375,-2.625,7.734375,387
388,1695773155007,-0.24658203,-0.848938,0.2850952,-17.75,-14.421875,-7.34375,388
389,1695773155047,-0.21313477,-1.0667114,0.307312,-5.296875,-11.15625,-6.875,389
390,1695773155087,-0.14111328,-0.9795532,0.28094482,1.8125,3.21875,4.515625,390
391,1695773155127,-0.20507812,-0.9180298,0.25335693,6.34375,1.359375,3.328125,391
392,1695773155167,-0.13500977,-0.9846802,0.30218506,6.21875,-0.546875,2.296875,392
393,1695773155207,-0.16015625,-0.9299927,0.26898193,-5.25,-7.03125,3.0,393
394,1695773155247,-0.17749023,-0.95684814,0.2098999,-6.5,-6.40625,-5.078125,394
395,1695773155287,-0.17553711,-0.97320557,0.2880249,-4.578125,-1.09375,-5.65625,395
396,1695773155327,-0.18164062,-1.0237427,0.338562,0.171875,3.546875,-0.125,396
397,1695773155367,-0.19995117,-0.92266846,0.24066162,-0.96875,3.921875,2.375,397
398,1695773155407,-0.21899414,-0.9421997,0.27386475,6.75,12.59375,0.578125,398
399,1695773155447,-0.1262207,-1.1272583,0.2748413,-1.78125,10.3125,-1.953125,399
400,1695773155487,-0.13720703,-0.96099854,0.2645874,5.328125,14.671875,-3.203125,400
401,1695773155527,-0.25268555,-0.7390747,0.24505615,3.984375,7.34375,8.140625,401
402,1695773155567,-0.045410156,-0.9631958,0.27703857,-1.65625,-3.78125,-12.90625,402
403,1695773155607,-0.20947266,-1.0427856,0.25872803,-2.84375,-2.15625,1.140625,403
404,1695773155647,-0.18457031,-1.112854,0.41278076,8.203125,-0.46875,0.3125,404
405,1695773155687,-0.12548828,-0.94976807,0.19378662,-4.53125,2.53125,2.140625,405
406,1695773155727,-0.24023438,-0.78863525,0.18841553,1.234375,0.625,1.953125,406
407,1695773155767,-0.2019043,-1.0305786,0.25775146,11.3125,2.421875,3.0,407
408,1695773155807,-0.22998047,-1.0889282,0.354187,-1.65625,-0.84375,-2.578125,408
409,1695773155847,-0.030273438,-0.96466064,0.26654053,1.75,7.4375,-4.578125,409
410,1695773155887,-0.12597656,-0.83135986,0.13470459,-5.4375,-9.5625,-2.78125,410
411,1695773155927,-0.17211914,-0.97613525,0.28338623,5.34375,-4.125,5.25,411
412,1695773155967,-0.28515625,-1.086731,0.2670288,1.46875,-12.234375,4.9375,412
413,1695773156007,-0.06347656,-0.8845825,0.2321167,7.71875,20.75,-1.515625,413
414,1695773156047,-0.12524414,-0.9155884,0.1486206,-6.53125,-3.53125,-5.8125,414
415,1695773156087,-0.17089844,-1.0022583,0.28875732,-4.328125,-4.046875,-1.90625,415
416,1695773156127,-0.28979492,-1.036438,0.26019287,-9.875,-10.828125,-1.15625,416
417,1695773156167,-0.14746094,-0.97442627,0.2699585,-10.03125,9.53125,-8.15625,417
418,1695773156207,-0.11767578,-0.989563,0.2526245,-29.875,-10.21875,-3.046875,418
419,1695773156247,-0.20507812,-0.99713135,0.31341553,-12.015625,-20.125,7.015625,419
420,1695773156287,-0.22387695,-0.91241455,0.35736084,-5.984375,-3.765625,13.140625,420
421,1695773156327,-0.17602539,-0.86431885,0.22161865,12.640625,4.828125,-9.375,421
422,1695773156367,-0.09448242,-1.0276489,0.27069092,10.359375,4.21875,-4.46875,422
423,1695773156407,-0.14990234,-0.88848877,0.2609253,-1.53125,0.484375,0.5625,423
424,1695773156447,-0.19970703,-0.9973755,0.28656006,-2.09375,-4.609375,-0.765625,424
425,1695773156487,-0.19848633,-0.97320557,0.2814331,-0.125,-1.765625,-2.546875,425
426,1695773156527,-0.17089844,-0.94659424,0.26483154,3.28125,3.53125,-4.0625,426
427,1695773156567,-0.16455078,-0.99224854,0.28753662,2.953125,2.53125,-2.375,427
428,1695773156607,-0.19335938,-0.9221802,0.30169678,3.515625,1.828125,-1.734375,428
429,1695773156647,-0.20092773,-1.0593872,0.09051514,4.328125,4.328125,-1.09375,429
430,1695773156687,-0.14111328,-0.9192505,0.41497803,10.484375,15.96875,3.09375,430
431,1695773156727,-0.123535156,-1.0320435,0.17767334,2.59375,2.203125,0.9375,431
432,1695773156767,-0.2055664,-0.76397705,0.24432373,1.125,0.828125,-4.109375,432
433,1695773156807,-0.19604492,-1.0806274,0.30511475,-4.109375,-12.671875,-3.515625,433
434,1695773156847,-0.21313477,-0.9055786,0.2411499,-0.890625,-6.453125,-3.390625,434
435,1695773156887,-0.23852539,-1.1082153,0.3534546,1.8125,0.6875,1.046875,435
436,1695773156927,-0.2121582,-0.9585571,0.19378662,0.6875,1.015625,9.703125,436
437,1695773156967,-0.2607422,-0.87384033,0.2086792,-4.875,-0.609375,1.203125,437
438,1695773157007,-0.21826172,-0.9780884,0.2819214,4.109375,4.421875,-3.328125,438
439,1695773157047,-0.13964844,-1.0020142,0.26898193,2.71875,0.53125,-8.0,439
440,1695773157087,-0.12231445,-1.0339966,0.24383545,-8.296875,-6.65625,-1.765625,440
441,1695773157127,-0.2512207,-0.9819946,0.2333374,-5.875,-11.9375,6.96875,441
442,1695773157167,-0.22192383,-0.9397583,0.27923584,-6.09375,-5.71875,5.546875,442
443,1695773157207,-0.24487305,-0.8689575,0.16766357,-4.359375,-4.328125,-4.921875,443
444,1695773157247,-0.13183594,-1.0300903,0.2567749,11.484375,6.890625,-4.59375,444
445,1695773157287,-0.19970703,-0.9885864,0.26190186,0.8125,3.546875,4.5625,445
446,1695773157327,-0.21728516,-0.92681885,0.21063232,-4.5625,-0.78125,-0.09375,446
447,1695773157367,-0.19921875,-0.97442627,0.25579834,-2.03125,0.828125,0.625,447
448,1695773157407,-0.21240234,-0.96759033,0.2374878,0.0,2.296875,2.453125,448
449,1695773157447,-0.19262695,-0.95806885,0.2543335,1.28125,4.421875,-1.0625,449
450,1695773157487,-0.19067383,-1.0227661,0.24920654,-0.5625,4.59375,-1.484375,450
451,1695773157527,-0.15429688,-0.9553833,0.11444092,-1.921875,11.734375,-2.5,451
452,1695773157567,-0.15429688,-1.0203247,0.36590576,5.421875,19.0625,0.78125,452
453,1695773157607,-0.21533203,-0.909729,0.2033081,4.234375,6.625,10.671875,453
454,1695773157647,-0.14697266,-0.92803955,0.29632568,-4.203125,-1.375,-5.46875,454
455,1695773157687,-0.20996094,-0.92022705,0.16986084,2.828125,1.296875,-1.125,455
456,1695773157727,-0.16137695,-0.9937134,0.31536865,1.828125,1.890625,-6.3125,456
457,1695773157767,-0.18066406,-1.0322876,0.2958374,6.546875,5.28125,1.875,457
458,1695773157807,-0.21044922,-0.9163208,0.12225342,-6.234375,-0.203125,-1.828125,458
459,1695773157847,-0.19018555,-1.0569458,0.23529053,0.234375,-5.140625,0.34375,459
460,1695773157887,-0.1105957,-0.94122314,0.31951904,13.21875,20.15625,3.34375,460
461,1695773157927,-0.1784668,-0.8423462,0.09588623,3.1875,0.734375,-2.046875,461
462,1695773157967,-0.22216797,-1.0505981,0.2543335,-4.015625,-14.859375,-6.390625,462
463,1695773158007,-0.18481445,-1.041565,0.34539795,4.125,8.46875,4.375,463
464,1695773158047,-0.15771484,-0.8911743,0.1437378,-1.375,-5.578125,-2.9375,464
465,1695773158087,-0.24047852,-0.9849243,0.31585693,7.109375,-2.15625,5.3125,465
466,1695773158127,-0.1850586,-0.9898071,0.17327881,-8.765625,0.890625,0.453125,466
467,1695773158167,-0.17773438,-1.0437622,0.22918701,-17.6875,-6.84375,-4.34375,467
468,1695773158207,-0.14428711,-0.76568604,0.16815186,-19.828125,-16.453125,-16.265625,468
469,1695773158247,-0.28125,-1.3013306,0.46966553,-8.9375,-23.0625,5.5,469
470,1695773158287,-0.10644531,-0.8399048,0.15887451,0.453125,9.5,12.109375,470
471,1695773158327,-0.22998047,-0.9434204,0.16619873,-6.921875,-15.390625,-0.5,471
472,1695773158367,-0.22998047,-0.85113525,0.29144287,13.75,4.0625,9.140625,472
473,1695773158407,-0.21118164,-1.0081177,0.29144287,0.578125,3.90625,1.40625,473
474,1695773158447,-0.17138672,-0.9258423,0.20721436,-2.03125,-0.0625,-6.328125,474
475,1695773158487,-0.14672852,-1.0361938,0.2975464,-3.21875,-4.140625,-5.15625,475
476,1695773158527,-0.19677734,-0.97662354,0.2387085,-1.296875,1.25,4.6875,476
477,1695773158567,-0.20751953,-0.9194946,0.22137451,-1.078125,3.078125,-0.140625,477
478,1695773158607,-0.18847656,-0.9985962,0.2789917,3.78125,5.265625,0.0625,478
479,1695773158647,-0.1862793,-0.99591064,0.25482178,-0.453125,4.703125,1.203125,479
480,1695773158687,-0.1586914,-0.9434204,0.21429443,-2.796875,3.21875,-1.796875,480
481,1695773158727,-0.17773438,-0.9717407,0.26776123,1.71875,3.90625,-0.421875,481
482,1695773158767,-0.19580078,-0.97076416,0.23577881,0.515625,5.796875,1.671875,482
483,1695773158807,-0.21118164,-0.909729,0.20037842,-5.203125,10.625,-3.71875,483
484,1695773158847,-0.14355469,-1.0825806,0.33831787,3.21875,5.796875,-8.515625,484
485,1695773158887,-0.13378906,-0.9636841,0.26190186,0.8125,8.703125,-0.125,485
486,1695773158927,-0.22558594,-0.8635864,0.17767334,-1.734375,3.71875,3.796875,486
487,1695773158967,-0.1809082,-0.94122314,0.3143921,-4.984375,-1.109375,-6.546875,487
488,1695773159007,-0.18798828,-1.0410767,0.35736084,7.203125,-0.828125,-4.65625,488
489,1695773159047,-0.19873047,-0.93341064,0.16668701,-2.03125,3.234375,-1.75,489
490,1695773159087,-0.17236328,-0.9932251,0.2506714,-2.0625,-2.28125,-5.125,490
491,1695773159127,-0.25512695,-1.0100708,0.32513428,7.0625,3.6875,10.390625,491
492,1695773159167,-0.17504883,-0.8796997,0.20355225,-6.171875,2.203125,-3.4375,492
493,1695773159207,-0.19726562,-0.98028564,0.2975464,2.6875,-3.296875,-3.578125,493
494,1695773159247,-0.13720703,-0.97442627,0.26849365,2.5,0.953125,1.359375,494
495,1695773159287,-0.12573242,-1.0532837,0.28582764,-12.609375,-15.21875,0.9375,495
496,1695773159327,-0.25732422,-0.9780884,0.2477417,-16.890625,-18.15625,4.75,496
497,1695773159367,-0.3125,-0.8987427,0.27435303,-0.40625,-9.953125,1.234375,497
498,1695773159407,-0.18237305,-0.93829346,0.25457764,7.28125,6.625,-1.296875,498
499,1695773159447,-0.16870117,-0.9595337,0.21575928,2.71875,-3.125,-0.734375,499
500,1695773159487,-0.12451172,-0.96832275,0.24090576,4.9375,3.28125,5.5625,500
501,1695773159527,-0.2253418,-0.9963989,0.28289795,0.53125,0.546875,7.953125,501
502,1695773159567,-0.20947266,-0.911438,0.23260498,-1.46875,0.015625,-2.03125,502
503,1695773159607,-0.16845703,-0.97979736,0.23846436,-5.265625,-2.109375,-6.015625,503
504,1695773159647,-0.17773438,-0.9817505,0.27752686,-0.875,-0.890625,0.65625,504
505,1695773159687,-0.21191406,-0.97320557,0.25946045,-0.375,2.671875,2.9375,505
506,1695773159727,-0.21875,-0.96466064,0.26531982,3.296875,5.640625,1.625,506
507,1695773159767,-0.19433594,-0.97662354,0.24285889,-1.421875,7.40625,0.40625,507
508,1695773159807,-0.16479492,-1.0344849,0.16741943,-9.734375,10.890625,-2.625,508
509,1695773159847,-0.068359375,-0.8508911,0.322937,-3.859375,12.546875,-5.265625,509
510,1695773159887,-0.17797852,-1.0383911,0.27801514,5.0625,-0.09375,7.078125,510
511,1695773159927,-0.19458008,-0.86309814,0.30340576,0.671875,-2.6875,-3.359375,511
512,1695773159967,-0.21484375,-0.9998169,0.26483154,-1.09375,-5.78125,-0.4375,512
513,1695773160007,-0.1953125,-0.97003174,0.21087646,-5.796875,-0.984375,-0.984375,513
514,1695773160047,-0.1538086,-0.9985962,0.3776245,1.359375,7.203125,-4.671875,514
515,1695773160087,-0.21264648,-0.91485596,0.21502686,0.671875,2.890625,3.671875,515
516,1695773160127,-0.16577148,-0.9324341,0.16082764,-1.28125,-3.015625,-5.90625,516
517,1695773160167,-0.15698242,-1.0942993,0.45159912,14.234375,8.890625,2.65625,517
518,1695773160207,-0.16992188,-0.9480591,0.25164795,-0.078125,0.640625,5.15625,518
519,1695773160247,-0.24438477,-0.8364868,0.15789795,-1.78125,-5.15625,-5.0,519
520,1695773160287,-0.1743164,-1.0359497,0.29241943,-3.90625,-1.15625,-5.390625,520
521,1695773160327,-0.18188477,-1.0310669,0.30926514,1.859375,-1.25,-3.078125,521
522,1695773160367,-0.10644531,-0.9807739,0.2711792,4.53125,7.640625,3.40625,522
523,1695773160407,-0.2434082,-0.88775635,0.15570068,-2.65625,-2.0625,6.609375,523
524,1695773160447,-0.13720703,-0.93951416,0.26800537,-1.75,-3.890625,-5.796875,524
525,1695773160487,-0.2319336,-1.0261841,0.2741089,1.375,-6.34375,0.21875,525
526,1695773160527,-0.19165039,-0.9089966,0.2616577,4.90625,7.328125,1.84375,526
527,1695773160567,-0.1303711,-1.0020142,0.21966553,-9.6875,-3.3125,-2.15625,527
528,1695773160607,-0.19506836,-1.0125122,0.2662964,-5.984375,-4.828125,0.828125,528
529,1695773160647,-0.20922852,-0.98638916,0.2555542,0.546875,4.09375,3.421875,529
530,1695773160687,-0.2290039,-0.88360596,0.27264404,-2.015625,5.875,-2.421875,530
531,1695773160727,-0.15551758,-1.0134888,0.24749756,1.046875,9.484375,-1.28125,531
532,1695773160767,-0.114746094,-0.98321533,0.2819214,-8.421875,-1.3125,-2.28125,532
533,1695773160807,-0.25830078,-1.0344849,0.3222046,-12.125,-11.921875,-0.5,533
534,1695773160847,-0.18896484,-0.89849854,0.29266357,-8.359375,-7.84375,-2.609375,534
535,1695773160887,-0.18774414,-0.9981079,0.2975464,-2.796875,-7.328125,1.65625,535
536,1695773160927,-0.16577148,-0.9429321,0.2687378,0.46875,0.59375,5.875,536
537,1695773160967,-0.19677734,-0.94073486,0.26263428,-8.265625,-7.6875,-2.4375,537
538,1695773161007,-0.18896484,-0.93634033,0.2567749,3.59375,0.515625,-3.015625,538
539,1695773161047,-0.123535156,-0.9841919,0.29779053,6.359375,3.578125,1.296875,539
540,1695773161087,-0.1875,-0.96343994,0.31414795,-0.96875,-3.546875,2.640625,540
541,1695773161127,-0.19335938,-0.9324341,0.21795654,-5.078125,-4.53125,-3.796875,541
542,1695773161167,-0.16430664,-0.96221924,0.2609253,-6.6875,-4.4375,-3.3125,542
543,1695773161207,-0.17285156,-0.99420166,0.31756592,0.796875,-2.1875,-0.9375,543
544,1695773161247,-0.18457031,-0.9734497,0.28753662,4.171875,2.53125,-0.765625,544
545,1695773161287,-0.23754883,-0.9248657,0.27020264,3.90625,2.671875,-1.046875,545
546,1695773161327,-0.23242188,-0.9390259,0.30999756,-1.53125,2.453125,-6.21875,546
547,1695773161367,-0.19384766,-0.9397583,0.18670654,-8.5625,3.0,-13.703125,547
548,1695773161407,-0.20263672,-1.013977,0.38568115,1.265625,5.625,-12.265625,548
549,1695773161447,-0.20239258,-0.98150635,0.29681396,4.078125,8.609375,7.84375,549
550,1695773161487,-0.19702148,-0.9011841,0.23358154,-5.34375,-2.015625,-3.796875,550
551,1695773161527,-0.24121094,-1.0059204,0.37786865,16.3125,8.859375,5.78125,551
552,1695773161567,-0.2788086,-0.91607666,0.23919678,6.0,7.125,4.359375,552
553,1695773161607,-0.18676758,-0.89678955,0.22064209,-11.890625,-3.28125,-8.40625,553
554,1695773161647,-0.16064453,-1.1167603,0.39691162,11.46875,6.421875,-0.25,554
555,1695773161687,-0.24609375,-0.8508911,0.23040771,3.578125,7.078125,10.203125,555
556,1695773161727,-0.18823242,-0.90338135,0.25408936,-3.0625,-5.515625,-2.015625,556
557,1695773161767,-0.21289062,-0.9849243,0.30828857,6.125,0.625,-0.640625,557
558,1695773161807,-0.22802734,-0.973938,0.24749756,5.375,2.265625,1.453125,558
559,1695773161847,-0.22558594,-1.0283813,0.32269287,6.234375,0.75,3.015625,559
560,1695773161887,-0.24804688,-0.9541626,0.2765503,-12.03125,-7.578125,3.640625,560
561,1695773161927,-0.1730957,-0.9170532,0.19232178,-11.953125,-12.640625,-4.609375,561
562,1695773161967,-0.17773438,-1.0593872,0.33514404,0.890625,-3.125,5.875,562
563,1695773162007,-0.18188477,-0.89019775,0.17010498,-1.671875,-2.015625,2.78125,563
564,1695773162047,-0.15600586,-0.9151001,0.2387085,6.84375,2.078125,1.0,564
565,1695773162087,-0.1586914,-1.0213013,0.31878662,0.359375,-2.3125,4.84375,565
566,1695773162127,-0.23095703,-0.9092407,0.23406982,-3.140625,-7.328125,2.796875,566
567,1695773162167,-0.19335938,-0.9771118,0.24822998,-8.65625,-4.84375,-7.90625,567
568,1695773162207,-0.1862793,-1.0112915,0.28900146,-0.015625,-1.65625,-0.8125,568
569,1695773162247,-0.21411133,-0.94195557,0.27191162,-0.953125,-0.125,1.484375,569
570,1695773162287,-0.20483398,-0.9661255,0.262146,-0.125,-1.234375,-1.5,570
571,1695773162327,-0.18847656,-0.9631958,0.26605225,-2.109375,1.0625,-2.546875,571
572,1695773162367,-0.21362305,-0.99835205,0.23065186,-3.46875,3.515625,-2.28125,572
573,1695773162407,-0.18066406,-0.9570923,0.29119873,3.484375,8.140625,-1.671875,573
574,1695773162447,-0.18237305,-0.9819946,0.2633667,0.609375,2.765625,-0.703125,574
575,1695773162487,-0.1628418,-0.9534302,0.21160889,-8.59375,-4.703125,-6.515625,575
576,1695773162527,-0.20776367,-0.9812622,0.36151123,-2.84375,-10.328125,0.171875,576
577,1695773162567,-0.2668457,-0.8555298,0.21697998,-3.5,-1.578125,-3.40625,577
578,1695773162607,-0.2397461,-0.94659424,0.3012085,5.96875,5.53125,-3.484375,578
579,1695773162647,-0.19018555,-1.0252075,0.30633545,7.46875,5.765625,1.390625,579
580,1695773162687,-0.19360352,-0.909729,0.21429443,-0.640625,3.828125,2.828125,580
581,1695773162727,-0.22998047,-0.9985962,0.3241577,1.96875,-1.171875,-1.640625,581
582,1695773162767,-0.25585938,-0.9456177,0.23431396,1.21875,4.578125,0.109375,582
583,1695773162807,-0.19433594,-0.89312744,0.19793701,-3.796875,5.15625,-5.859375,583
584,1695773162847,-0.15039062,-1.098938,0.3378296,5.953125,-1.484375,-6.265625,584
585,1695773162887,-0.23168945,-0.9680786,0.26971436,1.515625,2.21875,10.3125,585
586,1695773162927,-0.234375,-0.92437744,0.27142334,-11.609375,-7.609375,2.375,586
587,1695773162967,-0.2927246,-0.9607544,0.27313232,-6.65625,-8.75,-2.578125,587
588,1695773163007,-0.19677734,-0.9949341,0.30267334,0.65625,-1.03125,2.828125,588
589,1695773163047,-0.18652344,-0.9216919,0.22503662,-2.859375,-1.203125,-0.609375,589
590,1695773163087,-0.17382812,-0.9663696,0.26116943,0.625,0.03125,2.25,590
591,1695773163127,-0.22827148,-0.95635986,0.31097412,-3.203125,-7.40625,3.265625,591
592,1695773163167,-0.22143555,-0.9651489,0.25628662,-5.0,-3.4375,1.875,592
593,1695773163207,-0.18579102,-0.9729614,0.2765503,-3.921875,-1.484375,-2.4375,593
594,1695773163247,-0.2133789,-0.97076416,0.30218506,-2.53125,0.875,1.53125,594
595,1695773163287,-0.22729492,-0.94000244,0.2741089,-2.890625,-0.65625,0.5625,595
596,1695773163327,-0.20678711,-0.9553833,0.2855835,0.0,1.4375,-0.640625,596
597,1695773163367,-0.21411133,-0.9414673,0.2843628,-0.71875,7.953125,0.53125,597
598,1695773163407,-0.19238281,-0.96832275,0.24505615,-3.359375,9.0,0.015625,598
599,1695773163447,-0.1928711,-0.9480591,0.36029053,3.265625,6.1875,-4.015625,599
600,1695773163487,-0.1628418,-0.97491455,0.2189331,-5.40625,7.578125,1.28125,600
601,1695773163527,-0.22680664,-0.9048462,0.32781982,-4.078125,-3.625,-5.578125,601
602,1695773163567,-0.17797852,-1.0183716,0.28582764,4.40625,5.046875,-1.078125,602
603,1695773163607,-0.20751953,-0.880188,0.30926514,2.4375,3.71875,-0.03125,603
604,1695773163647,-0.20385742,-1.0374146,0.33319092,6.890625,-0.078125,0.109375,604
605,1695773163687,-0.22216797,-0.91851807,0.21453857,2.890625,2.75,3.984375,605
606,1695773163727,-0.15112305,-0.9602661,0.29315186,3.078125,-2.328125,-2.4375,606
607,1695773163767,-0.19042969,-1.0044556,0.31170654,8.109375,-0.796875,6.3125,607
608,1695773163807,-0.20288086,-0.9138794,0.24822998,-3.0625,-2.796875,-2.984375,608
609,1695773163847,-0.17749023,-1.006897,0.28460693,3.828125,-6.875,-2.625,609
610,1695773163887,-0.15820312,-1.0081177,0.31903076,1.484375,-6.484375,2.34375,610
611,1695773163927,-0.2319336,-0.9324341,0.24554443,-9.078125,-15.828125,3.265625,611
612,1695773163967,-0.25097656,-1.0078735,0.2826538,-8.546875,-6.421875,2.359375,612
613,1695773164007,-0.21484375,-0.8687134,0.2230835,6.109375,-2.96875,0.71875,613
614,1695773164047,-0.22094727,-1.0142212,0.3258667,5.25,2.765625,2.125,614
615,1695773164087,-0.16625977,-0.9451294,0.2086792,4.1875,2.421875,-2.671875,615
616,1695773164127,-0.18457031,-0.9468384,0.25994873,2.78125,5.65625,2.75,616
617,1695773164167,-0.23266602,-1.0203247,0.19476318,-4.4375,4.734375,-3.15625,617
618,1695773164207,-0.18066406,-0.9326782,0.2687378,1.515625,14.453125,-2.40625,618
619,1695773164247,-0.1940918,-1.0979614,0.23284912,7.265625,11.96875,-1.25,619
620,1695773164287,-0.18701172,-0.86846924,0.24334717,4.625,14.828125,2.5625,620
621,1695773164327,-0.16894531,-1.017395,0.31341553,2.6875,-3.453125,0.859375,621
622,1695773164367,-0.21557617,-0.7854614,0.082458496,2.328125,4.34375,0.078125,622
623,1695773164407,-0.22192383,-1.1465454,0.4208374,7.09375,-3.34375,-5.109375,623
624,1695773164447,-0.22973633,-1.0322876,0.19403076,-3.265625,7.953125,5.046875,624
625,1695773164487,-0.15942383,-0.86383057,0.16326904,-6.890625,-1.453125,-7.578125,625
626,1695773164527,-0.17578125,-0.95318604,0.2098999,9.28125,-7.96875,4.765625,626
627,1695773164567,-0.3239746,-0.96539307,0.3764038,11.59375,8.796875,10.359375,627
628,1695773164607,-0.083984375,-0.94659424,0.07562256,-7.671875,5.328125,-8.40625,628
629,1695773164647,-0.13500977,-1.0855103,0.2592163,-2.890625,-8.5625,-9.59375,629
630,1695773164687,-0.23828125,-0.8933716,0.23406982,9.421875,2.84375,13.40625,630
631,1695773164727,-0.3461914,-1.019104,0.29388428,4.09375,2.296875,10.453125,631
632,1695773164767,-0.14404297,-0.9368286,0.12786865,-5.03125,2.828125,-8.953125,632
633,1695773164807,-0.08959961,-0.9199829,0.1593628,-3.1875,8.171875,-0.3125,633
634,1695773164847,-0.13183594,-1.1275024,0.28411865,-2.203125,-0.265625,-0.84375,634
635,1695773164887,-0.2253418,-0.909729,0.22113037,5.59375,6.21875,4.203125,635
636,1695773164927,-0.13891602,-0.90460205,0.18719482,-0.15625,0.265625,-14.53125,636
637,1695773164967,-0.20410156,-1.03302,0.25286865,1.125,-11.34375,-9.5625,637
638,1695773165007,-0.25341797,-0.9561157,0.1954956,-7.625,-1.5625,4.109375,638
639,1695773165047,-0.14111328,-1.0420532,0.23797607,-13.6875,-7.609375,-6.796875,639
640,1695773165087,-0.234375,-1.0003052,0.2592163,0.546875,-4.96875,4.59375,640
641,1695773165127,-0.1550293,-0.8591919,0.18353271,-2.84375,0.015625,-1.375,641
642,1695773165167,-0.17773438,-1.0032349,0.24310303,-12.015625,-3.890625,-8.53125,642
643,1695773165207,-0.20751953,-0.98760986,0.26385498,-7.125,-9.625,-6.125,643
644,1695773165247,-0.29370117,-0.9500122,0.28411865,-10.234375,-23.6875,-2.328125,644
645,1695773165287,-0.28076172,-0.9932251,0.35394287,-6.28125,-13.203125,1.453125,645
646,1695773165327,-0.19970703,-0.9434204,0.2255249,-4.46875,-3.0,-3.8125,646
647,1695773165367,-0.18725586,-0.9487915,0.2020874,1.84375,-7.125,-1.921875,647
648,1695773165407,-0.22241211,-0.9468384,0.23724365,1.890625,-6.359375,-1.359375,648
649,1695773165447,-0.25927734,-0.9920044,0.2921753,-2.921875,-6.125,0.34375,649
650,1695773165487,-0.27954102,-0.9170532,0.25360107,-7.5,-8.71875,-4.140625,650
651,1695773165527,-0.27246094,-0.9468384,0.25408936,-10.828125,-7.71875,-10.09375,651
652,1695773165567,-0.28100586,-0.9678345,0.27947998,0.921875,-2.0,-3.484375,652
653,1695773165607,-0.2783203,-0.9451294,0.30511475,-3.453125,-0.109375,0.78125,653
654,1695773165647,-0.27319336,-0.94415283,0.26654053,-3.0625,-1.609375,-0.5625,654
655,1695773165687,-0.27685547,-0.960022,0.30926514,-2.5,-0.640625,2.015625,655
656,1695773165727,-0.27514648,-0.9121704,0.26116943,0.0,2.3125,0.3125,656
657,1695773165767,-0.30664062,-0.95440674,0.3139038,2.90625,6.96875,1.609375,657
658,1695773165807,-0.27441406,-0.8965454,0.26483154,-0.140625,11.890625,5.140625,658
659,1695773165847,-0.28100586,-0.99005127,0.2819214,-1.15625,6.453125,-1.421875,659
660,1695773165887,-0.22998047,-0.9624634,0.29071045,8.203125,13.1875,3.625,660
661,1695773165927,-0.2619629,-0.95513916,0.33172607,9.890625,9.671875,5.53125,661
662,1695773165967,-0.26293945,-0.8880005,0.20794678,-2.34375,8.640625,1.734375,662
663,1695773166007,-0.1862793,-1.0161743,0.31414795,3.359375,2.328125,-7.546875,663
664,1695773166047,-0.22875977,-0.98443604,0.27923584,7.078125,12.203125,10.359375,664
665,1695773166087,-0.22705078,-0.86968994,0.2374878,0.890625,7.0625,4.796875,665
666,1695773166127,-0.22875977,-1.0098267,0.3085327,7.140625,2.625,2.21875,666
667,1695773166167,-0.21875,-0.94195557,0.24578857,3.328125,5.078125,4.375,667
668,1695773166207,-0.17553711,-1.036438,0.3139038,-1.875,-6.8125,3.671875,668
669,1695773166247,-0.25683594,-0.9595337,0.2531128,-14.0625,-6.15625,8.203125,669
670,1695773166287,-0.22094727,-0.9043579,0.24847412,-3.8125,-6.78125,-0.8125,670
671,1695773166327,-0.16259766,-1.0198364,0.26263428,9.484375,1.390625,0.25,671
672,1695773166367,-0.1616211,-0.91241455,0.24456787,3.84375,3.796875,4.03125,672
673,1695773166407,-0.1862793,-0.9673462,0.23968506,-7.078125,-7.046875,0.3125,673
674,1695773166447,-0.21166992,-0.9380493,0.25604248,-3.96875,-1.625,-1.609375,674
675,1695773166487,-0.18115234,-1.0271606,0.29534912,-1.59375,1.0625,-2.84375,675
676,1695773166527,-0.19433594,-0.9402466,0.25213623,-2.21875,0.328125,-0.171875,676
677,1695773166567,-0.2133789,-0.9417114,0.26434326,-3.359375,-1.046875,-2.0,677
678,1695773166607,-0.18383789,-0.9729614,0.26531982,1.53125,4.703125,-1.140625,678
679,1695773166647,-0.19165039,-0.97076416,0.27142334,-2.03125,3.78125,1.46875,679
680,1695773166687,-0.23339844,-0.9805298,0.20233154,-3.046875,12.296875,2.96875,680
681,1695773166727,-0.15112305,-0.9956665,0.27630615,-1.515625,12.5,-1.015625,681
682,1695773166767,-0.09448242,-1.0459595,0.33050537,17.90625,14.625,4.265625,682
683,1695773166807,-0.20825195,-0.81988525,0.23822021,7.34375,1.140625,10.203125,683
684,1695773166847,-0.13354492,-1.0264282,0.2189331,-6.375,-7.390625,-11.484375,684
685,1695773166887,-0.23022461,-0.8904419,0.26605225,-15.15625,-12.40625,-19.15625,685
686,1695773166927,-0.16210938,-1.1170044,0.35272217,10.46875,4.546875,-5.359375,686
687,1695773166967,-0.24243164,-0.86187744,0.18988037,0.4375,4.140625,8.09375,687
688,1695773167007,-0.1418457,-0.95562744,0.18377686,-10.671875,-9.890625,-8.671875,688
689,1695773167047,-0.25634766,-1.0234985,0.37200928,6.03125,2.734375,1.546875,689
690,1695773167087,-0.2253418,-0.93585205,0.19671631,3.265625,4.640625,3.78125,690
691,1695773167127,-0.14428711,-0.86602783,0.17718506,-7.1875,-8.3125,-12.8125,691
692,1695773167167,-0.19213867,-1.0618286,0.37371826,5.296875,-2.828125,1.328125,692
693,1695773167207,-0.23022461,-0.90948486,0.2062378,7.421875,3.90625,12.609375,693
694,1695773167247,-0.24194336,-0.9837036,0.29730225,10.515625,0.0,5.734375,694
695,1695773167287,-0.21508789,-0.98931885,0.25115967,-15.453125,-2.625,-1.703125,695
696,1695773167327,-0.18139648,-0.84552,0.18572998,-22.375,-17.515625,-12.5,696
697,1695773167367,-0.23120117,-1.2363892,0.40447998,0.109375,-15.796875,-0.234375,697
698,1695773167407,-0.19140625,-0.88067627,0.15496826,-6.75,6.59375,10.90625,698
699,1695773167447,-0.2529297,-0.82769775,0.1930542,2.84375,-3.09375,-2.78125,699
700,1695773167487,-0.14501953,-1.0901489,0.30926514,9.640625,3.859375,-0.171875,700
701,1695773167527,-0.12792969,-0.9265747,0.25042725,-6.59375,3.9375,6.203125,701
702,1695773167567,-0.25146484,-0.9824829,0.26239014,-1.796875,-5.359375,-0.484375,702
703,1695773167607,-0.19091797,-1.0166626,0.2897339,-0.265625,-1.859375,-0.625,703
704,1695773167647,-0.22363281,-0.93634033,0.2218628,-1.65625,5.1875,1.90625,704
705,1695773167687,-0.17700195,-0.944397,0.24627686,0.234375,5.109375,-1.0625,705
706,1695773167727,-0.19213867,-0.9644165,0.2814331,3.75,4.09375,-2.3125,706
707,1695773167767,-0.12426758,-1.0874634,0.14837646,-2.078125,3.640625,-2.0,707
708,1695773167807,-0.13842773,-0.9338989,0.34906006,6.296875,14.953125,2.734375,708
709,1695773167847,-0.26635742,-0.9390259,0.20672607,-4.890625,-3.0,3.6875,709
710,1695773167887,-0.20825195,-0.8882446,0.27557373,-2.15625,-0.8125,-9.015625,710
711,1695773167927,-0.20654297,-0.9439087,0.2687378,-1.21875,0.90625,-2.296875,711
712,1695773167967,-0.16748047,-1.0220337,0.25360107,-2.09375,-0.40625,-5.203125,712
713,1695773168007,-0.21411133,-0.9871216,0.26898193,5.421875,2.296875,4.109375,713
714,1695773168047,-0.203125,-0.97003174,0.2399292,-3.28125,4.8125,8.703125,714
715,1695773168087,-0.18701172,-0.93463135,0.2736206,-9.515625,0.71875,-9.3125,715
716,1695773168127,-0.17626953,-0.9673462,0.22747803,4.125,5.515625,-6.5625,716
717,1695773168167,-0.16699219,-1.0115356,0.36663818,10.90625,7.859375,6.0,717
718,1695773168207,-0.21508789,-0.9475708,0.20892334,0.484375,0.828125,7.703125,718
719,1695773168247,-0.20703125,-0.93170166,0.18450928,3.8125,-0.078125,2.65625,719
720,1695773168287,-0.19726562,-1.0188599,0.30389404,-3.015625,8.171875,-0.625,720
721,1695773168327,-0.1706543,-1.2044067,0.34124756,-5.78125,-1.328125,-6.46875,721
722,1695773168367,-0.041503906,-0.8074341,0.15911865,1.015625,13.90625,0.3125,722
723,1695773168407,-0.31347656,-0.7588501,0.27386475,6.953125,-5.609375,7.1875,723
724,1695773168447,-0.1303711,-1.0171509,0.2645874,-2.734375,-2.890625,-3.78125,724
725,1695773168487,-0.19555664,-1.022522,0.22235107,-11.28125,-15.640625,-4.21875,725
726,1695773168527,-0.17504883,-0.97076416,0.29486084,11.5625,5.59375,1.90625,726
727,1695773168567,-0.06713867,-0.98394775,0.24749756,-6.078125,-3.796875,0.765625,727
728,1695773168607,-0.13842773,-1.0044556,0.23358154,-20.59375,-17.65625,2.875,728
729,1695773168647,-0.265625,-0.90802,0.27972412,0.609375,-16.515625,-3.046875,729
730,1695773168687,-0.20385742,-1.0552368,0.33270264,-1.65625,-5.234375,-0.53125,730
731,1695773168727,-0.2097168,-0.88897705,0.23724365,-11.234375,-13.203125,-11.109375,731
732,1695773168767,-0.14331055,-0.9998169,0.20697021,7.65625,-1.296875,-6.8125,732
733,1695773168807,-0.14331055,-0.95977783,0.25701904,7.546875,5.21875,14.765625,733
734,1695773168847,-0.2548828,-0.9373169,0.2616577,-4.59375,-4.234375,6.640625,734
735,1695773168887,-0.22143555,-0.9404907,0.23699951,-7.28125,-6.5625,-6.75,735
736,1695773168927,-0.1706543,-0.97198486,0.26605225,-7.453125,-0.546875,-7.390625,736
737,1695773168967,-0.16748047,-1.0151978,0.28338623,-2.546875,0.984375,0.328125,737
738,1695773169007,-0.20776367,-0.9439087,0.2506714,-2.578125,3.65625,1.015625,738
739,1695773169047,-0.21508789,-0.9529419,0.2929077,-6.609375,3.328125,-0.515625,739
740,1695773169087,-0.2541504,-1.0100708,0.26678467,-8.515625,13.0625,1.078125,740
741,1695773169127,-0.1508789,-0.89727783,0.32391357,-8.28125,10.15625,0.609375,741
742,1695773169167,-0.110839844,-1.0183716,0.33026123,12.921875,13.234375,-1.671875,742
743,1695773169207,-0.2265625,-0.78692627,0.33807373,15.84375,5.65625,11.5,743
744,1695773169247,-0.18554688,-1.0064087,0.34417725,2.15625,-4.5625,-0.234375,744
745,1695773169287,-0.2331543,-0.8909302,0.13153076,-11.3125,-7.796875,-15.828125,745
746,1695773169327,-0.1159668,-1.1187134,0.4328003,6.625,3.5,-10.265625,746
747,1695773169367,-0.17089844,-0.9614868,0.28289795,3.796875,7.375,7.21875,747
748,1695773169407,-0.18383789,-0.89678955,0.24945068,-1.0,-5.203125,0.6875,748
749,1695773169447,-0.20776367,-0.9505005,0.28167725,10.53125,-5.3125,2.21875,749
750,1695773169487,-0.30078125,-0.9133911,0.23260498,6.25,10.28125,6.15625,750
751,1695773169527,-0.06518555,-1.123352,0.19744873,-7.90625,0.640625,-17.859375,751
752,1695773169567,-0.15820312,-0.98443604,0.30975342,8.515625,1.078125,4.5625,752
753,1695773169607,-0.20947266,-0.89312744,0.19915771,-2.84375,5.078125,10.96875,753
754,1695773169647,-0.20703125,-0.94073486,0.2741089,-8.109375,-5.5,-6.703125,754
755,1695773169687,-0.22143555,-0.9656372,0.2736206,-2.921875,6.796875,-10.640625,755
756,1695773169727,-0.1394043,-0.95098877,0.26654053,-15.90625,-5.03125,-12.234375,756
757,1695773169767,-0.26367188,-0.989563,0.35369873,-20.609375,-22.765625,-0.671875,757
758,1695773169807,-0.2084961,-1.0715942,0.40008545,4.25,-7.53125,10.09375,758
759,1695773169847,-0.18945312,-0.90167236,0.23480225,-7.515625,0.625,6.609375,759
