,timestamp,accel_x,accel_y,accel_z,gyro_x,gyro_y,gyro_z
0,1695741795157,0.09448242,-0.9312134,0.17913818,3.53125,-5.859375,-2.375
1,1695741795196,0.109375,-0.9963989,0.047546387,8.234375,-7.65625,1.703125
2,1695741795236,0.13916016,-1.0137329,0.101257324,-19.0625,2.140625,0.828125
3,1695741795276,0.13012695,-0.95098877,0.22210693,-7.609375,-1.109375,-1.859375
4,1695741795337,0.09814453,-0.9668579,0.16229248,4.25,-5.0,-1.46875
5,1695741795357,0.07006836,-0.9841919,0.1149292,-1.328125,-7.03125,-0.90625
6,1695741795396,0.0871582,-0.99713135,0.14666748,-7.40625,-3.171875,0.703125
7,1695741795437,0.0715332,-0.9920044,0.17230225,-5.109375,-2.015625,-1.0625
8,1695741795477,0.10253906,-0.97369385,0.15325928,-1.90625,-2.71875,-0.046875
9,1695741795517,0.09838867,-0.991272,0.15057373,-6.59375,-0.875,-0.609375
10,1695741795557,0.068115234,-0.97052,0.17474365,-6.21875,0.984375,0.375
11,1695741795596,0.080322266,-0.96588135,0.20135498,-0.375,0.703125,2.046875
12,1695741795638,0.107421875,-1.0066528,0.14569092,2.625,-1.90625,1.8125
13,1695741795677,0.14355469,-0.97735596,0.16351318,-6.609375,1.3125,4.234375
14,1695741795716,0.16845703,-0.93585205,0.23284912,-5.859375,-1.0625,3.859375
15,1695741795757,0.11645508,-1.0005493,0.19720459,8.234375,-4.765625,3.484375
16,1695741795799,0.099365234,-1.0010376,0.12640381,-0.046875,-4.890625,3.171875
17,1695741795838,0.115234375,-0.96099854,0.17962646,-6.5625,-4.3125,6.8125
18,1695741795881,0.2019043,-0.9661255,0.22625732,-1.625,-6.625,8.8125
19,1695741795920,0.24609375,-0.99298096,0.21282959,4.109375,-15.109375,10.859375
20,1695741795960,0.25024414,-0.97003174,0.22503662,-5.5625,-16.90625,11.875
21,1695741796000,0.1965332,-0.91119385,0.29241943,-3.0625,-21.28125,11.3125
22,1695741796039,0.19750977,-1.0054321,0.17425537,7.609375,-24.65625,10.9375
23,1695741796080,0.17407227,-0.9319458,0.21697998,-7.609375,-21.21875,13.28125
24,1695741796120,0.22851562,-0.8880005,0.36566162,-0.25,-19.03125,8.0625
25,1695741796161,0.16186523,-0.9351196,0.2921753,15.40625,-28.09375,5.265625
26,1695741796202,0.13720703,-1.005188,0.19720459,8.40625,-20.640625,3.859375
27,1695741796241,0.16333008,-0.9378052,0.31610107,-3.890625,-13.65625,1.21875
28,1695741796280,0.2409668,-0.9011841,0.2765503,9.03125,-14.671875,0.8125
29,1695741796319,0.26342773,-0.85284424,0.35247803,-2.234375,-10.921875,1.46875
30,1695741796362,0.2446289,-0.9224243,0.33343506,13.46875,-21.078125,1.125
31,1695741796377,0.18066406,-0.92559814,0.3168335,9.71875,-20.65625,-3.53125
32,1695741796418,0.10205078,-0.95318604,0.29632568,11.265625,-20.3125,-6.34375
33,1695741796461,0.11767578,-1.0200806,0.27874756,11.4375,-15.828125,-9.296875
34,1695741796498,0.20898438,-1.0947876,0.21942139,4.53125,-26.296875,-7.796875
35,1695741796539,0.18041992,-0.97540283,0.30926514,-2.609375,-16.609375,-10.140625
36,1695741796580,0.05029297,-0.8772583,0.29071045,2.609375,-13.875,-12.875
37,1695741796618,0.07446289,-0.86798096,0.21600342,-0.453125,-23.609375,-13.484375
38,1695741796660,0.09423828,-1.010315,0.21038818,2.1875,-16.1875,-10.78125
39,1695741796701,0.10449219,-1.1636353,0.17889404,5.28125,-9.953125,-8.953125
40,1695741796742,0.16601562,-1.0376587,0.08074951,15.78125,-2.046875,-4.0625
41,1695741796780,0.076416016,-0.9002075,0.047790527,22.546875,-7.0625,-4.71875
42,1695741796824,-0.021240234,-0.9968872,-0.08770752,21.84375,-7.1875,-6.890625
43,1695741796862,-0.014160156,-1.0928345,0.038024902,11.703125,-6.25,-7.15625
44,1695741796900,-0.079589844,-1.013977,0.109802246,6.640625,5.453125,-8.6875
45,1695741796941,-0.10424805,-0.93536377,0.055603027,12.96875,-1.59375,-2.984375
46,1695741796979,-0.041259766,-0.8584595,0.014587402,1.34375,-3.109375,-5.59375
47,1695741797017,0.026611328,-0.9138794,0.025817871,0.40625,-4.90625,-1.09375
48,1695741797059,-0.0014648438,-0.91900635,0.0914917,-1.5625,-10.5,5.046875
49,1695741797100,-0.040283203,-0.95025635,0.15374756,-2.59375,-19.90625,6.609375
50,1695741797140,-0.053955078,-0.9619751,0.113464355,-1.546875,-24.953125,6.171875
51,1695741797180,0.068847656,-1.0137329,0.047546387,-5.046875,-36.203125,6.453125
52,1695741797219,0.03100586,-1.1245728,0.13568115,-10.59375,-27.25,8.578125
53,1695741797260,-0.020507812,-1.1443481,0.23602295,-19.46875,-24.84375,10.609375
54,1695741797300,0.0026855469,-1.18927,0.19720459,2.0625,-46.078125,9.9375
55,1695741797340,0.1171875,-1.2554321,-0.012023926,-2.203125,-49.25,9.5625
56,1695741797380,0.2602539,-0.98321533,-0.0154418945,-17.171875,-36.796875,15.078125
57,1695741797420,0.46875,-0.7984009,0.29266357,-9.515625,-13.671875,16.65625
58,1695741797461,0.24804688,-0.85650635,0.13812256,25.015625,-37.359375,6.59375
59,1695741797500,0.045410156,-1.1030884,-0.13165283,6.8125,-29.140625,-3.03125
60,1695741797536,0.14916992,-1.0864868,0.262146,-8.9375,-22.46875,8.578125
61,1695741797578,0.18481445,-0.9439087,0.22698975,-4.703125,-17.421875,2.578125
62,1695741797596,0.29492188,-0.71539307,0.06781006,-13.453125,-8.875,-0.265625
63,1695741797636,0.25341797,-0.69366455,0.23944092,9.859375,-9.71875,0.921875
64,1695741797677,0.14501953,-0.86846924,0.32537842,-0.015625,-11.984375,7.640625
65,1695741797717,0.15161133,-0.9463501,0.2855835,14.640625,-32.390625,12.15625
66,1695741797762,0.1538086,-0.9155884,0.2074585,0.546875,-19.796875,-3.25
67,1695741797798,0.12768555,-0.83258057,0.16375732,1.21875,-12.328125,-13.015625
68,1695741797839,0.091552734,-0.93292236,0.37078857,11.109375,0.875,-20.125
69,1695741797880,-0.08666992,-0.9390259,0.24066162,15.4375,-4.40625,-27.59375
70,1695741797918,-0.14526367,-1.1260376,-0.07086182,5.46875,-31.34375,-27.6875
71,1695741797958,-0.014892578,-1.4937134,-0.29058838,33.125,-8.28125,8.0
72,1695741797999,0.59643555,-1.442688,-0.016906738,-80.625,59.765625,-7.8125
73,1695741798041,0.41015625,-0.65216064,0.35931396,36.328125,-21.34375,-23.1875
74,1695741798078,0.10839844,-0.5029907,-0.012023926,37.859375,1.734375,-14.34375
75,1695741798116,-0.1706543,-0.74957275,-0.07647705,37.4375,-1.421875,17.03125
76,1695741798160,-0.2319336,-1.4434204,-0.43170166,55.375,-9.484375,18.09375
77,1695741798201,0.14501953,-1.2005005,-0.13116455,-8.65625,0.359375,2.578125
78,1695741798240,0.1496582,-0.99835205,0.07342529,-30.46875,20.703125,-9.765625
79,1695741798280,-0.14404297,-0.9458618,-0.04083252,-18.140625,30.25,5.875
80,1695741798319,-0.10839844,-0.88287354,-0.09918213,-0.015625,13.234375,6.328125
81,1695741798361,-0.15063477,-0.91119385,-0.15167236,-1.8125,9.90625,0.203125
82,1695741798400,-0.029541016,-0.95562744,-0.026672363,-12.390625,10.203125,1.34375
83,1695741798441,0.107666016,-1.0584106,0.020446777,-9.625,8.40625,9.5625
84,1695741798478,0.099609375,-1.1729126,0.029968262,-20.890625,6.546875,-2.59375
85,1695741798520,-0.099609375,-0.989563,-0.030090332,-34.5,12.9375,2.078125
86,1695741798557,-0.12548828,-0.84503174,0.026306152,-14.546875,1.484375,9.625
87,1695741798603,-0.06298828,-0.8760376,0.055114746,-13.453125,-3.59375,3.09375
88,1695741798638,0.30371094,-1.2932739,0.18890381,-7.5,-9.09375,15.171875
89,1695741798680,0.31298828,-1.0401001,0.40301514,-0.96875,7.265625,-1.78125
90,1695741798721,-0.16308594,-0.8640747,-0.026916504,50.859375,-14.78125,-0.21875
91,1695741798760,0.025146484,-0.9522095,-0.33111572,-9.796875,10.234375,3.171875
92,1695741798800,0.23266602,-0.9434204,0.13201904,-86.109375,58.890625,5.4375
93,1695741798820,0.25390625,-0.9973755,0.6144409,-11.96875,31.203125,4.515625
94,1695741798860,0.22192383,-0.9348755,0.14276123,-0.1875,23.5,6.890625
95,1695741798900,0.22436523,-0.8567505,0.20794678,-12.578125,32.140625,3.609375
96,1695741798940,0.11328125,-0.86505127,0.14422607,0.046875,47.703125,-4.25
97,1695741798977,0.10961914,-0.8809204,0.15179443,-6.640625,49.765625,7.046875
98,1695741799017,0.35009766,-0.9053345,0.27020264,-18.390625,52.296875,9.890625
99,1695741799057,0.37231445,-0.9631958,0.28289795,4.484375,37.375,-0.390625
100,1695741799097,0.25390625,-0.9639282,0.0914917,10.25,45.328125,-1.203125
101,1695741799137,0.2019043,-0.9475708,0.0758667,-22.234375,59.78125,-0.296875
102,1695741799177,0.26171875,-0.9085083,0.20550537,-20.6875,65.109375,-0.921875
103,1695741799216,0.4182129,-0.9624634,0.23968506,-1.328125,58.84375,-6.578125
104,1695741799258,0.26049805,-0.7476196,0.13275146,9.921875,60.546875,-9.5625
105,1695741799297,0.15527344,-0.66534424,0.04827881,18.75,70.25,-8.953125
106,1695741799337,0.020751953,-0.7268677,-0.11187744,31.9375,63.984375,-1.4375
107,1695741799378,0.31054688,-1.1177368,-0.41363525,37.640625,41.625,24.265625
108,1695741799417,1.1374512,-1.5266724,-0.15753174,-47.71875,83.8125,16.25
109,1695741799459,0.3095703,-0.7510376,0.44940186,-25.734375,56.1875,-11.78125
110,1695741799496,-0.17456055,-0.75372314,-0.16192627,108.171875,-2.34375,-20.4375
111,1695741799537,-0.2331543,-0.80059814,-0.97052,80.25,7.765625,-2.578125
112,1695741799578,0.21240234,-1.2063599,-0.6589966,-97.828125,50.640625,27.578125
113,1695741799617,0.64746094,-0.91973877,1.1703491,-134.59375,115.515625,6.546875
114,1695741799657,0.4663086,-0.9019165,0.07928467,39.609375,-47.53125,-16.6875
115,1695741799698,0.17504883,-0.7229614,-0.33892822,53.421875,-28.1875,-5.125
116,1695741799738,0.05834961,-0.909729,-0.59454346,29.875,-25.359375,1.796875
117,1695741799777,0.0546875,-0.9404907,-0.3982544,-54.859375,6.1875,-8.671875
118,1695741799816,0.024169922,-0.8394165,0.011413574,-43.484375,-7.484375,1.3125
119,1695741799857,0.2548828,-0.87384033,-0.07940674,25.734375,-47.5,-7.59375
120,1695741799898,0.20605469,-0.9273071,-0.3970337,13.671875,-36.609375,-6.46875
121,1695741799937,0.10571289,-0.87286377,-0.29156494,-33.59375,-20.96875,-2.015625
122,1695741799979,0.22631836,-0.83673096,-0.07208252,-24.609375,-37.03125,1.453125
123,1695741800038,0.34570312,-1.1731567,-0.034484863,9.421875,-30.296875,14.921875
124,1695741800057,0.28149414,-1.190979,0.12615967,-8.921875,-20.328125,-6.890625
125,1695741800077,0.09423828,-0.8694458,0.20452881,-4.296875,-22.71875,0.375
126,1695741800117,-0.0078125,-0.93634033,0.09539795,9.09375,-13.078125,13.015625
127,1695741800158,0.095947266,-1.1045532,0.19500732,7.078125,-11.296875,22.390625
128,1695741800197,0.4650879,-1.3272095,0.2387085,-15.078125,-2.3125,8.46875
129,1695741800237,0.14257812,-0.9026489,0.18255615,-0.59375,-7.984375,-7.78125
130,1695741800277,0.107910156,-0.6734009,0.1642456,10.234375,4.578125,-8.5
131,1695741800317,-0.099121094,-0.80010986,0.013366699,29.0,2.765625,3.25
132,1695741800357,0.21142578,-0.98687744,-0.05279541,-11.0625,-1.234375,16.28125
133,1695741800398,0.45483398,-1.0913696,0.16668701,-44.125,38.4375,-5.75
134,1695741800438,0.28125,-0.7695923,0.21234131,-3.125,16.59375,-20.21875
135,1695741800477,0.31860352,-0.7305298,-0.02154541,29.4375,-2.53125,3.53125
136,1695741800518,0.5168457,-1.0005493,-0.0154418945,-21.90625,5.6875,14.015625
137,1695741800557,0.3647461,-0.9849243,0.23114014,-13.53125,4.296875,-8.46875
138,1695741800596,0.08691406,-0.82940674,0.038513184,41.03125,7.5,-28.484375
139,1695741800636,-0.0053710938,-0.8858032,-0.23052979,25.984375,16.953125,-14.328125
140,1695741800678,0.28930664,-1.1609497,-0.21954346,-9.609375,10.203125,26.28125
141,1695741800716,0.80249023,-1.2705688,0.13519287,-58.453125,7.25,2.796875
142,1695741800756,0.11791992,-0.8069458,0.26507568,23.296875,4.828125,-17.90625
143,1695741800796,0.04272461,-0.77789307,-0.11871338,85.3125,-9.078125,-20.921875
144,1695741800836,-0.048339844,-0.79229736,-0.38311768,16.09375,-4.328125,8.578125
145,1695741800877,0.076171875,-1.2459106,-0.03643799,-43.25,7.078125,36.1875
146,1695741800916,0.40600586,-1.2349243,0.15423584,-16.421875,-5.609375,-6.890625
147,1695741800956,0.048095703,-0.94903564,-0.06036377,67.859375,-13.765625,-32.125
148,1695741801000,-0.08227539,-0.7053833,-0.51104736,22.859375,-1.734375,-11.765625
149,1695741801039,0.14648438,-0.7337036,-0.20391846,-82.125,15.390625,12.75
150,1695741801089,0.31201172,-0.91485596,0.23651123,-46.28125,1.484375,11.28125
151,1695741801120,0.21704102,-1.1133423,0.05633545,57.453125,-26.75,-12.6875
152,1695741801160,0.0053710938,-1.0210571,-0.4463501,61.421875,-17.953125,-20.25
153,1695741801199,0.06567383,-0.8098755,-0.49298096,-36.421875,11.25,7.109375
154,1695741801239,0.19238281,-0.80181885,-0.035949707,-58.046875,18.578125,7.890625
155,1695741801279,0.17163086,-0.89068604,0.1071167,0.3125,3.78125,-3.515625
156,1695741801301,0.07055664,-1.0813599,-0.19952393,38.3125,-4.0625,-5.765625
157,1695741801340,0.11206055,-1.0974731,-0.37408447,-11.953125,6.765625,15.875
158,1695741801381,0.41064453,-0.9260864,0.08465576,-58.125,34.796875,5.9375
159,1695741801417,0.3330078,-0.7149048,0.45819092,-5.125,10.328125,11.546875
160,1695741801457,0.25195312,-0.8792114,0.0914917,46.671875,-20.453125,15.4375
161,1695741801501,0.28857422,-1.3665161,-0.06744385,26.53125,-15.859375,16.53125
162,1695741801539,0.20874023,-1.3084106,0.04925537,-27.8125,8.359375,-5.359375
163,1695741801578,0.06933594,-0.8911743,0.18890381,-27.359375,9.71875,-10.9375
164,1695741801620,0.0859375,-0.72906494,0.13616943,2.296875,7.0625,-0.40625
165,1695741801657,0.16577148,-0.77838135,0.0692749,0.625,3.25,7.953125
166,1695741801700,0.2824707,-1.0332642,0.09222412,-10.65625,5.953125,13.359375
167,1695741801740,0.39916992,-1.0674438,0.16156006,-14.3125,7.359375,3.234375
168,1695741801778,0.2397461,-0.8538208,0.12176514,11.515625,3.015625,-7.234375
169,1695741801822,0.16699219,-0.9614868,-0.008361816,18.90625,11.59375,-2.59375
170,1695741801858,0.1640625,-0.97540283,-0.03668213,-17.828125,9.6875,-8.453125
171,1695741801901,0.13452148,-0.86602783,0.08441162,-16.765625,23.0625,-6.390625
172,1695741801938,0.20947266,-0.9302368,0.030944824,8.25,18.53125,-3.765625
173,1695741801980,0.31469727,-0.95513916,-0.05230713,-4.390625,15.90625,-2.421875
174,1695741802019,0.35205078,-1.123352,0.047546387,-7.515625,28.609375,0.796875
175,1695741802059,0.14428711,-1.0615845,0.053649902,6.640625,24.890625,-11.671875
176,1695741802100,-0.080566406,-0.8115845,-0.09844971,15.703125,31.640625,-15.859375
177,1695741802143,-0.12695312,-0.7427368,-0.2695923,12.75,33.953125,1.140625
178,1695741802179,0.19482422,-0.960022,-0.2354126,-17.046875,36.453125,17.984375
179,1695741802220,0.5073242,-1.2022095,0.035095215,-32.6875,36.953125,14.890625
180,1695741802261,0.33496094,-1.0046997,0.082214355,0.046875,37.75,-8.921875
181,1695741802299,-0.0078125,-0.81256104,-0.08526611,38.140625,28.375,-11.5
182,1695741802340,-0.09692383,-0.8340454,-0.32574463,21.515625,19.765625,-4.78125
183,1695741802389,0.016601562,-0.9783325,-0.27960205,-1.453125,22.46875,15.921875
184,1695741802417,0.29003906,-1.1013794,-0.21368408,-1.703125,20.625,10.625
185,1695741802460,0.26220703,-1.0027466,-0.13018799,-15.6875,26.703125,-0.0625
186,1695741802520,0.1352539,-0.89190674,-0.101867676,-10.546875,16.46875,5.109375
187,1695741802523,0.017089844,-0.9351196,-0.19683838,9.890625,11.265625,5.578125
188,1695741802561,-0.060546875,-0.9981079,-0.29058838,-7.5625,13.78125,1.4375
189,1695741802598,0.05419922,-0.94073486,-0.1453247,-9.625,17.5,5.9375
190,1695741802637,0.14453125,-0.95098877,-0.16973877,-11.828125,20.375,1.4375
191,1695741802678,0.088378906,-0.9380493,-0.17486572,-12.859375,19.078125,2.578125
192,1695741802717,0.10864258,-0.9470825,-0.1560669,-22.46875,19.40625,5.0625
193,1695741802757,0.08862305,-0.9939575,-0.117492676,-15.3125,14.578125,7.046875
194,1695741802798,0.17114258,-1.0144653,-0.120666504,-18.78125,8.203125,6.625
195,1695741802840,0.26098633,-1.0669556,-0.054016113,-13.703125,9.390625,12.546875
196,1695741802881,0.25097656,-0.99591064,-0.003479004,-22.21875,19.875,9.5
197,1695741802920,0.08203125,-0.83673096,0.06829834,-11.71875,10.875,-1.3125
198,1695741802961,-0.0041503906,-0.9092407,-0.17779541,6.40625,5.921875,-3.28125
199,1695741803003,0.12890625,-0.98028564,-0.0115356445,-7.3125,5.1875,6.484375
200,1695741803042,0.37329102,-1.0667114,0.039245605,-17.015625,11.078125,7.765625
201,1695741803080,0.22998047,-0.98931885,0.051940918,-18.171875,16.0625,0.109375
202,1695741803120,0.140625,-0.89190674,-0.03765869,-14.46875,8.953125,-3.296875
203,1695741803160,0.23754883,-0.8648071,0.07513428,-11.828125,9.953125,2.890625
204,1695741803201,0.24389648,-0.9463501,0.11517334,-5.734375,8.171875,11.125
205,1695741803241,0.35375977,-0.9963989,0.117614746,-9.28125,-2.171875,6.25
206,1695741803280,0.31152344,-1.0357056,0.18963623,-6.53125,6.140625,-0.671875
207,1695741803319,0.26464844,-1.0044556,0.19476318,-3.203125,3.6875,-3.609375
208,1695741803361,0.18579102,-0.90338135,0.13470459,-11.875,3.734375,-4.65625
209,1695741803401,0.17236328,-0.83551025,0.1696167,7.3125,-3.390625,-0.9375
210,1695741803441,0.23388672,-0.86383057,0.12567139,3.953125,0.15625,-1.203125
211,1695741803480,0.33666992,-0.9639282,0.20135498,-9.421875,-0.890625,2.625
212,1695741803520,0.2956543,-0.93536377,0.22235107,4.75,-4.15625,-5.09375
213,1695741803565,0.32666016,-0.85650635,0.20428467,1.96875,-10.265625,-5.84375
214,1695741803599,0.2770996,-0.88360596,0.21160889,10.671875,-8.546875,-3.6875
215,1695741803640,0.20605469,-0.96221924,0.15863037,15.25,-11.15625,-5.546875
216,1695741803679,0.26342773,-0.8953247,0.26727295,-4.953125,-7.109375,-1.140625
217,1695741803718,0.3474121,-0.88897705,0.2789917,9.4375,-15.34375,-3.125
218,1695741803741,0.3569336,-0.9573364,0.066589355,32.578125,-29.40625,-2.765625
219,1695741803781,0.31103516,-1.260315,-0.11627197,21.984375,-35.0,9.03125
220,1695741803818,0.38793945,-1.0984497,0.08099365,-25.984375,-8.921875,-3.078125
221,1695741803859,0.047851562,-0.9348755,0.18817139,-9.53125,-14.984375,-24.0625
222,1695741803901,-0.0690918,-0.8154907,-0.13018799,51.28125,-38.234375,-14.59375
223,1695741803941,0.17626953,-1.050354,-0.27667236,23.8125,-29.578125,6.15625
224,1695741803979,0.2956543,-1.2561646,-0.20074463,-10.0,-17.09375,-1.921875
225,1695741804020,0.20458984,-0.91119385,-0.02935791,3.890625,-27.078125,-30.859375
226,1695741804062,-0.1743164,-0.8242798,-0.1951294,20.546875,-32.984375,-21.5625
227,1695741804098,-0.14135742,-0.8760376,-0.11383057,4.953125,-16.453125,-9.75
228,1695741804141,-0.044189453,-0.87994385,-0.0569458,18.859375,-27.453125,-1.15625
229,1695741804180,0.15893555,-0.95147705,-0.144104,4.875,-22.375,-1.125
230,1695741804218,0.29345703,-0.9146118,-0.035461426,-4.796875,-23.8125,-5.71875
231,1695741804261,0.0043945312,-0.97125244,-0.023498535,-9.890625,-18.265625,-1.21875
232,1695741804300,0.016601562,-1.0205688,0.094177246,-11.984375,-42.40625,6.3125
233,1695741804340,0.09106445,-1.0276489,0.09051514,3.734375,-39.546875,4.015625
234,1695741804383,-0.09350586,-0.97857666,0.11102295,-6.8125,-32.609375,8.078125
235,1695741804421,-0.07421875,-0.92437744,-0.0037231445,3.0,-35.625,3.4375
236,1695741804461,-0.06518555,-1.0598755,0.057800293,-3.78125,-35.171875,0.6875
237,1695741804499,0.08959961,-1.2588501,0.073913574,-20.9375,-28.953125,4.875
238,1695741804539,0.14575195,-1.1345825,0.13104248,-10.34375,-23.5,12.296875
239,1695741804579,0.34814453,-1.1079712,-0.21392822,5.59375,-53.609375,-5.40625
240,1695741804620,0.41674805,-0.975647,-0.06060791,-6.640625,-35.015625,26.34375
241,1695741804661,0.48632812,-1.0332642,0.34710693,-7.328125,-0.90625,-13.34375
242,1695741804701,-0.25830078,-1.0811157,-0.06939697,93.390625,-33.359375,-30.859375
243,1695741804738,-0.22143555,-1.0581665,-0.23223877,-61.203125,7.40625,-6.125
244,1695741804780,0.25708008,-0.8233032,0.19476318,-65.875,29.28125,0.078125
245,1695741804819,0.43530273,-0.6819458,0.3847046,4.234375,6.953125,-0.203125
246,1695741804860,0.23022461,-0.6626587,0.086120605,20.09375,4.828125,-10.671875
247,1695741804901,-0.13452148,-0.7744751,0.09442139,-28.796875,25.203125,-8.546875
248,1695741804938,-0.13964844,-0.93878174,0.31048584,15.1875,25.734375,-1.546875
249,1695741804984,0.10229492,-0.9331665,0.17791748,-7.484375,36.171875,1.3125
250,1695741804999,0.34838867,-0.9373169,0.34735107,-4.953125,20.875,-11.40625
251,1695741805041,0.22387695,-0.95684814,0.309021,1.109375,43.875,-9.40625
252,1695741805079,0.06201172,-0.85162354,0.19769287,3.71875,26.828125,-5.0625
253,1695741805119,0.11035156,-0.9487915,0.06048584,7.171875,8.03125,-0.890625
254,1695741805160,0.07104492,-1.3713989,-0.24346924,20.71875,-4.828125,25.390625
255,1695741805200,0.5031738,-1.74469,-0.39141846,46.359375,14.484375,18.703125
256,1695741805242,0.19433594,-0.92559814,-0.2612915,-53.671875,49.75,-24.09375
257,1695741805280,0.02709961,-0.5628052,0.022644043,-38.640625,40.265625,-12.203125
258,1695741805320,-0.09448242,-0.7151489,-0.015197754,64.953125,4.71875,-6.984375
259,1695741805360,-0.19458008,-1.1941528,-0.37701416,41.28125,1.671875,21.765625
260,1695741805404,-0.0029296875,-1.0481567,-0.25250244,0.875,38.765625,8.921875
261,1695741805440,-0.1003418,-0.63409424,-0.27471924,-14.9375,44.984375,-9.4375
262,1695741805480,-0.035888672,-0.80596924,-0.18829346,-18.15625,38.796875,-7.421875
263,1695741805522,0.17407227,-0.99420166,-0.17974854,-34.65625,34.203125,16.34375
264,1695741805561,0.33422852,-1.2749634,0.19769287,-31.515625,33.828125,22.265625
265,1695741805602,0.11230469,-0.9380493,-0.054992676,-17.921875,14.671875,8.21875
266,1695741805640,0.055908203,-0.87335205,-0.03643799,-33.375,10.5,5.21875
267,1695741805680,0.050048828,-0.9146118,0.08050537,-9.359375,-11.828125,9.4375
268,1695741805720,0.05883789,-0.95806885,0.0848999,6.484375,-6.140625,10.171875
269,1695741805759,-0.123046875,-1.0498657,0.055847168,-13.96875,0.234375,9.28125
270,1695741805799,-0.17333984,-1.1052856,-0.05621338,-1.734375,-9.328125,16.953125
271,1695741805841,-0.19140625,-0.9734497,0.030212402,-4.875,2.390625,4.859375
272,1695741805882,-0.171875,-0.9639282,-0.07183838,-5.171875,2.875,-2.21875
273,1695741805920,0.014892578,-1.3557739,-0.105529785,10.0625,10.84375,2.171875
274,1695741805960,0.48461914,-1.3262329,-0.16729736,5.78125,20.6875,2.484375
275,1695741806000,0.6921387,-0.93048096,-0.004699707,-33.59375,45.796875,-1.140625
276,1695741806041,0.41455078,-0.7546997,0.1876831,-13.1875,43.875,-2.640625
277,1695741806079,0.27734375,-0.90093994,-0.05206299,-1.9375,25.15625,-0.515625
278,1695741806119,0.28344727,-1.031311,0.10784912,-12.421875,28.640625,-0.453125
279,1695741806161,0.29956055,-1.0618286,0.11981201,-18.875,33.296875,2.0
280,1695741806198,0.20996094,-0.831604,0.039001465,-16.09375,30.15625,-17.125
281,1695741806219,0.21606445,-0.7371216,0.01361084,-13.515625,32.890625,-11.921875
282,1695741806259,0.27392578,-0.78863525,0.15081787,-7.078125,23.078125,-9.0
283,1695741806300,0.18945312,-1.076477,0.2658081,-5.703125,26.75,3.46875
284,1695741806339,0.2199707,-1.0090942,0.1671753,-24.78125,22.0,-5.0
285,1695741806382,0.2939453,-0.80596924,0.21746826,-13.65625,17.640625,-11.5625
286,1695741806422,0.084472656,-0.87945557,0.34661865,-0.875,15.28125,-9.125
287,1695741806463,0.057861328,-0.8467407,0.25946045,-0.015625,-3.359375,-8.890625
288,1695741806503,0.07543945,-0.8032837,0.26361084,-1.78125,-1.03125,-18.171875
289,1695741806541,0.10986328,-0.90704346,0.22137451,4.109375,-1.328125,-13.765625
290,1695741806579,0.15161133,-1.0081177,0.34466553,-11.34375,3.515625,-20.46875
291,1695741806620,-0.07128906,-1.0606079,0.35076904,-1.640625,-6.546875,-27.09375
292,1695741806660,0.10229492,-1.3428345,-0.04156494,12.140625,-47.953125,-8.78125
293,1695741806702,0.5202637,-1.6253052,0.02923584,0.421875,8.109375,28.34375
294,1695741806739,0.57128906,-0.8682251,0.22332764,-10.09375,-22.203125,0.421875
295,1695741806786,0.40185547,-0.7576294,0.018249512,-21.484375,-54.78125,-11.328125
296,1695741806819,-0.20288086,-0.99835205,-0.06011963,23.703125,-24.828125,-7.96875
297,1695741806860,-0.35717773,-1.4592896,0.019470215,10.078125,-3.828125,28.078125
298,1695741806900,0.31152344,-0.89434814,0.27142334,-17.921875,-10.21875,-13.140625
299,1695741806940,0.21606445,-0.5906372,0.1449585,11.484375,-35.40625,-3.453125
300,1695741806979,0.05029297,-0.647522,0.16082764,-11.328125,-9.203125,14.390625
301,1695741807020,0.10180664,-0.7625122,0.15057373,9.96875,-29.3125,27.53125
302,1695741807061,-0.0690918,-1.2625122,0.19500732,38.828125,-14.90625,13.09375
303,1695741807100,-0.17504883,-1.0718384,-0.00982666,16.265625,-3.09375,-10.46875
304,1695741807137,-0.12451172,-0.8335571,0.09246826,-21.40625,1.09375,10.96875
305,1695741807179,0.008544922,-0.91485596,0.15228271,5.3125,-1.03125,13.84375
306,1695741807220,-0.06738281,-0.9663696,-0.024475098,14.78125,2.875,14.296875
307,1695741807260,-0.045410156,-0.81085205,-0.07281494,2.875,9.90625,18.828125
308,1695741807305,0.10620117,-0.8982544,-0.07354736,-4.984375,27.734375,29.5
309,1695741807343,0.6130371,-1.0288696,0.0079956055,-15.015625,32.40625,41.53125
310,1695741807381,1.0834961,-1.0188599,0.50286865,13.40625,24.9375,47.984375
311,1695741807441,0.50390625,-0.9155884,0.16668701,57.4375,2.734375,-2.203125
312,1695741807460,0.031982422,-0.769104,-0.25494385,78.03125,7.203125,5.28125
313,1695741807480,0.039794922,-1.0501099,-0.3118286,36.015625,27.671875,17.890625
314,1695741807561,0.3996582,-0.9307251,-0.23321533,-60.015625,28.546875,39.78125
315,1695741807565,0.8322754,-0.8501587,0.23358154,-78.046875,51.109375,13.84375
316,1695741807601,0.52905273,-0.4265747,0.24456787,47.984375,24.375,-4.125
317,1695741807642,0.20361328,-0.66656494,-0.28448486,84.25,-1.1875,19.625
318,1695741807681,0.31030273,-0.8128052,-0.27252197,10.234375,23.984375,16.359375
319,1695741807721,0.10058594,-0.8399048,-0.06011963,-11.265625,50.65625,12.328125
320,1695741807760,0.27026367,-0.7510376,-0.17388916,23.90625,39.921875,7.046875
321,1695741807801,0.42285156,-0.66485596,-0.31695557,22.9375,57.15625,5.125
322,1695741807843,0.4658203,-0.6951294,-0.3015747,2.71875,39.53125,30.140625
323,1695741807880,0.6081543,-0.60821533,-0.04888916,-23.53125,34.375,6.359375
324,1695741807920,0.3095703,-0.64556885,-0.32989502,43.984375,4.234375,4.46875
325,1695741807960,0.48876953,-0.97784424,-0.8809204,24.546875,-4.75,15.953125
326,1695741808000,0.22729492,-0.6934204,-0.38555908,-57.28125,65.34375,-4.765625
327,1695741808042,0.23461914,-0.5791626,0.0040893555,28.75,19.625,2.578125
328,1695741808081,0.45874023,-0.7510376,-0.73883057,31.53125,3.109375,-1.765625
329,1695741808119,0.35424805,-0.65582275,-0.47296143,-39.359375,43.265625,-2.90625
330,1695741808160,0.06616211,-0.55548096,-0.59454346,34.703125,29.4375,-4.953125
331,1695741808200,0.2980957,-0.694397,-0.7576294,-30.28125,16.40625,-3.4375
332,1695741808241,0.28125,-0.6243286,-0.5696411,19.421875,23.46875,-4.5
333,1695741808280,0.35083008,-0.73565674,-0.63409424,12.296875,13.234375,-8.578125
334,1695741808321,0.18701172,-0.6592407,-0.71417236,-8.5625,13.8125,-16.640625
335,1695741808360,0.15966797,-0.8069458,-0.68927,11.390625,14.546875,-25.234375
336,1695741808400,0.05883789,-0.725647,-0.704895,8.484375,21.5625,-20.5
337,1695741808441,0.1550293,-0.75567627,-0.6746216,-0.140625,12.703125,-13.53125
338,1695741808480,0.0126953125,-0.7241821,-0.7827759,1.453125,21.71875,-18.65625
339,1695741808519,0.15209961,-0.8682251,-0.7163696,-2.28125,9.8125,-13.03125
340,1695741808562,0.12915039,-0.8562622,-0.68341064,-2.8125,9.015625,-10.59375
341,1695741808600,-0.04321289,-0.803772,-0.8892212,9.109375,6.09375,-23.15625
342,1695741808640,0.035888672,-0.77471924,-0.7061157,13.5,8.328125,-21.984375
343,1695741808659,-0.11352539,-0.6995239,-0.6358032,8.953125,6.671875,-12.3125
344,1695741808700,0.00048828125,-0.8904419,-0.8115845,9.265625,-8.015625,-5.546875
345,1695741808742,0.057617188,-0.85650635,-0.7727661,-2.984375,-2.84375,-1.109375
346,1695741808779,-0.072021484,-0.82476807,-0.8574829,-1.703125,-2.859375,-11.140625
347,1695741808822,-0.111328125,-0.77471924,-0.7022095,12.96875,-7.25,-7.578125
348,1695741808862,-0.08276367,-0.7756958,-0.76690674,-3.234375,-9.640625,-0.140625
349,1695741808901,-0.012939453,-0.8140259,-0.7432251,-1.6875,-8.390625,-2.625
350,1695741808942,-0.041259766,-0.84942627,-0.72540283,-6.359375,-11.09375,-0.640625
351,1695741808986,-0.012207031,-0.8428345,-0.7781372,-11.734375,-14.265625,-3.5625
352,1695741809020,-0.12084961,-0.7979126,-0.72784424,-8.34375,-5.625,-2.28125
353,1695741809061,0.0036621094,-0.84625244,-0.6694946,-21.0,-12.03125,3.9375
354,1695741809103,-0.050048828,-0.85235596,-0.7012329,-31.28125,-7.859375,6.125
355,1695741809140,0.0146484375,-0.8374634,-0.6795044,-23.71875,-14.0625,6.421875
356,1695741809181,-0.020996094,-0.9194946,-0.58428955,-24.5625,-8.484375,16.125
357,1695741809217,0.079833984,-0.8220825,-0.61920166,-29.09375,-4.96875,12.640625
358,1695741809259,0.17456055,-0.86724854,-0.4602661,-26.296875,-6.625,7.46875
359,1695741809301,0.07104492,-0.92510986,-0.41705322,-18.125,-1.875,7.328125
360,1695741809339,0.029296875,-0.81866455,-0.5117798,-14.84375,-3.25,6.703125
361,1695741809380,0.1315918,-0.9273071,-0.4578247,-18.0625,-3.859375,14.734375
362,1695741809421,0.03930664,-0.8623657,-0.40020752,-3.9375,0.359375,8.171875
363,1695741809465,0.087646484,-0.79351807,-0.39996338,-3.4375,3.515625,6.6875
364,1695741809501,0.11694336,-0.79473877,-0.3821411,-5.53125,4.75,8.984375
365,1695741809542,0.1977539,-0.81378174,-0.37750244,-5.140625,-10.125,13.390625
366,1695741809587,0.107666016,-0.8442993,-0.46246338,3.46875,-10.609375,-0.390625
367,1695741809620,0.17504883,-0.82891846,-0.43902588,-14.859375,-8.796875,11.46875
368,1695741809662,0.27001953,-0.8208618,-0.35064697,-19.046875,-8.46875,4.328125
369,1695741809701,0.2475586,-0.86676025,-0.30010986,-7.28125,-21.3125,6.703125
370,1695741809741,0.3095703,-0.8657837,-0.3255005,-10.921875,-20.609375,-6.125
371,1695741809781,0.10620117,-0.769104,-0.2962036,-7.109375,-22.609375,-10.453125
372,1695741809820,0.1328125,-0.798645,-0.28692627,-16.015625,-27.3125,4.25
373,1695741809860,0.2705078,-0.9434204,-0.2144165,-22.515625,-22.21875,2.1875
374,1695741809898,0.23095703,-0.954895,-0.09674072,-28.140625,-13.40625,-5.5
375,1695741809918,0.32958984,-0.88653564,0.11566162,-47.015625,-20.859375,-9.375
376,1695741809957,0.09277344,-0.61968994,0.24261475,7.765625,-38.953125,-18.421875
377,1695741810001,-0.06762695,-0.6240845,-0.028381348,25.6875,-42.578125,-12.546875
378,1695741810040,0.005859375,-0.6724243,-0.0635376,-23.9375,-34.9375,0.25
379,1695741810080,0.13793945,-0.96588135,0.11395264,-48.0625,-17.296875,0.453125
380,1695741810121,0.1159668,-1.1375122,0.33465576,-32.015625,-15.8125,-18.359375
381,1695741810166,0.040771484,-0.8970337,0.24871826,0.96875,-25.125,-35.328125
382,1695741810204,0.0007324219,-0.7149048,-0.04522705,34.453125,-52.625,-21.171875
383,1695741810240,0.3557129,-1.3931274,-0.21051025,23.078125,-66.1875,23.15625
384,1695741810280,0.22460938,-1.2654419,0.04510498,-54.6875,17.203125,-38.734375
385,1695741810320,0.33422852,-0.56085205,0.35516357,-15.484375,-34.984375,-30.578125
386,1695741810360,0.18017578,-0.89434814,-0.027160645,30.953125,-63.328125,-9.703125
387,1695741810401,0.11621094,-1.1433716,-0.14141846,-18.421875,-39.1875,4.75
388,1695741810441,0.09448242,-1.1987915,0.12615967,1.8125,-49.75,1.578125
389,1695741810482,0.0036621094,-0.925354,-0.02130127,30.296875,-58.25,-16.453125
390,1695741810520,-0.012939453,-0.75250244,-0.0022583008,7.375,-54.296875,-1.578125
391,1695741810567,-0.021728516,-0.9248657,-0.054504395,19.6875,-55.375,1.765625
392,1695741810601,0.044677734,-0.9846802,-0.047912598,7.671875,-55.015625,4.515625
393,1695741810640,-0.036132812,-1.0166626,0.0138549805,16.359375,-61.25,6.671875
394,1695741810680,-0.10888672,-0.9758911,-0.10040283,12.75,-56.359375,-0.625
395,1695741810721,-0.12695312,-0.9614868,-0.06939697,-8.296875,-59.296875,6.078125
396,1695741810760,0.01928711,-0.79766846,-0.031799316,1.171875,-64.921875,1.171875
397,1695741810800,0.04296875,-0.8567505,-0.19976807,16.703125,-70.03125,-0.53125
398,1695741810842,0.026611328,-1.0244751,-0.28204346,20.25,-69.734375,-2.0625
399,1695741810881,-0.0859375,-1.3850708,-0.1807251,-42.6875,-34.6875,7.703125
400,1695741810917,0.4243164,-1.0950317,1.0682983,-20.359375,-1.984375,-0.328125
401,1695741810957,0.41259766,-1.0681763,0.2399292,35.3125,-83.1875,-0.3125
402,1695741810997,0.38989258,-0.83917236,0.16229248,4.34375,-59.640625,-5.1875
403,1695741811040,0.11303711,-0.8233032,0.22039795,25.75,-61.609375,-3.796875
404,1695741811082,-0.059814453,-0.81378174,0.051452637,19.28125,-71.25,-8.40625
405,1695741811144,-0.119140625,-0.88238525,0.14984131,-7.8125,-42.96875,0.140625
406,1695741811150,0.05834961,-0.8262329,0.18450928,10.3125,-41.203125,5.390625
407,1695741811179,0.35253906,-0.88848877,0.18011475,13.4375,-45.28125,-4.390625
408,1695741811220,0.28857422,-0.96954346,0.16204834,21.53125,-45.359375,-11.734375
409,1695741811260,-0.053222656,-0.8960571,-0.023498535,53.4375,-77.90625,-23.328125
410,1695741811301,-0.3972168,-1.3743286,-0.36138916,86.265625,-57.578125,-15.3125
411,1695741811339,-0.022460938,-1.1362915,-0.4685669,-31.5625,12.21875,-3.859375
412,1695741811380,0.043701172,-0.48443604,0.35247803,-126.65625,57.328125,-3.625
413,1695741811419,0.27319336,-0.7173462,0.082214355,71.078125,-90.0625,11.15625
414,1695741811460,0.4572754,-1.5332642,-0.4138794,52.359375,-81.71875,18.890625
415,1695741811500,-0.016601562,-1.3657837,-0.18292236,22.828125,-52.25,-28.953125
416,1695741811541,-0.39819336,-0.6140747,-0.3184204,33.0625,-41.890625,-35.90625
417,1695741811583,-0.33007812,-0.5237427,-0.42999268,-6.234375,-46.3125,-3.453125
418,1695741811626,0.08154297,-0.6116333,-0.32525635,-5.90625,-50.21875,5.0625
419,1695741811662,0.34423828,-0.9819946,-0.29986572,-6.859375,-54.9375,13.671875
420,1695741811699,0.24584961,-1.0916138,-0.29156494,21.046875,-58.171875,-5.234375
421,1695741811740,0.18383789,-1.0120239,-0.3789673,41.75,-73.6875,-0.90625
422,1695741811779,0.17529297,-0.85357666,-0.19171143,-4.9375,-32.4375,-3.75
423,1695741811820,0.33935547,-0.88287354,0.08685303,-13.296875,-42.421875,40.0
424,1695741811860,0.43969727,-1.2659302,0.18695068,62.96875,-75.828125,38.03125
425,1695741811899,0.22827148,-1.5601196,-0.1296997,98.828125,-65.578125,-2.28125
426,1695741811939,-0.20019531,-0.85406494,-0.37750244,77.859375,-49.046875,-35.609375
427,1695741811979,-0.10058594,-0.55914307,-0.409729,-31.609375,-0.765625,13.546875
428,1695741812020,0.2919922,-0.54937744,-0.09161377,-51.328125,9.96875,11.65625
429,1695741812060,0.4885254,-0.6741333,0.10101318,11.0,-9.890625,28.21875
430,1695741812100,0.5336914,-1.0061646,-0.07525635,47.78125,-13.265625,30.1875
431,1695741812141,0.45361328,-0.83428955,-0.15899658,39.609375,-13.875,-2.1875
432,1695741812180,0.32470703,-0.51226807,-0.35430908,59.765625,-19.171875,3.421875
433,1695741812220,0.41503906,-0.5796509,-0.5791626,21.34375,-14.921875,20.890625
434,1695741812257,0.7338867,-0.704895,-0.40020752,-17.890625,0.375,20.453125
435,1695741812300,0.42041016,-1.135315,-0.19146729,37.875,34.9375,11.859375
436,1695741812361,0.19433594,-0.77227783,-0.43218994,64.328125,5.375,-8.828125
437,1695741812377,0.005126953,-0.6387329,-0.7402954,18.359375,-3.953125,20.265625
438,1695741812397,0.64282227,-0.68536377,-0.6514282,-43.484375,-14.8125,34.28125
439,1695741812436,0.9243164,-0.7786255,-0.17095947,-61.203125,-11.265625,0.703125
440,1695741812476,0.5800781,-0.51885986,0.019470215,2.328125,-23.5,-10.359375
441,1695741812516,0.043701172,-0.71051025,-0.5720825,63.765625,-48.515625,-38.015625
442,1695741812557,-0.13183594,-0.7842407,-0.8670044,26.9375,-1.359375,-6.421875
443,1695741812596,0.25976562,-0.59991455,-0.4631958,-78.265625,7.890625,14.75
444,1695741812638,0.6862793,-0.47320557,-0.070373535,-77.640625,-5.40625,-10.578125
445,1695741812677,0.62060547,-0.7085571,-0.16241455,21.796875,-13.21875,-12.5625
446,1695741812716,0.22143555,-0.7473755,-0.42462158,-3.859375,3.359375,-15.1875
447,1695741812756,0.3894043,-0.71343994,-0.21173096,-50.828125,9.546875,-8.609375
448,1695741812796,0.41455078,-0.78009033,-0.26397705,-8.21875,-23.34375,-11.015625
449,1695741812839,0.27270508,-0.74713135,-0.21270752,-13.953125,27.90625,-11.234375
450,1695741812877,0.41088867,-0.7258911,-0.20269775,-32.71875,-11.75,6.546875
451,1695741812917,0.6201172,-0.87579346,-0.10455322,-30.328125,-16.578125,3.359375
452,1695741812960,0.6262207,-0.9746704,-0.010803223,-47.8125,0.5,0.984375
453,1695741812996,0.6130371,-0.8386841,0.004333496,-16.703125,-9.34375,1.90625
454,1695741813036,0.5046387,-0.9768677,-0.07232666,-14.1875,-14.265625,-5.296875
455,1695741813076,0.4951172,-1.0454712,-0.08380127,-22.96875,-2.4375,2.21875
456,1695741813116,0.56103516,-0.88067627,0.21795654,-25.734375,-9.109375,0.359375
457,1695741813156,0.54833984,-0.954895,0.035583496,-13.890625,-11.640625,-6.03125
458,1695741813197,0.49389648,-0.9656372,0.07293701,-15.015625,2.625,-8.171875
459,1695741813237,0.43066406,-0.9446411,0.14324951,0.671875,-8.390625,-0.328125
460,1695741813284,0.548584,-0.9439087,-0.003479004,-18.078125,-13.484375,-0.765625
461,1695741813316,0.6855469,-1.0076294,0.15985107,-32.03125,-6.296875,-4.890625
462,1695741813358,0.40942383,-1.0127563,0.16912842,2.359375,3.84375,-0.5
463,1695741813398,0.4338379,-0.82232666,0.30926514,-1.171875,-11.859375,7.671875
464,1695741813440,0.5300293,-0.9397583,-0.050598145,3.9375,-19.640625,-13.828125
465,1695741813480,0.39746094,-1.0647583,0.27459717,-31.515625,2.984375,-6.71875
466,1695741813517,0.48461914,-0.8335571,0.41400146,-6.796875,-17.71875,-0.125
467,1695741813559,0.5214844,-1.0020142,0.06707764,-5.671875,-4.078125,-12.984375
468,1695741813601,0.35864258,-1.0635376,0.32537842,-9.53125,1.03125,-8.46875
469,1695741813617,0.5239258,-1.0615845,0.42181396,0.25,-9.578125,-6.8125
470,1695741813661,0.50561523,-1.0845337,0.10223389,18.984375,4.546875,-14.453125
471,1695741813699,0.4008789,-1.0144653,0.21551514,12.234375,14.359375,-2.9375
472,1695741813738,0.4008789,-1.0650024,0.16693115,32.890625,6.90625,-2.46875
473,1695741813780,0.49682617,-1.0134888,0.07952881,23.09375,1.375,-2.25
474,1695741813819,0.49243164,-1.0020142,0.078308105,11.671875,13.171875,-1.5625
475,1695741813860,0.46289062,-1.000061,-0.0491333,36.921875,3.140625,-6.109375
476,1695741813901,0.42407227,-1.0151978,-0.121398926,14.515625,6.375,-3.6875
477,1695741813939,0.35961914,-1.0457153,-0.06500244,8.921875,18.859375,-0.375
478,1695741813988,0.4580078,-0.9578247,0.018981934,4.765625,4.796875,1.453125
479,1695741814017,0.53149414,-0.9690552,-0.054504395,19.1875,-9.734375,-4.359375
480,1695741814060,0.5292969,-0.9763794,-0.11920166,5.265625,1.53125,-15.1875
481,1695741814101,0.3227539,-0.8987427,-0.10089111,10.921875,-9.25,-12.578125
482,1695741814143,0.35961914,-0.9961548,-0.11773682,12.765625,-12.3125,-7.0625
483,1695741814180,0.5095215,-0.8987427,-0.09527588,-3.015625,-10.640625,-12.21875
484,1695741814219,0.46020508,-0.88409424,-0.17022705,-2.40625,-32.015625,-6.546875
485,1695741814261,0.623291,-0.89849854,-0.01739502,-25.328125,-28.234375,-11.890625
486,1695741814297,0.3461914,-0.6069946,0.2850952,-12.53125,-10.984375,-14.234375
487,1695741814340,0.21289062,-0.47149658,0.22381592,36.625,-49.4375,-9.859375
488,1695741814381,-0.10913086,-0.51446533,-0.023254395,48.609375,-58.453125,-20.3125
489,1695741814419,-0.123535156,-0.53863525,-0.19805908,11.4375,-40.390625,-11.09375
490,1695741814460,0.07788086,-0.7781372,-0.07574463,-35.8125,-17.46875,3.140625
491,1695741814501,0.35375977,-0.8057251,0.38763428,-41.109375,18.3125,-11.203125
492,1695741814540,0.25952148,-0.8296509,0.24871826,10.265625,-35.03125,-9.875
493,1695741814582,0.16772461,-0.77838135,0.06732178,14.890625,-30.921875,-9.28125
494,1695741814621,0.20703125,-0.9026489,-0.014465332,15.890625,-30.9375,0.71875
495,1695741814660,0.35791016,-1.0774536,0.15301514,-25.875,-3.921875,3.578125
496,1695741814701,0.46362305,-1.0049438,0.41204834,8.84375,-29.046875,-6.578125
497,1695741814744,0.33251953,-0.8838501,0.12713623,41.921875,-45.0625,-11.359375
498,1695741814778,0.27392578,-0.8286743,0.10296631,-32.21875,-21.09375,-7.953125
499,1695741814819,0.36621094,-0.819397,0.26727295,3.046875,-35.8125,-0.453125
500,1695741814838,0.2866211,-0.96466064,0.25604248,4.59375,-48.59375,-5.984375
501,1695741814880,0.12939453,-0.9614868,0.15838623,24.09375,-63.921875,-15.203125
502,1695741814922,-0.015380859,-1.1975708,-0.11431885,35.84375,-57.46875,-13.125
503,1695741814961,0.048339844,-1.0835571,-0.11090088,19.34375,-38.578125,-10.5
504,1695741815001,0.17163086,-0.82403564,-0.0032348633,-13.0,-12.703125,-14.3125
505,1695741815037,0.0625,-0.72125244,-0.03765869,-0.8125,-18.984375,-7.78125
506,1695741815081,-0.076171875,-1.0789185,-0.16046143,28.609375,-34.0,-11.296875
507,1695741815121,-0.009521484,-1.3569946,-0.25201416,17.609375,-31.6875,5.3125
508,1695741815159,0.11303711,-0.9534302,-0.013000488,9.578125,-21.671875,0.546875
509,1695741815200,0.038330078,-0.86431885,-0.097229004,13.359375,-20.6875,-7.453125
510,1695741815241,-0.08691406,-0.83721924,-0.14215088,7.265625,-22.75,-6.4375
511,1695741815280,-0.092041016,-0.92559814,-0.035461426,5.546875,-36.265625,13.640625
512,1695741815320,0.1640625,-1.0232544,0.023376465,16.359375,-53.109375,6.78125
513,1695741815358,0.15014648,-0.9902954,-0.09503174,9.875,-45.90625,5.5625
514,1695741815397,0.041015625,-1.0044556,-0.039611816,3.03125,-44.328125,4.734375
515,1695741815436,0.006591797,-1.0432739,-0.042785645,-1.140625,-50.703125,6.078125
516,1695741815476,0.03149414,-1.0044556,-0.0713501,-3.203125,-54.0,5.1875
517,1695741815516,0.08618164,-1.1096802,-0.2041626,4.453125,-63.28125,-10.234375
518,1695741815556,0.36157227,-1.1150513,-0.057922363,-12.5,-50.359375,-4.71875
519,1695741815597,0.5283203,-1.192688,0.19818115,-8.65625,-20.875,7.8125
520,1695741815639,0.39257812,-0.86065674,0.09686279,1.09375,-45.890625,-6.109375
521,1695741815677,0.034423828,-0.6851196,-0.07598877,28.09375,-52.71875,-11.53125
522,1695741815717,-0.05834961,-0.7432251,-0.057678223,40.390625,-29.1875,-12.40625
523,1695741815759,0.12207031,-1.0137329,-0.12261963,-13.6875,-23.65625,0.6875
524,1695741815797,0.44995117,-1.1704712,0.43743896,-53.46875,6.859375,3.484375
525,1695741815836,0.33154297,-0.8945923,0.307312,28.796875,-36.9375,-12.0
526,1695741815876,0.052246094,-0.63482666,-0.042785645,21.609375,-18.75,-7.90625
527,1695741815916,-0.14013672,-0.8435669,0.10394287,11.109375,-8.21875,2.234375
528,1695741815956,-0.0031738281,-1.031311,0.14959717,1.71875,-1.875,4.703125
529,1695741815996,0.26293945,-1.0029907,0.3131714,-8.296875,11.359375,-14.40625
530,1695741816037,0.26757812,-0.9116821,0.22406006,9.34375,-5.46875,-9.046875
531,1695741816056,0.23706055,-0.89630127,0.15374756,7.09375,-3.546875,-7.328125
532,1695741816097,-0.029541016,-0.9524536,0.17010498,19.640625,-5.8125,-13.109375
533,1695741816138,-0.15209961,-1.3306274,-0.31329346,37.453125,-28.984375,-8.875
534,1695741816176,0.2783203,-1.607727,-0.24639893,-29.46875,23.5625,0.8125
535,1695741816217,0.47509766,-0.96539307,0.56243896,-59.328125,49.1875,-8.828125
536,1695741816258,0.16674805,-0.6917114,-0.023010254,40.671875,-11.390625,-14.796875
537,1695741816297,-0.010009766,-0.58135986,-0.302063,26.984375,-4.640625,-1.953125
538,1695741816337,-0.21142578,-1.0010376,-0.41485596,22.328125,3.359375,12.359375
539,1695741816380,0.0637207,-1.2210083,-0.33868408,8.125,12.34375,6.484375
540,1695741816419,0.2644043,-1.048645,-0.09112549,-26.421875,24.609375,-7.953125
541,1695741816459,0.044921875,-0.9307251,-0.0256958,-27.015625,21.6875,4.765625
542,1695741816501,-0.012451172,-0.864563,-0.035461426,-9.390625,4.09375,9.28125
543,1695741816539,-0.0031738281,-0.864563,-0.14703369,7.171875,-6.75,0.140625
544,1695741816579,-0.001953125,-0.9331665,-0.1609497,4.078125,-0.8125,-3.234375
545,1695741816620,0.024414062,-1.0366821,-0.0037231445,-3.453125,5.484375,2.0
546,1695741816660,0.056396484,-1.079895,-0.0068969727,-17.078125,0.671875,3.453125
547,1695741816701,-0.009277344,-0.9758911,-0.0044555664,-17.09375,-3.5,1.640625
548,1695741816743,0.001953125,-0.9512329,-0.024963379,-15.796875,-8.359375,0.046875
549,1695741816782,0.038085938,-0.9517212,0.03314209,-15.59375,-3.703125,-0.75
550,1695741816820,0.08862305,-0.9512329,0.066589355,-11.875,-13.953125,2.453125
551,1695741816860,0.14282227,-1.1887817,0.048034668,2.171875,-25.984375,5.84375
552,1695741816899,0.30908203,-1.3377075,-0.036193848,18.90625,-23.359375,7.8125
553,1695741816941,0.17260742,-0.9529419,0.017028809,-13.265625,-4.9375,8.140625
554,1695741816980,0.01586914,-0.7481079,0.03656006,-2.328125,-9.5,0.96875
555,1695741817020,0.0043945312,-0.61016846,0.005554199,4.40625,-9.296875,-9.15625
556,1695741817060,0.13476562,-0.82647705,0.030700684,15.25,-0.71875,1.734375
557,1695741817097,0.5720215,-1.5183716,0.21234131,-13.453125,-0.796875,14.4375
558,1695741817139,0.34326172,-1.0283813,0.12420654,-18.46875,1.921875,3.390625
559,1695741817182,0.088134766,-0.85284424,0.010681152,-21.921875,-5.171875,2.828125
560,1695741817220,0.1772461,-0.6934204,0.039978027,12.46875,-17.890625,-18.0625
561,1695741817260,0.16088867,-0.7654419,0.007019043,7.953125,-2.328125,-12.140625
562,1695741817299,0.33081055,-1.0872192,0.34368896,-46.375,11.5,11.5625
563,1695741817318,0.48706055,-1.1975708,0.37738037,28.09375,-27.0,-2.1875
564,1695741817360,0.26293945,-0.928772,-0.09088135,8.75,-23.421875,-8.015625
565,1695741817399,0.05444336,-0.89385986,0.28656006,-5.5625,-16.984375,-8.3125
566,1695741817440,-0.20385742,-0.95977783,0.08856201,18.328125,-24.8125,-8.125
567,1695741817480,-0.11669922,-1.0042114,0.022399902,-2.703125,-11.6875,0.59375
568,1695741817520,0.2277832,-0.9920044,0.18597412,-26.984375,0.8125,5.75
569,1695741817560,0.24951172,-1.0254517,0.2670288,-0.90625,-9.34375,-2.328125
570,1695741817604,0.11230469,-0.9216919,0.13885498,-5.15625,-17.484375,-6.203125
571,1695741817641,-0.04663086,-0.92315674,0.20233154,4.390625,-2.828125,-3.59375
572,1695741817685,-0.07836914,-1.0310669,0.081726074,-6.359375,-9.375,4.65625
573,1695741817719,0.10180664,-0.9578247,0.1461792,-5.390625,-1.84375,-3.8125
574,1695741817761,0.114746094,-1.0530396,0.13006592,-11.765625,5.65625,3.1875
575,1695741817805,0.1418457,-0.92193604,0.20111084,5.65625,-0.953125,-7.671875
576,1695741817836,0.118652344,-1.1734009,-0.15557861,13.671875,-17.0,4.921875
577,1695741817876,0.3786621,-0.9627075,0.0028686523,-43.078125,-8.15625,0.921875
578,1695741817918,0.2043457,-0.90948486,0.39422607,20.90625,-7.15625,-5.203125
579,1695741817959,-0.049072266,-0.940979,0.014587402,26.140625,-17.8125,-1.8125
580,1695741818001,-0.06982422,-1.0369263,0.016052246,4.703125,-11.15625,8.15625
581,1695741818042,0.091796875,-1.1262817,0.101501465,-12.796875,7.953125,9.828125
582,1695741818079,0.19677734,-0.9077759,0.3690796,-7.546875,3.40625,-5.328125
583,1695741818118,-0.03564453,-0.86187744,0.152771,18.359375,-4.75,-11.328125
584,1695741818158,-0.05883789,-0.94854736,0.1395874,-13.265625,18.34375,-1.75
585,1695741818196,0.05419922,-0.9710083,0.29656982,5.375,6.5,5.421875
586,1695741818236,0.17749023,-1.112854,0.199646,0.734375,5.421875,-2.8125
587,1695741818276,0.087646484,-0.9819946,0.18695068,0.96875,15.1875,-14.171875
588,1695741818316,-0.03149414,-0.94195557,0.10687256,8.5625,12.109375,-10.9375
589,1695741818357,0.018066406,-0.93048096,0.05682373,-4.390625,12.515625,-5.046875
590,1695741818397,0.12841797,-0.96295166,0.1605835,-9.234375,18.875,-3.484375
591,1695741818436,0.106933594,-1.005188,0.19940186,7.390625,8.1875,-4.796875
592,1695741818477,-0.0029296875,-1.0449829,0.12420654,13.265625,4.78125,-5.890625
593,1695741818518,-0.08569336,-1.0061646,0.066833496,3.34375,14.28125,-2.984375
594,1695741818537,0.013671875,-0.9902954,0.06585693,-4.03125,12.59375,-6.265625
595,1695741818576,0.09301758,-0.9536743,0.18548584,-0.390625,20.953125,-8.28125
596,1695741818619,0.05493164,-0.99346924,0.15545654,2.953125,8.421875,-4.4375
597,1695741818660,-0.07421875,-1.0112915,0.085632324,11.625,1.125,1.609375
598,1695741818698,-0.0637207,-1.081604,0.011657715,-2.34375,10.828125,-1.625
599,1695741818740,0.0043945312,-0.9902954,0.10272217,-10.53125,21.53125,-9.3125
600,1695741818780,-0.013183594,-0.9429321,0.15789795,7.40625,13.296875,-6.40625
601,1695741818819,-0.0078125,-0.98760986,0.06414795,-4.6875,10.203125,-3.171875
602,1695741818860,-0.0063476562,-1.0083618,0.1227417,1.578125,5.40625,-2.390625
603,1695741818899,-0.05859375,-1.0090942,0.10638428,6.671875,10.046875,0.328125
604,1695741818941,-0.010009766,-0.98028564,0.04827881,-2.21875,2.875,-3.546875
605,1695741818982,-0.038330078,-0.9312134,0.1486206,-1.6875,8.359375,-5.953125
606,1695741819019,-0.07739258,-1.0227661,0.06781006,2.640625,7.3125,-2.4375
607,1695741819063,-0.111083984,-1.0239868,0.08758545,-2.34375,8.875,-3.21875
608,1695741819097,-0.10253906,-1.0037231,0.07952881,-0.078125,10.15625,-7.59375
609,1695741819136,-0.021484375,-1.00177,0.11029053,0.734375,9.890625,1.578125
610,1695741819176,0.015625,-1.0073853,0.11395264,0.3125,5.046875,1.46875
611,1695741819216,-0.030273438,-0.95025635,0.066345215,-3.0,2.09375,-2.984375
612,1695741819256,-0.06201172,-0.9602661,0.11224365,0.703125,5.171875,-5.28125
613,1695741819296,-0.08203125,-1.0679321,0.137146,2.625,8.40625,0.15625
614,1695741819337,-0.110839844,-1.0012817,0.09979248,4.046875,5.71875,0.40625
615,1695741819377,-0.06665039,-0.9360962,0.034851074,6.25,5.28125,-2.125
616,1695741819416,-0.09008789,-0.9612427,0.05999756,4.140625,16.140625,1.53125
617,1695741819457,-0.013671875,-1.0339966,0.07684326,-1.078125,8.5625,3.390625
618,1695741819496,-0.08642578,-1.0117798,0.10076904,4.421875,10.84375,0.890625
619,1695741819536,-0.12597656,-1.0335083,0.061706543,0.84375,15.453125,4.953125
620,1695741819577,-0.07104492,-0.9541626,0.0079956055,0.984375,9.59375,3.625
621,1695741819617,-0.045898438,-0.9780884,0.07122803,3.09375,13.6875,1.640625
622,1695741819656,-0.0048828125,-1.0901489,0.05682373,2.515625,9.03125,5.640625
623,1695741819698,-0.01928711,-1.0007935,0.05340576,-3.453125,8.984375,4.5
624,1695741819737,-0.01977539,-1.0220337,0.018005371,2.09375,3.921875,4.078125
625,1695741819756,-0.024658203,-0.95635986,0.054626465,-0.8125,8.421875,5.15625
626,1695741819796,-0.12231445,-1.0383911,0.030944824,-1.609375,7.484375,6.875
627,1695741819837,-0.104003906,-0.9812622,0.028747559,-0.203125,6.28125,4.234375
628,1695741819876,-0.1003418,-0.9480591,0.014099121,2.140625,8.265625,0.515625
629,1695741819919,-0.1315918,-1.0261841,-0.008361816,0.265625,13.34375,1.0625
630,1695741819957,-0.010986328,-0.96661377,0.047302246,-7.046875,13.78125,-0.625
631,1695741819998,0.0063476562,-1.0200806,0.04510498,-14.296875,10.59375,-1.3125
632,1695741820041,0.06640625,-1.0254517,0.06463623,-6.859375,10.796875,5.546875
633,1695741820082,0.0029296875,-0.9841919,0.08685303,-4.390625,13.453125,4.125
634,1695741820121,-0.111083984,-0.96710205,0.0758667,-4.734375,21.046875,0.78125
635,1695741820158,-0.107177734,-0.93096924,-0.022033691,-3.734375,8.03125,0.296875
636,1695741820199,0.111572266,-0.9475708,0.02557373,0.65625,6.265625,0.578125
637,1695741820261,0.11303711,-0.9480591,0.06512451,-0.5625,8.625,3.6875
638,1695741820278,0.10888672,-0.99542236,0.1149292,-0.953125,16.28125,2.625
639,1695741820341,0.033935547,-0.93927,0.17010498,-9.828125,19.328125,-11.96875
640,1695741820360,0.021972656,-0.93878174,0.09564209,10.6875,11.921875,-9.328125
641,1695741820401,0.115722656,-1.0903931,0.11907959,-13.140625,22.703125,-1.5625
642,1695741820440,0.16772461,-1.2295532,0.3546753,-10.140625,25.171875,-5.140625
643,1695741820479,0.045410156,-1.0632935,0.15985107,5.296875,9.21875,-11.703125
644,1695741820520,0.020507812,-0.92266846,0.05682373,-3.0625,15.484375,-7.703125
645,1695741820562,0.1159668,-0.78863525,0.22479248,-17.203125,32.5625,-8.515625
646,1695741820601,0.021484375,-0.9026489,0.20599365,10.078125,10.703125,-1.234375
647,1695741820639,0.017089844,-1.0964966,0.14666748,-1.71875,11.734375,2.6875
648,1695741820681,-0.12158203,-1.3320923,0.13543701,14.03125,12.734375,4.5
649,1695741820720,0.15454102,-1.0618286,0.012878418,-6.28125,8.96875,-1.9375
650,1695741820760,0.012939453,-0.68341064,0.14642334,8.609375,14.78125,-1.84375
651,1695741820802,-0.14770508,-0.77130127,-0.006652832,21.796875,4.1875,4.828125
652,1695741820843,-0.13671875,-1.010315,-0.07330322,4.3125,12.5625,15.078125
653,1695741820879,0.028320312,-1.2090454,0.027770996,-14.984375,25.40625,8.765625
654,1695741820923,0.072265625,-1.0252075,0.13641357,6.0625,15.0625,2.0625
655,1695741820981,-0.0053710938,-0.9302368,-0.0049438477,7.40625,15.140625,-1.15625
656,1695741821000,-0.111572266,-0.92633057,0.015563965,-4.984375,15.921875,4.65625
657,1695741821021,0.06347656,-0.8748169,-0.012512207,0.34375,10.046875,9.265625
658,1695741821062,0.10571289,-1.1323853,0.05340576,10.390625,14.015625,11.5625
659,1695741821101,0.018066406,-1.0945435,0.066345215,2.234375,9.140625,3.953125
660,1695741821140,-0.099609375,-0.9475708,-0.0076293945,11.703125,6.921875,-0.734375
661,1695741821180,-0.12915039,-0.93829346,-0.101135254,4.265625,14.71875,0.75
662,1695741821218,-0.015136719,-0.97198486,-0.0051879883,-0.5625,13.5,0.203125
663,1695741821303,0.05126953,-1.0733032,-0.09942627,-9.078125,5.984375,0.9375
664,1695741821309,0.10449219,-1.0852661,0.08929443,-11.515625,16.96875,-3.890625
665,1695741821339,-0.032714844,-0.93951416,0.05316162,4.015625,7.046875,-4.546875
666,1695741821380,-0.05053711,-0.9368286,-0.061584473,-18.796875,9.546875,3.84375
667,1695741821424,-0.0017089844,-0.90216064,0.050231934,1.703125,9.515625,-2.296875
668,1695741821461,-0.055664062,-1.0564575,-0.0413208,0.28125,12.546875,-0.171875
669,1695741821501,-0.0007324219,-0.9873657,-0.027160645,-15.0625,18.90625,-1.5625
670,1695741821542,-0.020507812,-0.96099854,0.018005371,2.765625,15.546875,0.90625
671,1695741821582,-0.025634766,-0.97442627,-0.06500244,-2.609375,16.6875,2.390625
672,1695741821620,-0.009277344,-1.0093384,-0.057678223,-0.03125,16.640625,5.453125
673,1695741821660,0.0075683594,-1.02594,-0.003479004,2.46875,20.3125,2.640625
674,1695741821702,-0.019042969,-1.0100708,-0.062805176,-0.75,21.265625,3.015625
675,1695741821740,0.013916016,-0.9873657,-0.086242676,-3.3125,23.671875,6.953125
676,1695741821779,0.046875,-0.93170166,-0.027648926,-6.03125,20.203125,5.40625
677,1695741821819,-0.017822266,-0.9829712,-0.05303955,1.984375,16.34375,6.796875
678,1695741821860,-0.095214844,-1.0022583,-0.16656494,-2.765625,16.296875,7.984375
679,1695741821902,-0.017822266,-0.96588135,-0.06964111,-13.84375,23.15625,5.5
680,1695741821940,-0.04248047,-1.0254517,-0.08331299,-9.765625,19.34375,2.96875
681,1695741821980,-0.008544922,-0.97052,-0.04034424,-8.078125,20.046875,3.421875
682,1695741822020,0.020996094,-0.9819946,-0.03326416,-8.3125,23.84375,7.484375
683,1695741822062,0.07836914,-1.0227661,-0.07086182,-13.359375,20.1875,9.34375
684,1695741822102,0.20019531,-1.0227661,0.08856201,-19.71875,35.84375,12.828125
685,1695741822141,0.19921875,-0.97442627,0.18011475,-9.71875,29.140625,9.015625
686,1695741822181,0.13549805,-0.8557739,0.1329956,-13.0625,10.53125,7.25
687,1695741822220,0.31884766,-0.96417236,0.20843506,-5.671875,18.046875,13.46875
688,1695741822240,0.34228516,-1.2124634,0.2694702,-5.015625,8.453125,7.390625
689,1695741822280,0.22827148,-1.1780396,0.44281006,-20.890625,25.21875,2.140625
690,1695741822319,0.18945312,-0.986145,0.17279053,-11.546875,6.53125,-0.65625
691,1695741822361,0.16186523,-0.80181885,0.15301514,-6.8125,15.0,-5.34375
692,1695741822401,0.28442383,-0.72003174,0.25994873,-8.109375,19.265625,-5.109375
693,1695741822441,0.3154297,-0.8110962,0.34710693,-10.71875,2.46875,4.71875
694,1695741822480,0.26757812,-0.8574829,0.28289795,5.140625,-3.671875,10.015625
695,1695741822520,0.10058594,-0.91656494,0.25408936,16.28125,8.140625,-1.546875
696,1695741822560,-0.07861328,-1.034729,0.09515381,20.171875,4.734375,-4.890625
697,1695741822601,0.1027832,-0.8987427,0.07928467,-10.03125,16.359375,2.703125
698,1695741822640,0.25512695,-0.8755493,0.355896,-19.6875,27.21875,-1.078125
699,1695741822680,0.24609375,-0.927063,0.3390503,18.03125,-0.171875,-5.40625
700,1695741822721,0.026855469,-1.0037231,0.17523193,16.03125,6.015625,-8.09375
701,1695741822761,-0.15698242,-1.0132446,0.031677246,6.40625,15.375,-8.828125
702,1695741822801,0.045898438,-0.97442627,0.18035889,-25.0,37.0,-13.09375
703,1695741822843,0.0847168,-1.0408325,0.3678589,7.9375,26.890625,-21.40625
704,1695741822879,-0.0041503906,-1.1382446,-0.0064086914,4.8125,4.28125,-11.015625
705,1695741822921,0.5800781,-1.553772,-0.10455322,-3.21875,14.421875,21.296875
706,1695741822961,0.46191406,-0.909729,0.54559326,-28.390625,51.8125,-20.03125
707,1695741823000,0.22973633,-0.64849854,0.045837402,34.578125,-19.109375,-33.078125
708,1695741823040,-0.055908203,-0.9067993,-0.3110962,-29.265625,13.984375,-8.875
709,1695741823080,0.099853516,-1.1731567,0.10467529,12.078125,6.65625,2.234375
710,1695741823120,0.18530273,-0.9299927,0.059753418,6.1875,2.828125,-2.296875
711,1695741823160,0.14160156,-0.75860596,0.02532959,-9.109375,1.78125,-3.40625
712,1695741823201,-0.03930664,-0.8201294,0.023864746,-3.015625,0.21875,-1.28125
713,1695741823239,-0.016357422,-1.0020142,0.046325684,9.84375,-13.578125,9.953125
714,1695741823279,0.05444336,-1.0567017,0.093688965,0.390625,-10.453125,11.90625
715,1695741823323,0.0126953125,-0.92681885,0.1876831,-0.6875,-11.609375,6.078125
716,1695741823361,-0.05810547,-0.96539307,0.082458496,-7.0,-26.8125,6.3125
717,1695741823400,0.045898438,-1.0200806,0.08416748,-2.75,-27.234375,8.828125
718,1695741823443,0.043945312,-1.1343384,0.0446167,2.78125,-28.078125,4.5
719,1695741823459,0.08862305,-1.0791626,0.137146,-7.03125,-19.140625,-0.078125
720,1695741823500,0.063964844,-1.062561,0.1083374,0.6875,-36.875,0.140625
721,1695741823541,0.21362305,-1.1213989,0.01727295,-0.65625,-41.796875,2.25
722,1695741823582,0.37402344,-1.1484985,0.019958496,0.515625,-34.0,6.90625
723,1695741823620,0.33544922,-1.0005493,0.070495605,0.5,-28.171875,12.015625
724,1695741823660,0.34277344,-0.7974243,0.08392334,2.375,-40.25,5.96875
725,1695741823701,0.27172852,-0.75982666,0.18182373,7.875,-30.609375,3.421875
726,1695741823741,0.14111328,-0.960022,0.14324951,19.734375,-41.75,3.796875
727,1695741823781,0.21484375,-0.9973755,0.13690186,5.59375,-39.53125,9.9375
728,1695741823821,0.27563477,-0.8804321,0.2189331,1.859375,-29.546875,0.671875
729,1695741823861,0.17675781,-0.722229,0.11151123,12.484375,-28.8125,-2.0625
730,1695741823900,0.0637207,-0.8237915,0.20159912,10.703125,-21.34375,3.703125
731,1695741823945,-0.020507812,-1.0422974,0.2033081,15.453125,-22.734375,4.5
732,1695741823981,-0.004638672,-0.9993286,0.21990967,-14.703125,-7.078125,-11.609375
733,1695741824021,0.111816406,-0.79229736,0.2597046,7.3125,-4.546875,-13.65625
734,1695741824061,0.21362305,-0.9209595,0.19403076,6.984375,1.71875,-11.25
735,1695741824103,0.2199707,-1.031311,0.29388428,6.421875,-10.828125,-12.734375
736,1695741824141,-0.12695312,-1.3132935,-0.045715332,25.140625,-29.328125,-12.75
737,1695741824180,0.008056641,-1.5232544,-0.14312744,-9.234375,4.125,-3.84375
738,1695741824220,0.41455078,-1.0584106,0.4484253,-48.90625,52.890625,-17.421875
739,1695741824264,0.13842773,-0.6416626,0.078552246,20.453125,-11.671875,-22.765625
740,1695741824298,0.07128906,-0.5762329,-0.25372314,11.765625,-10.5625,-5.875
741,1695741824340,0.25024414,-1.03302,-0.16436768,11.53125,-13.546875,20.25
742,1695741824382,0.25732422,-1.3630981,0.039245605,-9.15625,11.40625,3.9375
743,1695741824420,0.11035156,-0.9155884,0.0524292,-12.796875,-9.234375,-1.8125
744,1695741824461,-0.025146484,-0.8101196,0.06072998,0.609375,-7.140625,2.625
745,1695741824502,-0.01977539,-0.8948364,-0.04058838,0.453125,-15.75,4.0
746,1695741824538,0.08544922,-0.87750244,-0.06964111,9.828125,-29.078125,6.125
747,1695741824581,0.20776367,-0.9920044,0.051940918,6.890625,-28.453125,9.6875
748,1695741824621,0.15332031,-1.1035767,0.11151123,-14.140625,-21.5,12.1875
749,1695741824660,0.11376953,-1.022522,0.08319092,-15.453125,-32.0,18.9375
750,1695741824679,0.047851562,-1.0181274,0.016540527,-4.71875,-40.046875,12.78125
751,1695741824721,-0.08496094,-1.0012817,-0.00079345703,2.53125,-36.640625,8.546875
752,1695741824760,0.103271484,-1.0437622,0.113220215,1.203125,-36.875,10.765625
753,1695741824802,0.576416,-1.0916138,0.25750732,0.234375,-16.546875,22.78125
754,1695741824841,0.48364258,-0.8945923,0.1461792,-11.328125,-34.859375,32.6875
755,1695741824882,0.3798828,-0.86798096,0.1749878,0.96875,-34.0625,25.03125
756,1695741824920,0.0021972656,-0.92852783,0.053649902,37.734375,-42.5,16.953125
757,1695741824962,0.20214844,-0.98565674,0.036071777,5.25,-24.703125,11.859375
758,1695741825000,0.39575195,-0.93170166,0.24798584,-24.21875,-0.890625,16.796875
759,1695741825040,0.5654297,-0.76812744,0.25823975,-4.234375,-25.734375,19.15625
760,1695741825084,0.5690918,-0.7647095,0.19525146,2.734375,-28.625,22.640625
761,1695741825120,0.38378906,-0.82647705,0.19671631,17.203125,-29.984375,24.328125
762,1695741825160,0.3034668,-0.9456177,0.20574951,8.609375,-33.484375,24.078125
763,1695741825199,0.4711914,-0.90045166,0.24407959,-0.3125,-25.109375,16.671875
764,1695741825242,0.55737305,-0.7737427,0.31903076,4.453125,-25.390625,6.84375
765,1695741825278,0.46191406,-0.8584595,0.2345581,16.15625,-28.8125,8.328125
766,1695741825318,0.39746094,-0.86187744,0.25775146,12.203125,-24.171875,9.875
767,1695741825358,0.36254883,-0.8352661,0.24285889,14.453125,-20.3125,9.546875
768,1695741825398,0.36791992,-0.7883911,0.2164917,11.796875,-14.25,0.671875
769,1695741825439,0.37060547,-0.76226807,0.20013428,19.40625,-4.625,-6.265625
770,1695741825483,0.44628906,-0.84332275,0.18890381,12.015625,-4.390625,3.671875
771,1695741825520,0.6435547,-0.95635986,0.3060913,3.828125,0.3125,3.5625
772,1695741825561,0.49365234,-0.9212036,0.24212646,18.078125,-4.734375,-3.28125
773,1695741825599,0.44799805,-0.84259033,0.22039795,2.453125,6.875,-8.734375
774,1695741825642,0.38916016,-0.72613525,0.24334717,7.734375,5.046875,-9.828125
775,1695741825680,0.4711914,-0.802063,0.18597412,13.515625,-1.359375,-6.8125
776,1695741825720,0.5859375,-0.86065674,0.21038818,13.5,-1.203125,-3.109375
777,1695741825758,0.52685547,-0.8677368,0.2111206,12.6875,1.046875,-9.59375
778,1695741825798,0.47827148,-0.835022,0.14788818,12.5,-4.09375,-7.90625
779,1695741825838,0.4543457,-0.8640747,0.14837646,12.375,-9.171875,-6.484375
780,1695741825877,0.43920898,-0.9116821,0.14447021,16.140625,-6.84375,-11.40625
781,1695741825920,0.3552246,-0.9397583,0.08099365,12.984375,-8.53125,-16.453125
782,1695741825938,0.37573242,-1.013977,0.030944824,17.515625,-14.109375,-13.75
783,1695741825980,0.46166992,-0.9492798,0.03387451,5.828125,-7.84375,-8.859375
784,1695741826021,0.49365234,-0.85162354,0.12982178,0.359375,-15.96875,-8.390625
785,1695741826060,0.33032227,-0.82891846,0.03753662,27.015625,-22.90625,-15.53125
786,1695741826099,0.15405273,-0.9607544,-0.1038208,23.03125,-21.140625,-18.90625
787,1695741826142,0.1640625,-1.0281372,-0.10870361,-4.078125,-11.90625,-15.46875
788,1695741826181,0.36645508,-1.03302,0.019470215,-16.265625,-11.8125,-15.015625
789,1695741826222,0.39794922,-0.95562744,0.097595215,5.65625,-20.765625,-19.046875
790,1695741826260,0.21508789,-0.8858032,-0.10430908,25.75,-39.375,-21.4375
791,1695741826300,0.04345703,-0.92755127,-0.26202393,14.71875,-25.15625,-15.515625
792,1695741826340,0.0017089844,-0.97979736,-0.17218018,-6.71875,-16.515625,-11.78125
793,1695741826378,0.09667969,-1.0032349,-0.058654785,8.53125,-27.1875,-12.328125
794,1695741826420,0.06225586,-1.0278931,-0.16290283,11.921875,-24.71875,-14.484375
795,1695741826462,0.04272461,-0.99786377,-0.1453247,3.046875,-21.515625,-12.078125
796,1695741826500,-0.010986328,-0.89141846,-0.10723877,7.546875,-23.96875,-10.390625
797,1695741826541,-0.025634766,-0.9360962,-0.13922119,13.984375,-24.890625,-5.859375
798,1695741826580,0.07470703,-1.0481567,-0.16802979,-1.296875,-19.46875,-8.890625
799,1695741826622,0.21850586,-1.0354614,-0.046203613,-24.703125,-18.78125,0.40625
800,1695741826662,0.20996094,-0.9795532,0.01361084,-6.71875,-33.984375,2.296875
801,1695741826701,0.16333008,-0.9570923,0.074157715,-12.234375,-41.640625,2.0
802,1695741826739,0.0036621094,-0.9768677,-0.09307861,-9.609375,-47.09375,6.0625
803,1695741826780,0.119140625,-1.0144653,-0.04473877,-13.1875,-52.296875,6.390625
804,1695741826821,0.45751953,-1.0532837,0.29022217,-24.3125,-25.71875,21.84375
805,1695741826859,0.39453125,-0.99102783,0.11883545,4.03125,-51.796875,24.59375
806,1695741826901,0.3256836,-0.7439575,0.07904053,-9.359375,-66.953125,22.078125
807,1695741826942,0.12573242,-0.75787354,0.030944824,37.78125,-57.90625,8.40625
808,1695741826984,-0.25610352,-1.0786743,0.005065918,38.046875,-28.359375,-9.53125
809,1695741827020,-0.15307617,-1.1958618,-0.101135254,-15.875,-17.15625,7.359375
810,1695741827062,0.41064453,-1.0076294,0.4874878,-56.0625,14.296875,-2.078125
811,1695741827100,0.45092773,-0.8706665,0.28460693,11.796875,-22.109375,-7.984375
812,1695741827141,0.32006836,-0.9092407,0.30950928,-2.734375,-12.578125,0.015625
813,1695741827162,0.1418457,-0.87701416,0.27703857,15.46875,-29.296875,-6.140625
814,1695741827199,0.031982422,-0.82647705,0.26483154,-0.03125,-9.75,-0.4375
815,1695741827240,0.18920898,-0.80914307,0.29925537,8.234375,-9.96875,-4.1875
816,1695741827280,0.37060547,-0.93292236,0.33758545,-3.0625,-7.53125,-5.421875
817,1695741827320,0.33447266,-0.9067993,0.4069214,10.359375,-12.015625,-1.03125
818,1695741827364,0.18310547,-0.82037354,0.32489014,16.296875,-16.234375,-0.203125
819,1695741827397,0.16723633,-0.8965454,0.26922607,17.734375,-21.640625,-3.515625
820,1695741827443,0.16967773,-1.0061646,0.30828857,13.125,-11.265625,-1.859375
821,1695741827480,0.20703125,-1.1692505,0.19647217,32.453125,-28.5625,-2.453125
822,1695741827520,0.15332031,-1.3057251,-0.0881958,35.484375,-27.328125,3.34375
823,1695741827557,0.30371094,-1.1436157,-0.07501221,-28.171875,18.5625,5.171875
824,1695741827600,0.08666992,-0.8027954,0.27874756,-14.953125,15.21875,-6.609375
825,1695741827642,-0.05053711,-0.85772705,-0.08453369,62.59375,-29.015625,-19.15625
826,1695741827680,-0.02758789,-1.1187134,-0.36212158,46.59375,-18.171875,4.671875
827,1695741827719,0.17138672,-1.1731567,-0.40093994,8.046875,11.640625,1.46875
828,1695741827761,0.07080078,-0.82769775,-0.21002197,-29.625,25.140625,-18.90625
829,1695741827801,-0.055908203,-0.8225708,-0.078186035,-12.5,14.140625,-19.125
830,1695741827842,-0.17114258,-1.0151978,0.0014038086,-8.8125,11.4375,-4.75
831,1695741827880,-0.11791992,-1.0596313,-0.06109619,11.21875,15.546875,-2.53125
832,1695741827920,0.13500977,-0.9204712,-0.10430908,5.953125,3.8125,-3.53125
833,1695741827960,0.06713867,-0.9619751,-0.11871338,-4.359375,12.78125,1.015625
834,1695741828001,-0.04345703,-1.0374146,-0.04864502,-22.703125,19.140625,9.046875
835,1695741828039,-0.07055664,-0.91778564,0.0368042,-11.96875,9.21875,9.0
836,1695741828079,0.028808594,-0.9133911,-0.07696533,-5.640625,4.953125,11.953125
837,1695741828120,0.1862793,-0.89630127,0.013366699,-16.265625,2.828125,14.296875
838,1695741828159,0.18383789,-1.005188,0.13397217,-13.234375,1.890625,18.21875
839,1695741828201,0.037353516,-1.0315552,0.08465576,-5.59375,-4.5625,13.046875
840,1695741828239,-0.091796875,-1.0635376,0.08319092,-0.328125,-7.515625,7.796875
841,1695741828280,0.08105469,-1.0462036,0.10467529,-20.453125,-3.171875,8.828125
842,1695741828321,0.07446289,-1.0359497,0.120788574,-13.578125,-14.296875,12.015625
843,1695741828360,0.080078125,-1.0974731,-0.026184082,5.421875,-20.015625,18.328125
844,1695741828380,0.31030273,-1.2927856,-0.023498535,17.625,-9.515625,20.9375
845,1695741828418,0.34106445,-0.99224854,-0.0056762695,-14.921875,11.28125,10.375
846,1695741828459,0.28710938,-0.8206177,0.035583496,-17.609375,20.9375,6.640625
847,1695741828496,0.22460938,-0.75909424,-0.11480713,-16.125,20.15625,3.5625
848,1695741828537,0.36523438,-0.85357666,0.10321045,-22.859375,24.359375,3.4375
849,1695741828577,0.52490234,-1.0750122,0.26434326,-28.234375,20.046875,19.78125
850,1695741828621,0.529541,-0.9692993,0.17645264,-33.59375,17.25,11.203125
851,1695741828660,0.30444336,-0.7883911,0.057556152,-27.3125,28.875,1.453125
852,1695741828702,0.22338867,-0.76104736,0.04144287,-7.40625,29.4375,-7.65625
853,1695741828740,0.31591797,-0.83721924,0.14349365,-13.453125,26.546875,-7.34375
854,1695741828781,0.45507812,-0.9277954,0.30096436,-19.734375,27.4375,-1.09375
855,1695741828819,0.4584961,-0.89434814,0.20111084,-20.828125,24.859375,-4.09375
856,1695741828861,0.31982422,-0.8550415,0.15960693,-17.828125,36.640625,-5.296875
857,1695741828904,0.23510742,-0.8526001,0.2111206,-9.25,32.0625,-9.578125
858,1695741828940,0.27441406,-0.8731079,0.21917725,0.859375,30.515625,-13.53125
859,1695741828980,0.32080078,-0.90753174,0.18353271,-6.484375,39.65625,-14.0
860,1695741829021,0.30786133,-0.89019775,0.18157959,-8.984375,42.21875,-11.4375
861,1695741829060,0.26391602,-0.8765259,0.18865967,-4.8125,51.640625,-14.296875
862,1695741829102,0.26611328,-0.9241333,0.18572998,-7.453125,52.984375,-18.046875
863,1695741829142,0.25048828,-0.9751587,0.19403076,-5.9375,53.25,-19.3125
864,1695741829180,0.33154297,-0.9702759,0.18499756,-11.796875,55.453125,-20.984375
865,1695741829220,0.32788086,-1.1106567,0.053649902,-1.765625,43.046875,-15.515625
866,1695741829262,0.3239746,-1.1494751,-0.030822754,1.375,38.171875,-10.03125
867,1695741829301,0.24829102,-1.0803833,-0.014709473,-9.390625,49.34375,-15.140625
868,1695741829340,0.18017578,-0.8921509,-0.0012817383,-8.21875,49.3125,-18.78125
869,1695741829383,0.20385742,-0.7859497,-0.008850098,-0.171875,30.359375,-10.296875
870,1695741829428,0.1586914,-0.91241455,-0.049865723,0.84375,29.28125,-0.484375
871,1695741829458,0.19580078,-1.0376587,-0.06573486,-9.1875,28.609375,1.03125
872,1695741829502,0.22338867,-1.000061,-0.06085205,-0.390625,20.109375,-10.171875
873,1695741829542,0.14013672,-0.95025635,-0.045715332,-8.171875,22.65625,-6.65625
874,1695741829599,0.026611328,-1.0305786,0.04144287,1.625,17.296875,-5.875
875,1695741829621,-0.060058594,-0.987854,-0.12213135,10.1875,12.125,-7.84375
876,1695741829642,0.026367188,-0.95806885,-0.1519165,-6.234375,20.140625,-7.046875
877,1695741829681,0.10131836,-0.9480591,-0.024719238,-17.328125,18.515625,-5.203125
878,1695741829719,0.11010742,-0.96539307,0.058776855,-2.046875,10.4375,-1.625
879,1695741829761,0.061767578,-0.97369385,-0.04498291,6.953125,-0.28125,-3.859375
880,1695741829804,-0.018310547,-1.0171509,-0.10601807,-5.890625,1.84375,-3.046875
881,1695741829840,0.006591797,-1.015686,-0.042785645,-22.09375,10.203125,-3.640625
882,1695741829881,0.16430664,-1.041565,0.14959717,-25.390625,7.421875,-1.90625
883,1695741829922,0.1965332,-0.9951782,0.22479248,0.515625,-9.40625,0.90625
884,1695741829960,0.08178711,-0.9439087,0.06414795,14.375,-18.59375,2.40625
885,1695741830000,-0.06298828,-0.96466064,-0.07354736,16.65625,-14.1875,-2.578125
886,1695741830041,-0.17456055,-0.9780884,-0.12554932,-0.125,3.546875,-2.75
887,1695741830079,0.040527344,-0.9898071,0.062683105,-34.125,11.0625,7.921875
888,1695741830120,0.2487793,-0.99835205,0.2694702,-14.0625,-0.15625,5.109375
889,1695741830162,0.24853516,-1.0293579,0.18231201,5.0,-8.03125,2.21875
890,1695741830201,0.07910156,-0.94854736,0.09051514,15.4375,-11.9375,-2.6875
891,1695741830243,-0.056396484,-0.96881104,-0.024963379,4.640625,-7.3125,3.328125
892,1695741830282,0.0847168,-0.93341064,0.10003662,-22.921875,3.78125,4.8125
893,1695741830319,0.16601562,-0.99176025,0.2501831,-2.921875,-3.765625,5.40625
894,1695741830360,0.17797852,-1.0508423,0.1149292,1.28125,-8.890625,1.75
895,1695741830401,0.16625977,-0.99102783,0.10467529,0.109375,-5.859375,0.375
896,1695741830462,0.115722656,-0.96173096,0.13470459,-7.65625,-0.09375,1.03125
897,1695741830478,0.06738281,-0.9595337,0.17547607,-0.234375,-4.296875,3.734375
898,1695741830523,0.1508789,-0.9692993,0.13031006,-8.515625,-3.1875,4.984375
899,1695741830563,0.20581055,-0.9680786,0.20452881,-5.875,-2.09375,3.484375
900,1695741830601,0.17919922,-0.9558716,0.21282959,-4.6875,-3.984375,3.140625
901,1695741830641,0.16333008,-0.9854126,0.19866943,1.0,-9.65625,5.3125
902,1695741830680,0.16113281,-1.0007935,0.17327881,3.921875,-5.453125,3.921875
903,1695741830720,0.13916016,-0.9546509,0.15863037,-4.515625,-6.78125,2.703125
904,1695741830760,0.1965332,-0.94366455,0.21234131,-7.0,-3.234375,4.90625
905,1695741830799,0.20996094,-0.9841919,0.22357178,-1.8125,-5.875,4.921875
906,1695741830843,0.18188477,-1.0010376,0.23846436,3.21875,-6.5625,4.25
907,1695741830860,0.13305664,-0.928772,0.15228271,0.578125,-9.40625,3.734375
908,1695741830900,0.21142578,-0.958313,0.21136475,-5.1875,-5.1875,4.09375
909,1695741830944,0.18725586,-0.9907837,0.22503662,1.921875,-1.203125,4.0625
910,1695741830979,0.15161133,-0.96417236,0.21820068,-2.234375,-1.390625,2.5625
911,1695741831019,0.14697266,-0.9356079,0.1618042,-5.65625,1.984375,1.75
912,1695741831060,0.18188477,-0.9495239,0.24993896,-6.53125,3.765625,1.53125
913,1695741831100,0.21118164,-0.9717407,0.22943115,-1.5,3.359375,0.40625
914,1695741831141,0.19677734,-0.98394775,0.21868896,-1.890625,3.53125,0.953125
915,1695741831180,0.2175293,-0.940979,0.18450928,-5.328125,3.6875,1.671875
916,1695741831220,0.20678711,-0.92193604,0.24359131,-7.9375,8.78125,1.15625
917,1695741831260,0.18457031,-0.9680786,0.24017334,-5.484375,5.5625,1.1875
918,1695741831300,0.22583008,-0.9507446,0.27142334,-4.53125,4.09375,1.046875
919,1695741831343,0.23486328,-0.9768677,0.2826538,-5.984375,3.171875,3.1875
920,1695741831379,0.28222656,-0.9417114,0.23797607,-10.453125,0.90625,0.0
921,1695741831419,0.27392578,-0.89385986,0.29510498,-10.25,4.640625,-2.109375
922,1695741831460,0.18896484,-0.9561157,0.2975464,0.828125,5.3125,2.4375
923,1695741831499,0.25610352,-0.97857666,0.29022217,-8.765625,-0.96875,1.328125
924,1695741831540,0.26538086,-0.92437744,0.33953857,1.03125,0.96875,-2.78125
925,1695741831579,0.20605469,-0.85821533,0.24285889,-4.6875,10.015625,-2.90625
926,1695741831619,0.17236328,-0.833313,0.25994873,-0.015625,13.78125,-5.1875
927,1695741831659,0.19335938,-0.9397583,0.3114624,8.25,17.140625,-5.171875
928,1695741831700,0.2434082,-0.95440674,0.26068115,0.578125,17.78125,-5.25
929,1695741831743,0.2619629,-0.9109497,0.26922607,-2.28125,22.4375,-3.765625
930,1695741831776,0.28344727,-0.9224243,0.31585693,-7.03125,31.75,-5.40625
