,timestamp,accel_x,accel_y,accel_z,gyro_x,gyro_y,gyro_z,ind
0,1695773868665,-0.09423828,-0.819397,-0.010314941,12.390625,4.09375,-58.125,0
1,1695773868705,0.27563477,-1.0794067,0.03289795,26.875,7.84375,-45.890625,1
2,1695773868745,0.46411133,-0.96173096,0.17132568,42.078125,7.015625,-4.546875,2
3,1695773868785,0.15795898,-0.57281494,-0.054260254,15.921875,10.78125,15.078125,3
4,1695773868825,-0.19506836,-0.597229,-0.4373169,-34.125,-26.890625,-16.109375,4
5,1695773868865,-0.93408203,-1.5176392,-0.37042236,-31.703125,-60.546875,-20.28125,5
6,1695773868905,-0.7416992,-1.1921997,0.14715576,31.015625,9.28125,-85.640625,6
7,1695773868945,-0.27294922,-1.3276978,-0.16339111,55.5625,47.6875,-51.234375,7
8,1695773868985,0.4013672,-0.94415283,0.010925293,53.328125,61.9375,9.140625,8
9,1695773869025,0.3190918,-0.55792236,-0.3826294,-23.640625,-37.140625,12.875,9
10,1695773869065,0.013916016,-0.7263794,-0.4282837,-64.328125,-75.21875,-18.21875,10
11,1695773869105,-0.47436523,-1.5664673,-0.117248535,-49.1875,-34.40625,-6.390625,11
12,1695773869145,-0.55859375,-1.2788696,-0.07208252,21.625,-11.40625,8.0,12
13,1695773869185,-0.41333008,-0.9470825,-0.043029785,21.234375,-6.359375,34.8125,13
14,1695773869225,-0.06982422,-0.8233032,-0.4734497,-1.65625,-7.71875,43.59375,14
15,1695773869265,-0.11767578,-0.86260986,-0.3538208,-2.109375,-25.75,75.515625,15
16,1695773869305,-0.43115234,-0.65216064,-0.0044555664,-5.328125,-26.71875,67.390625,16
17,1695773869345,-0.35766602,-0.82232666,-0.12359619,-4.015625,-0.296875,14.421875,17
18,1695773869385,-0.4597168,-0.95562744,-0.12579346,-11.65625,11.21875,-28.34375,18
19,1695773869425,-0.18774414,-0.92803955,-0.12628174,-30.765625,8.75,-34.359375,19
20,1695773869465,0.019042969,-0.94854736,-0.061584473,-19.828125,23.796875,-1.59375,20
21,1695773869505,0.40625,-0.9800415,-0.19732666,5.6875,6.671875,44.671875,21
22,1695773869545,0.36035156,-0.9663696,-0.09552002,25.453125,11.5,69.953125,22
23,1695773869585,0.33618164,-1.2839966,-0.15704346,-23.703125,-2.515625,39.75,23
24,1695773869625,-0.40014648,-1.3521118,0.26507568,-28.140625,-24.75,4.640625,24
25,1695773869665,-0.110839844,-0.82110596,-0.08111572,17.75,95.53125,-45.53125,25
26,1695773869705,0.56689453,-0.8032837,-0.70562744,9.625,63.078125,-21.625,26
27,1695773869745,0.8515625,-0.8491821,-0.25250244,8.171875,-19.34375,11.5,27
28,1695773869785,0.74975586,-0.97906494,0.0028686523,6.3125,-35.875,36.515625,28
29,1695773869825,0.15551758,-0.8904419,-0.015197754,-8.640625,-36.703125,-4.9375,29
30,1695773869865,-0.14794922,-0.75909424,-0.08111572,2.96875,-20.296875,-29.203125,30
31,1695773869905,-0.12231445,-0.6223755,0.016052246,15.078125,-9.640625,-48.484375,31
32,1695773869945,0.030029297,-0.87823486,-0.10723877,38.296875,19.765625,-44.015625,32
33,1695773869985,-0.20581055,-1.0359497,0.20135498,13.390625,29.1875,-38.515625,33
34,1695773870025,-0.37353516,-1.133606,-0.40509033,-46.34375,48.84375,-20.59375,34
35,1695773870065,-0.38085938,-0.6790161,-0.6397095,-0.03125,-1.3125,-3.234375,35
36,1695773870105,0.38012695,-2.0,-0.25445557,81.671875,3.140625,-53.28125,36
37,1695773870145,-0.060058594,-1.0747681,0.36712646,64.890625,52.515625,-32.984375,37
38,1695773870185,0.13891602,-0.5371704,-0.4072876,-34.84375,2.953125,-36.53125,38
39,1695773870225,-0.13696289,-0.4866333,-0.65338135,-55.53125,-30.609375,-8.921875,39
40,1695773870265,-0.4645996,-0.7007446,-0.35968018,-10.359375,-43.453125,-5.25,40
41,1695773870305,-0.421875,-1.375061,-0.047668457,6.421875,-10.65625,-1.515625,41
42,1695773870345,-0.20385742,-1.28302,-0.17828369,7.453125,7.40625,16.109375,42
43,1695773870385,-0.1484375,-1.0339966,-0.32037354,2.515625,-10.859375,10.71875,43
44,1695773870425,-0.43652344,-1.1506958,-0.004211426,-11.96875,3.125,54.609375,44
45,1695773870465,-0.5698242,-0.4553833,-0.6272583,0.28125,30.96875,85.359375,45
46,1695773870505,-0.36621094,-0.51153564,-0.18756104,12.296875,15.34375,47.65625,46
47,1695773870545,-0.17260742,-1.1860962,-0.08013916,-13.53125,16.640625,2.65625,47
48,1695773870585,-0.0048828125,-1.0708618,-0.0134887695,-29.53125,11.671875,-8.125,48
49,1695773870625,0.35473633,-1.1062622,-0.06036377,-20.71875,-14.0625,20.96875,49
50,1695773870665,0.035888672,-0.7085571,-0.38555908,-2.8125,-16.46875,79.984375,50
51,1695773870705,-0.09667969,-0.91290283,-0.04473877,-39.109375,-11.421875,29.5625,51
52,1695773870745,-0.1315918,-1.4299927,0.20111084,-2.265625,1.734375,-0.6875,52
53,1695773870785,0.16918945,-1.0891724,-0.09625244,9.890625,55.0,-12.703125,53
54,1695773870825,0.4194336,-0.5623169,-0.50567627,21.875,47.296875,16.03125,54
55,1695773870865,0.60375977,-0.55841064,-0.35308838,13.578125,-28.5625,1.375,55
56,1695773870905,0.64990234,-0.8855591,0.08831787,-11.46875,-25.109375,-7.59375,56
57,1695773870945,0.28881836,-1.1721802,-0.08380127,-50.765625,-25.078125,-29.90625,57
58,1695773870985,-0.29345703,-1.2178345,0.06488037,21.765625,-31.734375,-18.453125,58
59,1695773871025,0.3720703,-0.69122314,0.042663574,69.84375,-19.4375,-31.46875,59
60,1695773871065,0.56591797,-0.8870239,0.02166748,24.4375,-54.703125,-15.15625,60
61,1695773871105,0.27270508,-0.82891846,-0.14141846,-12.6875,-11.921875,29.234375,61
62,1695773871145,-0.17675781,-0.8255005,0.086120605,-35.796875,0.203125,23.296875,62
63,1695773871185,-0.65405273,-1.2815552,-0.4902954,-8.5625,-6.703125,2.40625,63
64,1695773871225,-0.9272461,-0.3652954,-0.08306885,-8.75,8.5,-93.4375,64
65,1695773871265,0.14379883,-1.2666626,-0.7979126,47.765625,43.078125,-114.265625,65
66,1695773871305,0.09863281,-2.0,0.7321167,36.015625,-45.0625,-55.546875,66
67,1695773871345,0.43408203,-1.0877075,-0.0803833,4.703125,61.25,12.390625,67
68,1695773871385,-0.030517578,-0.56915283,-0.6045532,-30.53125,29.4375,59.375,68
69,1695773871425,-0.5605469,-0.4776001,-0.506897,-26.984375,-37.421875,-7.6875,69
70,1695773871465,-0.67626953,-1.0159302,-0.128479,31.015625,-5.9375,-66.78125,70
71,1695773871505,0.16040039,-1.2102661,-0.19366455,-18.5,-3.46875,-28.125,71
72,1695773871545,0.076416016,-1.123352,-0.2666626,-4.5,-16.296875,3.375,72
73,1695773871585,-0.28466797,-1.2688599,-0.024475098,-7.46875,5.984375,38.625,73
74,1695773871625,-0.5053711,-0.9229126,-0.18682861,-4.9375,25.3125,60.078125,74
75,1695773871665,-0.27001953,-0.49761963,-0.4163208,-0.390625,-2.953125,49.34375,75
76,1695773871705,-0.1730957,-0.772522,-0.19732666,1.765625,0.96875,13.96875,76
77,1695773871745,0.025390625,-1.0169067,-0.051086426,-0.578125,1.28125,13.140625,77
78,1695773871785,0.012207031,-1.1206665,0.10614014,-12.515625,-20.5,26.984375,78
79,1695773871825,-0.0026855469,-0.78985596,-0.42242432,-16.0625,-8.359375,48.078125,79
80,1695773871865,-0.2849121,-0.6592407,-0.10675049,-22.921875,-27.71875,31.375,80
81,1695773871905,0.61083984,-1.5684204,-0.08355713,-30.15625,-3.125,-26.65625,81
82,1695773871945,0.43896484,-1.2197876,-0.17022705,-12.421875,-25.6875,49.21875,82
83,1695773871985,-0.05029297,-0.86383057,-0.042053223,18.546875,49.328125,10.546875,83
84,1695773872025,-0.22509766,-0.6133423,-0.33892822,18.015625,27.6875,-22.84375,84
85,1695773872065,0.30004883,-0.4187622,-0.15289307,33.5625,-2.4375,-37.40625,85
86,1695773872105,0.49975586,-1.1592407,0.13861084,-14.140625,-34.265625,-55.59375,86
87,1695773872145,0.08105469,-1.3372192,0.06072998,11.6875,30.5,-1.578125,87
88,1695773872185,0.15844727,-0.7720337,-0.17388916,27.828125,25.375,2.96875,88
89,1695773872225,-0.100097656,-0.6878052,-0.04034424,3.46875,11.609375,-19.953125,89
90,1695773872265,-0.54785156,-0.5928345,-0.2678833,-36.0625,15.625,-54.96875,90
91,1695773872305,-0.72802734,-1.045227,-0.4290161,-26.28125,10.328125,-118.203125,91
92,1695773872345,-0.15820312,-1.8843384,0.026062012,48.140625,-26.46875,-56.421875,92
93,1695773872385,-0.13476562,-1.4124146,0.33392334,39.8125,43.734375,-8.734375,93
94,1695773872425,0.26123047,-0.7798462,-0.30670166,1.53125,52.9375,36.734375,94
95,1695773872465,-0.055419922,-0.45269775,-0.40948486,-28.515625,-14.546875,38.1875,95
96,1695773872505,-0.4777832,-0.56329346,-0.38580322,7.109375,-26.109375,16.78125,96
97,1695773872545,-0.68847656,-0.7876587,-0.23980713,2.6875,-23.09375,-48.1875,97
98,1695773872585,-0.5344238,-1.2510376,0.0848999,-21.8125,-32.65625,-49.296875,98
99,1695773872625,-0.21191406,-1.067688,-0.27105713,0.484375,2.65625,-8.96875,99
100,1695773872665,-0.18701172,-1.0335083,-0.32476807,-12.84375,-12.421875,5.703125,100
101,1695773872705,-0.37524414,-0.7498169,-0.24517822,12.046875,-6.5,21.796875,101
102,1695773872745,-0.5097656,-0.86920166,-0.23028564,-7.171875,-7.671875,17.78125,102
103,1695773872785,-0.39575195,-0.99957275,-0.2263794,0.78125,-3.375,25.5625,103
104,1695773872825,-0.17895508,-0.97003174,-0.113342285,26.390625,-2.234375,32.140625,104
105,1695773872865,-0.24023438,-1.1289673,0.008483887,6.90625,5.15625,53.03125,105
106,1695773872905,-0.1237793,-0.8345337,-0.23175049,-18.765625,-8.453125,63.40625,106
107,1695773872945,0.03149414,-0.77838135,-0.16656494,8.078125,-18.796875,53.9375,107
108,1695773872985,0.107910156,-0.878479,-0.37677002,31.0625,-5.53125,73.484375,108
109,1695773873025,0.0126953125,-0.7402954,-0.22662354,-31.828125,-22.5,22.515625,109
110,1695773873065,0.4650879,-2.0,-0.0044555664,-16.40625,-36.265625,13.921875,110
111,1695773873105,-0.12695312,-1.1792603,0.23260498,-31.75,32.8125,-23.765625,111
112,1695773873145,-0.044921875,-1.0559692,-0.20733643,1.390625,89.078125,-10.578125,112
113,1695773873185,0.09692383,-0.39508057,-0.7432251,20.8125,35.71875,13.578125,113
114,1695773873225,0.3984375,-0.3665161,-0.26202393,23.09375,1.46875,-1.28125,114
115,1695773873265,0.4453125,-0.6819458,-0.023010254,17.375,15.234375,-16.6875,115
116,1695773873305,0.0036621094,-1.185852,-0.15093994,-37.796875,31.265625,-40.140625,116
117,1695773873345,-0.27075195,-1.1055298,0.019226074,19.171875,12.0,-39.9375,117
118,1695773873385,0.013183594,-0.42633057,-0.105529785,44.0625,62.09375,-43.0,118
119,1695773873425,0.04663086,-0.6526489,-0.66851807,-47.421875,35.421875,-83.71875,119
120,1695773873465,-0.171875,-1.5444946,-0.4553833,-88.953125,-41.953125,-35.296875,120
121,1695773873505,-0.7282715,-1.6069946,0.27069092,29.875,-58.0625,-12.296875,121
122,1695773873545,0.091552734,-1.1633911,0.09320068,41.53125,100.421875,8.59375,122
123,1695773873585,0.087646484,-0.4031372,-0.6741333,-45.65625,-40.71875,-0.875,123
124,1695773873625,-0.21704102,-0.41827393,-0.40289307,-23.25,-47.171875,-12.03125,124
125,1695773873665,-0.42529297,-0.76885986,-0.3320923,-6.234375,-23.171875,8.921875,125
126,1695773873705,-0.5666504,-1.0601196,-0.11480713,-23.78125,-23.484375,16.59375,126
127,1695773873745,-0.47973633,-0.96881104,-0.020568848,26.4375,3.921875,13.0625,127
128,1695773873785,-0.05444336,-1.00177,-0.07940674,2.453125,-6.5,5.859375,128
129,1695773873825,0.05078125,-1.0618286,-0.09039307,6.25,1.953125,51.828125,129
130,1695773873865,-0.06323242,-0.95098877,-0.28961182,-14.828125,-11.609375,58.328125,130
131,1695773873905,-0.09301758,-1.0674438,-0.02178955,-10.71875,-24.109375,48.90625,131
132,1695773873945,-0.31298828,-0.9204712,-0.3826294,-20.53125,-45.3125,38.4375,132
133,1695773873985,-0.06616211,-0.7739868,0.15252686,22.21875,7.015625,11.359375,133
134,1695773874025,0.10424805,-1.5628052,0.16278076,-63.796875,-25.25,1.578125,134
135,1695773874065,-0.5419922,-0.90216064,-0.27349854,-59.234375,-9.890625,-16.515625,135
136,1695773874105,-0.06762695,-0.79815674,-0.124572754,47.40625,90.515625,-24.6875,136
137,1695773874145,0.6201172,-0.9055786,-0.34527588,20.609375,63.875,-32.859375,137
138,1695773874185,0.67285156,-1.5186157,0.36395264,-47.34375,-33.359375,-5.125,138
139,1695773874225,0.28710938,-0.75665283,-0.3789673,-8.40625,-17.59375,38.625,139
140,1695773874265,-0.26464844,-0.8694458,0.13812256,15.140625,2.015625,4.109375,140
141,1695773874305,-0.048828125,-0.60040283,-0.10845947,44.390625,19.921875,-19.703125,141
142,1695773874345,0.15112305,-0.5684204,-0.23638916,28.59375,18.4375,-22.921875,142
143,1695773874385,0.27539062,-0.8418579,-0.13824463,35.796875,8.390625,-22.796875,143
144,1695773874425,-0.059814453,-0.9038696,-0.08868408,19.6875,-1.109375,-15.046875,144
145,1695773874465,-0.15600586,-1.0496216,-0.2276001,-6.859375,10.140625,-30.109375,145
146,1695773874505,-0.3791504,-1.4487915,-0.47003174,-35.796875,-25.0,-26.71875,146
147,1695773874545,-0.61279297,-1.6536255,-0.06500244,8.5625,-55.6875,-54.59375,147
148,1695773874585,-0.15527344,-1.2988892,-0.10992432,35.5625,28.40625,-9.34375,148
149,1695773874625,-0.05053711,-0.67388916,-0.2564087,-1.21875,-11.0,7.390625,149
150,1695773874665,-0.10571289,-0.41705322,-0.39898682,-26.0625,-38.921875,-17.90625,150
151,1695773874705,-0.65625,-0.67022705,-0.33648682,-24.140625,-36.25,-43.40625,151
152,1695773874745,-0.35620117,-0.84259033,-0.049865723,0.9375,-0.515625,-19.03125,152
153,1695773874785,-0.23461914,-0.9299927,-0.17877197,-16.6875,-9.578125,-5.75,153
154,1695773874825,-0.27807617,-1.0796509,-0.23370361,-9.359375,-10.390625,6.78125,154
155,1695773874865,-0.38793945,-1.0010376,-0.2510376,-7.015625,-10.28125,31.09375,155
156,1695773874905,-0.26586914,-0.8518677,-0.085998535,17.609375,7.390625,54.734375,156
157,1695773874945,-0.0031738281,-0.8418579,-0.082336426,25.125,7.625,63.375,157
158,1695773874985,-0.048339844,-0.866272,-0.01763916,13.40625,-28.703125,66.8125,158
159,1695773875025,0.18261719,-0.70147705,-0.37457275,-8.28125,15.3125,29.53125,159
160,1695773875065,-0.19067383,-1.5120239,-0.61920166,-18.375,4.546875,-3.015625,160
161,1695773875105,-0.43139648,-1.819397,0.6066284,-7.71875,-18.015625,24.734375,161
162,1695773875145,-0.07055664,-0.7476196,-0.07672119,33.859375,112.796875,18.015625,162
163,1695773875185,0.16455078,-0.7017212,-0.48150635,-12.578125,55.046875,22.671875,163
164,1695773875225,0.38964844,-0.31793213,-0.6140747,-5.734375,1.828125,7.140625,164
165,1695773875265,0.53515625,-0.83013916,-0.4446411,-43.6875,-42.59375,20.875,165
166,1695773875305,0.4465332,-1.2893677,0.20721436,-15.125,3.09375,23.859375,166
167,1695773875345,0.057128906,-1.0684204,0.0028686523,42.734375,28.0625,12.703125,167
168,1695773875385,0.15112305,-0.87823486,-0.11993408,-15.578125,-17.171875,-22.4375,168
169,1695773875425,0.34448242,-0.7546997,-0.21417236,20.9375,8.46875,-14.640625,169
170,1695773875465,0.3779297,-0.83843994,-0.16973877,15.234375,-5.9375,9.359375,170
171,1695773875505,0.15454102,-0.61724854,-0.15533447,13.1875,-7.390625,5.671875,171
172,1695773875545,-0.16748047,-0.6367798,-0.023010254,20.21875,-2.53125,-16.953125,172
173,1695773875585,-0.5463867,-0.661438,-0.20220947,-9.28125,-1.171875,-81.015625,173
174,1695773875625,-0.34448242,-0.80596924,-0.53912354,-36.484375,36.640625,-99.421875,174
175,1695773875665,-0.018798828,-1.0332642,-0.78302,10.5,12.46875,-40.796875,175
176,1695773875705,0.2680664,-2.0,-0.40582275,77.90625,-76.46875,-4.484375,176
177,1695773875745,-0.33520508,-1.2368774,0.27996826,37.140625,107.984375,23.109375,177
178,1695773875785,-0.26586914,-0.43756104,-0.96881104,-31.4375,25.046875,26.1875,178
179,1695773875825,-0.5185547,-0.3748169,-0.6409302,-8.015625,-50.34375,-60.53125,179
180,1695773875865,-0.064697266,-1.2456665,-0.15484619,27.734375,-18.203125,-19.921875,180
181,1695773875905,0.0009765625,-1.2634888,-0.20074463,-17.75,-0.859375,21.34375,181
182,1695773875945,-0.28198242,-0.7354126,-0.50201416,-27.671875,19.46875,29.453125,182
183,1695773875985,-0.47924805,-0.9692993,-0.42218018,-6.671875,-18.25,8.84375,183
184,1695773876025,-0.1730957,-0.85357666,-0.3508911,7.203125,-21.34375,27.390625,184
185,1695773876065,0.14208984,-0.82647705,-0.2805786,-11.640625,-39.015625,20.890625,185
186,1695773876105,0.24536133,-0.83477783,-0.24615479,-9.109375,-47.328125,19.8125,186
187,1695773876145,0.044189453,-0.7058716,-0.2835083,-36.75,-72.4375,19.625,187
188,1695773876185,-0.075683594,-0.88653564,0.06414795,-36.28125,-35.046875,29.484375,188
189,1695773876225,-0.030517578,-1.5947876,-0.08746338,-73.125,-8.515625,41.34375,189
190,1695773876265,-0.95043945,-1.0825806,0.06781006,-45.1875,-44.09375,3.09375,190
191,1695773876305,-0.26586914,-0.89312744,0.15716553,24.0,109.5,-39.65625,191
192,1695773876345,0.3244629,-0.8296509,-0.48101807,-3.859375,79.75,-29.203125,192
193,1695773876385,0.50756836,-1.0681763,-0.14971924,-17.09375,-3.21875,-20.0,193
194,1695773876425,0.30273438,-1.2332153,0.16326904,-20.96875,42.15625,20.234375,194
195,1695773876465,0.014160156,-0.82891846,0.015075684,0.4375,38.078125,25.0625,195
196,1695773876505,-0.19213867,-0.6878052,-0.08013916,17.5625,23.234375,-11.46875,196
197,1695773876545,0.19335938,-0.5161743,-0.16851807,13.828125,40.375,-38.671875,197
198,1695773876585,0.49975586,-0.89801025,-0.2510376,27.359375,-0.53125,-21.609375,198
199,1695773876625,0.5253906,-1.1902466,-0.22589111,22.359375,-25.78125,4.6875,199
200,1695773876665,0.21289062,-1.0137329,-0.1182251,52.84375,-15.90625,38.171875,200
201,1695773876705,0.092285156,-0.7163696,-0.09161377,56.71875,-3.0,26.1875,201
202,1695773876745,-0.21289062,-0.76226807,-0.11505127,38.859375,-14.34375,-29.90625,202
203,1695773876785,-0.42089844,-0.65289307,-0.51397705,-49.34375,-26.484375,-91.875,203
204,1695773876825,-0.33740234,-1.1021118,-0.5967407,-27.78125,-20.234375,-117.171875,204
205,1695773876865,-0.29541016,-1.9282837,-0.5742798,53.03125,-51.671875,8.5,205
206,1695773876905,-0.48168945,-1.6292114,0.168396,17.5625,-16.828125,19.359375,206
207,1695773876945,-0.03491211,-0.85894775,-0.4373169,-7.8125,56.75,50.453125,207
208,1695773876985,-0.30664062,-0.49542236,-0.64019775,-24.65625,6.109375,53.375,208
209,1695773877025,-0.5288086,-0.27105713,-0.3814087,-3.875,-1.140625,-9.5,209
210,1695773877065,-0.15673828,-0.91729736,-0.27520752,-21.96875,3.578125,-26.640625,210
211,1695773877105,0.079589844,-0.9644165,-0.21710205,-23.3125,-0.9375,1.109375,211
212,1695773877145,0.25561523,-0.95025635,-0.27764893,-6.265625,-20.09375,22.234375,212
213,1695773877185,0.45629883,-0.97442627,-0.190979,-13.09375,-82.421875,39.609375,213
214,1695773877225,-0.001953125,-0.98687744,-0.40264893,-29.0625,-54.9375,54.734375,214
215,1695773877265,-0.19824219,-0.5444946,-0.24761963,-8.484375,2.84375,57.0625,215
216,1695773877305,-0.0007324219,-1.8237915,-0.17266846,-50.0,-60.8125,-1.578125,216
217,1695773877345,-0.56347656,-1.09552,0.1906128,15.40625,66.578125,-24.9375,217
218,1695773877385,-0.018798828,-0.9505005,-0.1729126,14.296875,80.578125,-7.25,218
219,1695773877425,0.37597656,-0.46051025,-0.62994385,7.828125,49.078125,-6.625,219
220,1695773877465,0.5517578,-0.8635864,-0.25006104,-48.421875,-27.140625,-18.40625,220
221,1695773877505,0.45874023,-1.1729126,0.27069092,-31.578125,19.453125,0.984375,221
222,1695773877545,-0.014892578,-1.3630981,-0.08282471,15.84375,73.359375,-13.890625,222
223,1695773877585,-0.03881836,-0.82598877,-0.1795044,12.125,8.984375,-14.078125,223
224,1695773877625,0.22851562,-0.5046997,-0.22857666,-3.25,1.296875,-27.71875,224
225,1695773877665,0.41381836,-0.8352661,-0.28033447,-1.453125,-24.453125,-36.59375,225
226,1695773877705,0.22192383,-1.2136841,0.109313965,-0.3125,-49.296875,-12.296875,226
227,1695773877745,0.088134766,-0.9273071,-0.07696533,38.265625,-9.1875,3.359375,227
228,1695773877785,-0.006591797,-0.74591064,-0.09967041,41.984375,-10.953125,-4.109375,228
229,1695773877825,-0.33520508,-0.49298096,-0.2107544,13.578125,-13.46875,-43.828125,229
230,1695773877865,-0.4716797,-0.7490845,-0.42559814,-0.421875,2.078125,-83.65625,230
231,1695773877905,-0.34375,-1.1152954,-0.4590454,-47.640625,-39.875,-60.875,231
232,1695773877945,-0.31689453,-1.6189575,-0.44952393,43.5,-34.9375,-7.078125,232
233,1695773877985,-0.34204102,-1.364563,0.13763428,67.03125,15.71875,49.84375,233
234,1695773878025,0.068115234,-0.6885376,-0.30963135,-3.28125,48.96875,46.96875,234
235,1695773878065,-0.22338867,-0.6795044,-0.6638794,-84.859375,-1.890625,20.703125,235
236,1695773878105,-0.38134766,-0.7998657,-0.6255493,19.375,3.296875,20.0625,236
237,1695773878145,-0.12866211,-1.3272095,-0.1260376,33.515625,-21.921875,26.625,237
238,1695773878185,-0.19677734,-1.0003052,-0.13775635,-10.9375,12.578125,56.59375,238
239,1695773878225,-0.03173828,-0.7136841,-0.46539307,-34.125,-3.03125,22.640625,239
240,1695773878265,-0.14916992,-1.1087036,-0.23468018,-33.546875,-33.078125,5.484375,240
241,1695773878305,0.15014648,-0.9968872,-0.27911377,-27.703125,-14.5625,27.234375,241
242,1695773878345,0.06616211,-0.9365845,-0.19244385,-7.65625,-12.71875,49.125,242
243,1695773878385,0.28149414,-0.98883057,-0.116760254,-10.75,-4.640625,56.484375,243
244,1695773878425,-0.32373047,-1.1133423,-0.062072754,-68.578125,-32.9375,16.953125,244
245,1695773878465,-0.41918945,-0.8899536,0.12371826,-31.984375,57.484375,-46.6875,245
246,1695773878505,0.15185547,-0.7229614,-0.3369751,3.328125,75.265625,-53.921875,246
247,1695773878545,0.9589844,-1.0488892,-0.2930298,12.96875,17.140625,-39.265625,247
248,1695773878585,0.55908203,-1.1714478,0.04510498,-26.578125,1.046875,35.015625,248
249,1695773878625,0.21679688,-0.6079712,-0.20587158,-8.765625,3.578125,20.21875,249
250,1695773878665,-0.36865234,-1.1204224,0.3151245,-2.921875,-8.453125,-32.890625,250
251,1695773878705,-0.2319336,-0.77349854,0.002380371,4.5,26.265625,-55.765625,251
252,1695773878745,0.34838867,-0.8753052,-0.17193604,10.375,17.421875,-56.140625,252
253,1695773878785,0.38134766,-1.0098267,0.016540527,15.15625,-1.40625,-42.1875,253
254,1695773878825,0.17456055,-0.7908325,0.03387451,14.09375,-0.625,-9.921875,254
255,1695773878865,-0.14916992,-0.76275635,0.0770874,-2.765625,-1.171875,-5.875,255
256,1695773878905,-0.41918945,-1.0274048,-0.08380127,-9.25,5.03125,-9.90625,256
257,1695773878945,-0.34838867,-1.05719,-0.3604126,0.453125,-20.84375,-29.34375,257
258,1695773878985,-0.31176758,-1.2283325,-0.074035645,10.46875,-21.109375,-43.3125,258
259,1695773879025,-0.12890625,-1.2507935,-0.018371582,4.1875,12.03125,-35.0,259
260,1695773879065,-0.08666992,-0.94903564,-0.01373291,14.125,2.5,6.375,260
261,1695773879105,-0.075927734,-0.7608032,-0.28131104,-8.046875,-26.671875,17.375,261
262,1695773879145,-0.34106445,-0.9163208,-0.15362549,-6.453125,-27.5,-0.859375,262
263,1695773879185,-0.48608398,-0.9451294,-0.128479,-16.140625,-7.59375,7.484375,263
264,1695773879225,-0.29467773,-0.9807739,-0.23345947,-24.34375,-10.265625,19.265625,264
265,1695773879265,-0.28857422,-1.0733032,-0.105773926,2.0625,-21.203125,30.21875,265
266,1695773879305,-0.1352539,-1.0374146,-0.009094238,6.25,-6.609375,35.5625,266
267,1695773879345,-0.04638672,-1.1060181,-0.0068969727,11.609375,-0.5,52.390625,267
268,1695773879385,-0.06616211,-0.8255005,-0.19195557,-2.203125,-23.984375,51.96875,268
269,1695773879425,-0.0048828125,-0.89190674,-0.13311768,-0.40625,-27.921875,46.859375,269
270,1695773879465,-0.16479492,-0.973938,-0.21002197,-21.65625,-26.84375,45.984375,270
271,1695773879505,0.119628906,-0.9829712,0.12738037,1.875,-14.734375,36.265625,271
272,1695773879545,0.055419922,-1.2415161,0.20404053,-33.90625,2.40625,5.53125,272
273,1695773879585,-0.11816406,-1.144104,0.00091552734,-30.46875,55.03125,-28.734375,273
274,1695773879625,-0.1003418,-0.8081665,-0.25860596,9.203125,52.796875,-23.71875,274
275,1695773879665,0.5378418,-0.8010864,-0.36871338,15.453125,42.84375,-28.25,275
276,1695773879705,0.8413086,-1.3987427,0.2814331,-27.953125,-5.734375,-17.4375,276
277,1695773879745,0.38476562,-0.942688,0.0053100586,4.359375,11.359375,17.5,277
278,1695773879785,0.0690918,-0.8530884,0.01727295,-3.890625,-16.71875,-9.296875,278
279,1695773879825,0.20288086,-0.7493286,0.029968262,5.421875,-19.6875,-32.984375,279
280,1695773879865,0.23657227,-0.8543091,0.11102295,6.96875,-20.65625,-24.0,280
281,1695773879905,-0.05493164,-0.91973877,-0.016418457,-2.1875,-14.984375,-9.140625,281
282,1695773879945,-0.4555664,-0.7139282,0.13690186,7.59375,1.90625,-30.109375,282
283,1695773879985,-0.4025879,-0.5310669,-0.113586426,27.421875,28.84375,-63.890625,283
284,1695773880025,-0.4104004,-0.8982544,-0.54766846,-21.890625,9.046875,-82.28125,284
285,1695773880065,-0.6098633,-1.4107056,-0.23101807,21.953125,-14.09375,-53.921875,285
286,1695773880105,-0.2890625,-1.479065,0.035583496,48.703125,29.875,-17.5625,286
287,1695773880145,-0.22338867,-1.1279907,-0.13775635,41.609375,55.6875,36.96875,287
288,1695773880185,0.056152344,-0.5593872,-0.40509033,11.40625,15.296875,50.15625,288
289,1695773880225,-0.17211914,-0.61553955,-0.27764893,15.84375,-12.359375,9.453125,289
290,1695773880265,-0.3815918,-1.1502075,-0.1416626,-4.75,-1.34375,-1.140625,290
291,1695773880305,-0.24853516,-1.0379028,-0.1585083,2.34375,-4.84375,8.046875,291
292,1695773880345,-0.0847168,-0.9451294,-0.24932861,12.796875,-3.828125,11.90625,292
293,1695773880385,-0.16601562,-1.0813599,-0.13018799,-25.6875,-32.59375,35.015625,293
294,1695773880425,-0.020263672,-1.0349731,-0.06549072,-21.8125,-40.03125,60.609375,294
295,1695773880465,0.09790039,-0.9758911,-0.4343872,-24.78125,-47.703125,61.03125,295
296,1695773880505,-0.004638672,-0.8296509,-0.25177002,6.34375,-38.703125,43.609375,296
297,1695773880545,0.69970703,-1.5657349,-0.0791626,-14.734375,-50.515625,16.078125,297
298,1695773880585,0.10131836,-0.93829346,-0.023010254,-25.171875,-62.078125,54.453125,298
299,1695773880625,-0.18554688,-0.71417236,0.018493652,-25.0625,9.578125,-7.578125,299
300,1695773880665,-0.38745117,-0.6123657,-0.29888916,-19.046875,-16.46875,-44.796875,300
301,1695773880705,0.15185547,-0.6177368,-0.16705322,2.671875,-6.9375,-46.015625,301
302,1695773880745,0.45629883,-1.6863403,0.6893921,-10.484375,-8.5625,-11.171875,302
303,1695773880785,0.16259766,-1.0317993,-0.21270752,-8.84375,57.875,39.28125,303
304,1695773880825,-0.009277344,-0.8665161,-0.020080566,10.890625,17.03125,19.484375,304
305,1695773880865,-0.0021972656,-0.60894775,0.090026855,31.484375,38.71875,-2.03125,305
306,1695773880905,-0.03173828,-0.7637329,0.026550293,10.21875,64.515625,-48.828125,306
307,1695773880945,-0.2368164,-0.86431885,-0.16998291,26.875,58.125,-92.9375,307
308,1695773880985,-0.43115234,-1.0142212,-0.28033447,5.09375,53.28125,-90.484375,308
309,1695773881025,-0.16137695,-1.0073853,-0.3587036,-6.625,76.078125,-31.921875,309
310,1695773881065,0.0715332,-1.8294067,-0.28375244,43.8125,11.0,-0.09375,310
311,1695773881105,0.32470703,-1.3699341,0.086120605,26.90625,36.75,28.265625,311
312,1695773881145,0.31689453,-0.57940674,-0.48468018,-5.859375,-13.046875,19.609375,312
313,1695773881185,-0.12207031,-0.7888794,-0.35699463,-15.1875,-41.34375,-25.53125,313
314,1695773881225,-0.48583984,-0.6773071,-0.33306885,-19.21875,-37.8125,-55.109375,314
315,1695773881265,-0.5046387,-0.9507446,-0.3069458,-24.078125,-51.46875,-61.59375,315
316,1695773881305,-0.5095215,-1.031311,-0.13092041,6.765625,-28.8125,2.671875,316
317,1695773881345,-0.28808594,-1.0232544,-0.16607666,15.921875,-6.40625,53.484375,317
318,1695773881385,-0.27001953,-1.0767212,-0.17779541,9.515625,-13.578125,64.578125,318
319,1695773881425,0.00024414062,-0.95635986,-0.22052002,40.703125,-9.359375,76.0625,319
320,1695773881465,0.076416016,-0.7571411,-0.26812744,1.953125,-18.921875,70.0,320
321,1695773881505,-0.071777344,-0.741272,-0.44293213,-7.234375,-38.828125,78.765625,321
322,1695773881545,0.068115234,-0.87335205,-0.22271729,15.828125,-40.25,28.15625,322
323,1695773881585,-0.1640625,-0.79937744,-0.4439087,-24.796875,-66.328125,18.28125,323
324,1695773881625,-0.22802734,-0.7420044,0.14398193,-9.421875,-3.65625,-23.703125,324
325,1695773881665,0.40795898,-1.8806763,-0.32110596,-35.5625,8.546875,-13.171875,325
326,1695773881705,-0.10864258,-1.359436,0.07537842,-2.484375,70.984375,15.640625,326
327,1695773881745,0.11816406,-0.6860962,-0.56036377,29.09375,62.71875,12.96875,327
328,1695773881785,0.27416992,-0.46099854,-0.26812744,37.359375,59.875,-18.078125,328
329,1695773881825,0.6582031,-0.88287354,-0.24542236,8.84375,34.90625,-43.5625,329
330,1695773881865,0.27661133,-0.8362427,-0.1560669,-33.4375,39.1875,-25.234375,330
331,1695773881905,-0.1484375,-0.84552,-0.24468994,-14.359375,38.34375,-37.078125,331
332,1695773881945,-0.23266602,-0.6963501,-0.28814697,4.578125,36.25,-53.859375,332
333,1695773881985,0.21118164,-1.0862427,-0.4446411,2.171875,28.40625,-26.53125,333
334,1695773882025,0.41918945,-1.6633911,-0.20880127,-12.15625,-18.359375,-6.375,334
335,1695773882065,0.16430664,-0.96954346,-0.24249268,-16.390625,-32.125,-1.203125,335
336,1695773882105,-0.099365234,-0.9302368,-0.2991333,-12.40625,-33.125,-25.453125,336
337,1695773882145,-0.3659668,-0.8245239,-0.2107544,-26.25,-39.984375,-1.96875,337
338,1695773882185,-0.4074707,-0.5679321,-0.28741455,-41.625,-36.875,-10.171875,338
339,1695773882225,-0.49951172,-0.8545532,-0.28790283,-28.515625,-19.796875,-24.53125,339
340,1695773882265,-0.3720703,-1.0855103,-0.09234619,-25.625,-10.125,-11.5,340
341,1695773882305,-0.30688477,-1.0422974,-0.11846924,-23.875,-16.265625,19.234375,341
342,1695773882345,-0.28393555,-1.0142212,-0.12530518,-33.328125,-21.40625,25.515625,342
343,1695773882385,-0.35546875,-1.0310669,-0.05328369,-35.359375,13.921875,30.296875,343
344,1695773882425,-0.17407227,-0.92071533,0.04095459,5.578125,16.25,36.140625,344
345,1695773882465,-0.15527344,-0.6367798,0.1239624,11.34375,6.078125,51.640625,345
346,1695773882505,0.7858887,-0.49298096,-0.28668213,20.765625,-25.625,-4.125,346
347,1695773882545,0.40307617,-2.0,0.19207764,-2.6875,-45.578125,1.0,347
348,1695773882585,0.75146484,-1.1812134,-0.09185791,40.15625,45.859375,97.15625,348
349,1695773882625,-0.119384766,-0.5237427,0.5319214,-20.15625,-49.484375,29.046875,349
350,1695773882665,-1.2290039,-1.0928345,-0.49053955,0.3125,-48.3125,-24.78125,350
351,1695773882705,-0.3515625,-0.07281494,-0.44610596,7.9375,47.09375,-75.046875,351
352,1695773882745,0.77246094,-1.0027466,-0.46514893,39.765625,48.703125,-76.4375,352
353,1695773882785,0.39404297,-2.0,0.9335327,2.375,29.515625,-3.25,353
354,1695773882825,-0.00048828125,-0.7991333,-0.35357666,31.875,33.890625,48.375,354
355,1695773882865,-0.040527344,-0.7839966,-0.029846191,59.8125,41.40625,14.75,355
356,1695773882905,0.07104492,-0.48712158,-0.055725098,39.71875,15.84375,-21.890625,356
357,1695773882945,-0.10986328,-0.53790283,-0.35723877,-15.9375,10.1875,-64.1875,357
358,1695773882985,-0.30273438,-0.97052,-0.6174927,-53.65625,7.421875,-70.78125,358
359,1695773883025,-0.6333008,-1.6599731,-0.34405518,-6.46875,-13.90625,-24.5,359
360,1695773883065,-0.068359375,-1.6599731,0.0680542,79.84375,14.359375,18.78125,360
361,1695773883105,0.044433594,-0.93463135,-0.105285645,31.859375,55.375,18.609375,361
362,1695773883145,-0.15893555,-0.61676025,-0.60479736,-46.703125,4.53125,40.546875,362
363,1695773883185,-0.43774414,-0.34429932,-0.5786743,-28.828125,-37.984375,40.765625,363
364,1695773883225,-0.24243164,-0.96173096,0.01361084,-9.578125,-23.0,-11.71875,364
365,1695773883265,-0.009765625,-1.5830688,0.113708496,-14.6875,-1.609375,10.21875,365
366,1695773883305,-0.056884766,-0.83917236,-0.41119385,-34.1875,-10.59375,23.140625,366
367,1695773883345,-0.29492188,-0.8989868,-0.19708252,-42.328125,-41.71875,27.078125,367
368,1695773883385,0.18017578,-1.0579224,0.11199951,-35.140625,-14.71875,-2.0,368
369,1695773883425,0.1081543,-1.3147583,0.006286621,-30.15625,-14.359375,29.0,369
370,1695773883465,0.1538086,-0.72491455,-0.14117432,-3.109375,-25.953125,29.25,370
371,1695773883505,0.03540039,-0.7842407,-0.00982666,10.359375,14.265625,3.5,371
372,1695773883545,0.24902344,-0.93756104,-0.12261963,-2.015625,-17.359375,-12.890625,372
373,1695773883585,0.072021484,-0.9932251,0.113464355,-15.265625,-34.546875,-2.96875,373
374,1695773883625,-0.2043457,-0.90631104,0.23431396,9.046875,16.640625,-9.296875,374
375,1695773883665,-0.0390625,-0.8208618,-0.10211182,36.96875,28.09375,-26.40625,375
376,1695773883705,0.2253418,-0.6670532,-0.13848877,55.390625,7.671875,-23.28125,376
377,1695773883745,0.056640625,-0.6616821,-0.011291504,47.703125,18.0,-10.484375,377
378,1695773883785,-0.17260742,-0.5762329,-0.2420044,40.703125,31.734375,-5.78125,378
379,1695773883825,-0.35742188,-0.81695557,-0.49468994,10.640625,36.65625,-29.046875,379
380,1695773883865,-0.26586914,-1.204895,-0.57598877,9.4375,35.046875,-42.171875,380
381,1695773883905,0.13574219,-1.944397,-0.44439697,12.875,-30.859375,-24.28125,381
382,1695773883945,-0.2854004,-1.6792603,0.03314209,5.84375,-18.90625,-7.0625,382
383,1695773883985,-0.20141602,-0.6519165,-0.37017822,-14.609375,20.171875,1.3125,383
384,1695773884025,-0.38378906,-0.49786377,-0.5762329,3.203125,-29.71875,-15.5625,384
385,1695773884065,-0.46655273,-0.69317627,-0.38702393,-29.046875,-15.640625,0.09375,385
386,1695773884105,-0.055419922,-1.117981,-0.26446533,-8.859375,-9.5625,36.234375,386
387,1695773884145,-0.068847656,-1.0579224,-0.039611816,-1.03125,-1.03125,62.078125,387
388,1695773884185,0.13183594,-0.614563,-0.27545166,-15.5625,-15.328125,65.359375,388
389,1695773884225,-0.08911133,-0.6814575,-0.24468994,-17.734375,-43.015625,26.9375,389
390,1695773884265,-0.104003906,-0.7090454,-0.3814087,-30.625,-47.8125,10.015625,390
391,1695773884305,0.12133789,-0.69854736,-0.13140869,6.296875,6.03125,-17.09375,391
392,1695773884345,-0.083496094,-2.0,0.66741943,-77.09375,-81.6875,-7.59375,392
393,1695773884385,-0.099365234,-1.0239868,-0.24664307,-13.578125,55.890625,19.34375,393
394,1695773884425,0.1015625,-0.74835205,-0.24053955,5.828125,44.109375,1.71875,394
395,1695773884465,0.5253906,-0.47247314,-0.4343872,14.84375,-4.71875,-11.765625,395
396,1695773884505,0.7121582,-0.8167114,0.05316162,-20.25,-58.8125,-15.296875,396
397,1695773884545,0.21972656,-1.0376587,0.038024902,-29.84375,-14.640625,30.75,397
398,1695773884585,-0.21166992,-1.0747681,0.12713623,8.09375,-23.15625,16.640625,398
399,1695773884625,-0.07006836,-0.6572876,-0.027648926,32.8125,-3.625,-16.390625,399
400,1695773884665,0.14990234,-0.5454712,-0.09576416,3.59375,6.65625,-34.828125,400
401,1695773884705,0.07470703,-0.84161377,-0.050842285,9.84375,21.0625,-29.9375,401
402,1695773884745,-0.3137207,-0.94073486,0.043640137,4.21875,41.90625,-34.0,402
403,1695773884785,-0.40527344,-0.82403564,-0.3201294,3.796875,35.1875,-48.15625,403
404,1695773884825,-0.26953125,-1.0979614,-0.4055786,-2.8125,19.09375,-72.359375,404
405,1695773884865,-0.14868164,-1.675354,-0.1375122,46.796875,5.046875,-21.859375,405
406,1695773884905,-0.0859375,-1.0982056,0.043395996,32.5625,58.96875,9.6875,406
407,1695773884945,0.091552734,-0.7456665,-0.3526001,-5.5625,31.21875,32.015625,407
408,1695773884985,-0.20166016,-0.70025635,-0.44659424,-16.109375,-24.65625,8.546875,408
409,1695773885025,-0.26757812,-1.180481,-0.0020141602,4.203125,-8.0,-15.546875,409
410,1695773885065,-0.18603516,-1.2805786,-0.14215088,-19.828125,0.34375,25.953125,410
411,1695773885105,-0.28857422,-0.7283325,-0.37872314,-4.890625,-11.390625,24.15625,411
412,1695773885145,-0.43798828,-0.94244385,-0.1921997,-9.0625,-11.5625,-1.421875,412
413,1695773885185,-0.21142578,-0.8999634,-0.020324707,-10.09375,-4.625,14.484375,413
414,1695773885225,-0.047607422,-0.93096924,-0.06866455,-3.90625,-9.9375,29.296875,414
415,1695773885265,0.083740234,-0.86431885,-0.08892822,-8.828125,-9.96875,38.296875,415
416,1695773885305,0.2763672,-1.0193481,-0.13140869,0.609375,-32.59375,46.28125,416
417,1695773885345,-0.06542969,-0.8394165,-0.3670044,-29.53125,-65.421875,50.5,417
418,1695773885385,0.2536621,-0.8936157,0.032409668,9.609375,-14.234375,-10.984375,418
419,1695773885425,0.07910156,-1.5227661,0.2909546,-33.34375,-43.109375,35.984375,419
420,1695773885465,-0.099853516,-1.1314087,0.0028686523,-12.0,50.046875,6.453125,420
421,1695773885505,-0.3305664,-0.74835205,-0.40216064,-4.015625,33.34375,7.109375,421
422,1695773885545,0.16137695,-0.41558838,-0.39678955,22.265625,41.03125,-7.484375,422
423,1695773885585,0.73950195,-0.9404907,0.007019043,-12.90625,6.234375,-19.671875,423
424,1695773885625,0.75341797,-1.578186,0.12200928,-9.03125,17.0,10.703125,424
425,1695773885665,0.16015625,-1.005188,-0.022033691,5.53125,-23.859375,9.8125,425
426,1695773885705,0.22583008,-0.69732666,-0.0005493164,24.40625,-21.546875,-8.234375,426
427,1695773885745,0.40356445,-0.6411743,0.03338623,25.109375,-12.28125,-16.5625,427
428,1695773885785,0.4873047,-0.87701416,-0.06109619,-6.828125,-52.515625,-14.6875,428
429,1695773885825,0.22045898,-0.8897095,0.042419434,-19.671875,-68.6875,-23.9375,429
430,1695773885865,-0.118652344,-0.90289307,0.061950684,2.515625,-48.171875,-27.671875,430
431,1695773885905,-0.29418945,-0.925354,0.10614014,16.8125,-1.203125,-26.78125,431
432,1695773885945,-0.5048828,-0.86676025,-0.06427002,4.171875,27.265625,-31.359375,432
433,1695773885985,-0.37817383,-1.0962524,-0.48712158,-17.046875,20.34375,-55.875,433
434,1695773886025,-0.33203125,-1.2879028,-0.34454346,9.265625,13.640625,-52.34375,434
435,1695773886065,0.23461914,-1.4314575,0.2975464,41.625,41.4375,-21.0625,435
436,1695773886105,-0.13916016,-0.8960571,-0.0635376,-1.390625,62.03125,28.84375,436
437,1695773886145,-0.53466797,-0.60040283,-0.49127197,-21.65625,38.703125,33.875,437
438,1695773886185,-0.6003418,-0.54937744,-0.29327393,6.203125,35.53125,-33.75,438
439,1695773886225,-0.19628906,-1.1680298,-0.07720947,-17.90625,37.875,-44.484375,439
440,1695773886265,-0.17553711,-1.3213501,0.27923584,-1.4375,32.03125,-4.046875,440
441,1695773886305,-0.099853516,-1.1445923,-0.008361816,-14.0625,40.140625,16.203125,441
442,1695773886345,-0.3317871,-0.9993286,0.09197998,-25.09375,17.890625,34.078125,442
443,1695773886385,-0.03149414,-0.7966919,0.109069824,-2.125,9.875,42.1875,443
444,1695773886425,0.40234375,-1.0476685,-0.21343994,-2.328125,-16.671875,65.609375,444
445,1695773886465,0.6328125,-0.8989868,0.09857178,-1.765625,-60.296875,53.046875,445
446,1695773886505,0.35742188,-1.3875122,0.19866943,-15.109375,-37.78125,34.34375,446
447,1695773886545,-0.5827637,-0.96343994,0.55926514,14.015625,-59.90625,37.921875,447
448,1695773886585,0.06689453,-0.62091064,-0.62628174,-3.609375,-6.265625,-0.125,448
449,1695773886625,0.107666016,-0.65631104,-0.29180908,35.265625,-4.484375,25.296875,449
450,1695773886665,0.21826172,-0.70196533,0.09686279,29.34375,1.1875,10.609375,450
451,1695773886705,0.41577148,-0.99102783,0.08416748,-12.0,-19.09375,1.421875,451
452,1695773886745,0.07421875,-1.1377563,0.109069824,3.796875,35.71875,-4.234375,452
453,1695773886785,0.10229492,-0.9651489,-0.022033691,33.09375,43.4375,-12.8125,453
454,1695773886825,0.26000977,-0.82598877,-0.10235596,35.578125,23.421875,-0.75,454
455,1695773886865,0.3413086,-0.8440552,-0.22808838,42.625,19.109375,5.890625,455
456,1695773886905,0.16381836,-0.81329346,-0.13067627,51.59375,39.671875,3.34375,456
457,1695773886945,-0.16821289,-1.0210571,-0.11529541,31.265625,45.671875,-16.265625,457
458,1695773886985,-0.22460938,-0.8364868,-0.058898926,31.5,36.0625,-38.578125,458
459,1695773887025,0.040527344,-0.58135986,-0.24127197,-15.296875,38.109375,-97.765625,459
460,1695773887065,0.25927734,-1.2058716,-0.49639893,38.3125,46.234375,-41.859375,460
461,1695773887105,0.15942383,-2.0,-0.67803955,20.75,-63.953125,-42.765625,461
462,1695773887145,0.032958984,-1.2527466,-0.013244629,-9.140625,18.25,41.515625,462
463,1695773887185,-0.0690918,-0.5779419,-0.62335205,-28.984375,0.703125,33.765625,463
464,1695773887225,-0.82666016,-0.5366821,-0.6243286,-27.34375,-27.453125,0.53125,464
465,1695773887265,-0.48168945,-0.4085083,-0.08746338,-41.75,-16.015625,-48.234375,465
466,1695773887305,-0.2397461,-1.1450806,-0.06304932,-52.0625,-23.296875,-21.890625,466
467,1695773887345,-0.037353516,-1.1296997,-0.19268799,-32.71875,3.296875,18.140625,467
468,1695773887385,0.11767578,-1.0991821,0.07928467,-27.671875,-40.296875,33.875,468
469,1695773887425,0.18237305,-0.94244385,-0.24029541,-42.796875,-56.28125,54.046875,469
470,1695773887465,-0.3095703,-0.66070557,-0.5510864,-82.90625,-60.421875,46.53125,470
471,1695773887505,0.114990234,-1.5803833,0.5946655,33.34375,-33.875,20.3125,471
472,1695773887545,-0.061767578,-1.2901001,0.08416748,-14.984375,-22.625,40.5,472
473,1695773887585,-0.16308594,-0.9002075,0.15252686,-11.65625,45.421875,-4.015625,473
474,1695773887625,-0.26098633,-0.536438,-0.12628174,-23.90625,1.078125,-34.875,474
475,1695773887665,0.19946289,-0.659729,-0.028381348,2.234375,8.5625,-45.390625,475
476,1695773887705,0.59814453,-1.3753052,0.5409546,-22.375,2.234375,-10.8125,476
477,1695773887745,0.27978516,-1.0337524,-0.078186035,19.125,16.25,26.109375,477
478,1695773887785,-0.10961914,-0.6843872,0.04901123,20.6875,20.4375,-2.5625,478
479,1695773887825,-0.18310547,-0.6453247,0.04437256,9.984375,17.265625,-38.734375,479
480,1695773887865,0.059326172,-0.7727661,0.10028076,18.046875,26.296875,-54.171875,480
481,1695773887905,0.13574219,-1.1050415,0.23187256,16.25,24.625,-38.109375,481
482,1695773887945,-0.0056152344,-0.9199829,-0.18218994,-3.015625,19.453125,-24.015625,482
483,1695773887985,-0.42504883,-1.2068481,-0.43585205,9.421875,-28.28125,2.53125,483
484,1695773888025,-0.8166504,-1.2532349,-0.21807861,46.09375,24.875,-12.015625,484
485,1695773888065,-0.29125977,-0.788147,0.024108887,52.28125,70.109375,-38.84375,485
486,1695773888105,-0.011962891,-0.86602783,-0.11016846,41.71875,56.578125,-12.875,486
487,1695773888145,0.2548828,-0.81500244,-0.31744385,-21.765625,-13.5,-11.578125,487
488,1695773888185,0.19482422,-1.3496704,-0.16607666,-33.5625,-45.3125,11.046875,488
489,1695773888225,-0.37597656,-1.4717407,0.15472412,-13.1875,-11.515625,65.0625,489
490,1695773888265,-0.6582031,-0.8970337,-0.15924072,12.734375,8.609375,58.171875,490
491,1695773888305,-0.39135742,-0.5791626,-0.19537354,-0.515625,-9.90625,6.984375,491
492,1695773888345,-0.11376953,-0.7901001,-0.05645752,-29.8125,-23.3125,-4.3125,492
493,1695773888385,0.2163086,-0.9985962,-0.2498169,-32.96875,-36.0,2.234375,493
494,1695773888425,0.2368164,-1.8296509,0.21478271,-43.59375,-79.625,16.359375,494
495,1695773888465,0.06933594,-1.53302,0.17913818,-9.375,9.40625,69.71875,495
496,1695773888505,-0.5690918,-0.85821533,0.055603027,-35.0625,-24.890625,37.890625,496
497,1695773888545,-0.27197266,-0.58795166,-0.0005493164,7.421875,35.5625,-14.078125,497
498,1695773888585,0.19677734,-0.51275635,-0.18023682,4.3125,18.625,-16.890625,498
499,1695773888625,0.49145508,-1.055481,0.23236084,-35.28125,-32.046875,-1.09375,499
500,1695773888665,0.3305664,-1.1746216,0.14715576,-30.203125,-23.796875,22.953125,500
501,1695773888705,-0.0769043,-0.87384033,0.17596436,2.296875,15.796875,8.953125,501
502,1695773888745,-0.1694336,-0.69537354,0.07977295,24.75,35.0,-17.9375,502
503,1695773888785,-0.038330078,-0.6555786,-0.0056762695,39.640625,41.828125,-29.171875,503
504,1695773888825,0.13598633,-0.9846802,0.0060424805,34.96875,24.734375,-20.109375,504
505,1695773888865,0.061279297,-1.0042114,0.043640137,42.125,37.734375,-5.203125,505
506,1695773888905,-0.07055664,-0.8616333,0.02532959,68.46875,60.84375,14.078125,506
507,1695773888945,-0.022216797,-0.569397,-0.105529785,41.390625,47.453125,-0.96875,507
508,1695773888985,0.042236328,-0.6152954,-0.2420044,14.078125,28.15625,-40.640625,508
509,1695773889025,-0.009521484,-0.89630127,-0.26885986,10.46875,33.5625,-53.359375,509
510,1695773889065,0.27197266,-2.0,-1.131897,20.546875,-81.359375,-78.296875,510
511,1695773889105,-0.47338867,-1.3306274,0.137146,-4.71875,16.96875,38.625,511
512,1695773889145,-0.051757812,-0.30621338,-0.5186157,-15.984375,27.90625,45.328125,512
513,1695773889185,-0.5864258,-0.3106079,-0.4368286,36.3125,-21.859375,-17.234375,513
514,1695773889225,-0.35668945,-0.6296997,-0.2637329,-23.265625,-9.4375,-22.484375,514
515,1695773889265,-0.036376953,-1.1643677,-0.19854736,-55.078125,-12.265625,-0.53125,515
516,1695773889305,-0.1665039,-1.1067505,-0.1350708,-21.53125,-19.140625,27.1875,516
517,1695773889345,-0.06640625,-0.73809814,-0.1453247,5.796875,-2.0,38.140625,517
518,1695773889385,-0.09692383,-0.6670532,-0.3147583,-53.859375,-32.515625,5.9375,518
519,1695773889425,0.19946289,-1.2593384,-0.31011963,-34.640625,-29.359375,-4.5625,519
520,1695773889465,0.3864746,-2.0,0.60028076,-11.234375,-53.09375,47.671875,520
521,1695773889505,-0.040527344,-0.75787354,-0.14678955,-11.828125,26.875,37.546875,521
522,1695773889545,-0.051757812,-0.49908447,-0.20562744,-5.4375,-13.390625,8.46875,522
523,1695773889585,0.017822266,-0.15118408,-0.21270752,-17.953125,-67.328125,-29.4375,523
524,1695773889625,0.578125,-0.62164307,0.0026245117,-37.890625,-67.03125,-37.375,524
525,1695773889665,0.6972656,-1.850647,0.47406006,-14.046875,-30.265625,27.5625,525
526,1695773889705,-0.14672852,-1.0725708,0.0848999,21.453125,-55.953125,54.65625,526
527,1695773889745,-0.15698242,-0.5767212,0.097351074,19.296875,-43.015625,24.921875,527
528,1695773889785,-0.26293945,-0.54766846,0.09246826,15.625,0.671875,-10.140625,528
529,1695773889825,-0.4086914,-0.62994385,0.017028809,24.890625,35.265625,-44.09375,529
530,1695773889865,-0.2861328,-0.75494385,-0.347229,18.765625,55.5,-77.125,530
531,1695773889905,-0.026367188,-1.2842407,-0.4031372,7.40625,43.75,-71.71875,531
532,1695773889945,-0.11303711,-1.6792603,-0.21368408,-0.546875,1.40625,-24.859375,532
533,1695773889985,-0.17016602,-1.2922974,-0.055236816,31.953125,43.71875,-17.859375,533
534,1695773890025,-0.19506836,-1.0637817,0.062927246,33.1875,80.84375,33.703125,534
535,1695773890065,-0.07763672,-0.5132446,-0.53741455,2.09375,18.125,32.015625,535
536,1695773890105,-0.34204102,-0.90045166,-0.26055908,-16.609375,-5.875,-44.734375,536
537,1695773890145,-0.2800293,-1.196106,-0.028381348,2.359375,15.859375,-25.609375,537
538,1695773890185,-0.111816406,-1.27594,0.017028809,3.96875,18.3125,6.609375,538
539,1695773890225,0.025878906,-0.9373169,-0.14093018,-3.375,2.84375,35.40625,539
540,1695773890265,0.052734375,-0.9055786,0.18450928,16.046875,-5.140625,63.578125,540
541,1695773890305,0.18652344,-0.7293091,-0.3953247,-21.546875,-31.515625,72.84375,541
542,1695773890345,-0.13305664,-0.45562744,-0.5039673,-59.640625,-67.171875,29.4375,542
543,1695773890385,0.7451172,-1.9651489,0.16473389,-25.078125,-70.0625,-44.15625,543
544,1695773890425,-0.025878906,-1.3001099,0.4508667,-6.421875,-9.890625,39.390625,544
545,1695773890465,-0.38012695,-1.045227,-0.11553955,-36.421875,1.796875,-0.296875,545
546,1695773890505,-0.5383301,-0.48931885,-0.27374268,-9.75,-9.984375,-16.6875,546
547,1695773890545,0.22949219,-0.3682251,-0.25860596,36.40625,20.375,-15.453125,547
548,1695773890585,0.6748047,-1.3389282,0.4442749,-29.9375,-31.0,-1.0625,548
549,1695773890625,0.45361328,-1.140686,-0.1987915,-4.515625,2.890625,45.984375,549
550,1695773890665,-0.114746094,-0.8543091,0.3739624,5.71875,-12.734375,-0.96875,550
551,1695773890705,0.02734375,-0.7481079,0.078552246,11.625,4.40625,-32.0,551
552,1695773890745,0.14697266,-0.7822876,0.070251465,14.546875,-6.421875,-34.390625,552
553,1695773890785,0.24072266,-1.1065063,0.21038818,9.359375,-9.921875,-18.34375,553
554,1695773890825,0.05102539,-0.83721924,0.14398193,14.421875,-5.875,-3.703125,554
555,1695773890865,-0.1484375,-0.8171997,0.1918335,17.03125,2.203125,-22.4375,555
556,1695773890905,-0.39746094,-0.76519775,-0.17510986,15.6875,16.671875,-39.8125,556
557,1695773890945,-0.46118164,-1.0305786,-0.56207275,-8.4375,6.546875,-44.34375,557
558,1695773890985,-0.6945801,-1.0913696,-0.30523682,14.03125,-1.46875,-25.4375,558
559,1695773891025,-0.114746094,-1.5112915,-0.16436768,38.765625,30.3125,-41.78125,559
560,1695773891065,0.064208984,-1.2891235,0.27020264,54.0,64.546875,15.671875,560
561,1695773891105,0.0068359375,-0.7276001,-0.31280518,2.0625,40.046875,48.765625,561
562,1695773891145,-0.17993164,-0.6709595,-0.40460205,-16.453125,-9.15625,21.046875,562
563,1695773891185,-0.50805664,-1.0379028,-0.04058838,13.3125,9.90625,7.21875,563
564,1695773891225,-0.30517578,-0.98223877,-0.093811035,-26.15625,1.234375,-1.03125,564
565,1695773891265,-0.21044922,-1.0332642,0.0014038086,11.625,4.828125,6.640625,565
566,1695773891305,0.096191406,-0.86676025,0.026306152,5.578125,2.5,34.3125,566
567,1695773891345,0.1899414,-0.9558716,-0.3640747,-28.140625,-16.78125,58.5,567
568,1695773891385,0.3779297,-0.8735962,-0.39556885,-8.484375,-43.484375,53.375,568
569,1695773891425,0.6677246,-1.9797974,0.31414795,-38.640625,-86.75,-10.09375,569
570,1695773891465,-0.40942383,-1.2024536,0.28363037,-24.4375,-37.734375,9.59375,570
571,1695773891505,-0.4272461,-1.2156372,-0.069885254,-16.234375,30.03125,-41.8125,571
572,1695773891545,-0.24365234,-0.43463135,-0.29718018,0.265625,15.171875,-11.953125,572
573,1695773891585,0.55249023,-0.48590088,-0.19268799,16.984375,-30.875,-8.765625,573
574,1695773891625,0.517334,-1.3357544,0.5910034,-44.484375,-65.796875,29.171875,574
575,1695773891665,0.20288086,-0.8345337,-0.23370361,-36.0625,-47.15625,37.140625,575
576,1695773891705,-0.10205078,-0.9727173,0.28045654,11.890625,-12.625,3.0625,576
577,1695773891745,0.0012207031,-0.7595825,0.18035889,11.234375,-1.8125,-14.546875,577
578,1695773891785,0.15063477,-0.80181885,0.12054443,9.296875,-1.890625,-21.234375,578
579,1695773891825,0.13647461,-0.9873657,0.13348389,1.53125,-15.265625,-13.296875,579
580,1695773891865,-0.017578125,-0.82476807,0.2098999,0.28125,-12.90625,-7.59375,580
581,1695773891905,-0.064697266,-0.91973877,0.2597046,5.703125,7.03125,-19.5,581
582,1695773891945,-0.1616211,-0.93707275,0.20599365,9.015625,11.640625,-38.4375,582
583,1695773891985,-0.3076172,-1.1467896,0.070007324,5.75,27.375,-50.328125,583
584,1695773892025,-0.60961914,-1.2212524,-0.20343018,-13.921875,22.1875,-47.640625,584
585,1695773892065,-0.23925781,-1.0547485,-0.13677979,9.15625,24.84375,-40.515625,585
586,1695773892105,-0.14941406,-0.88897705,0.1539917,61.84375,50.546875,9.765625,586
587,1695773892145,0.20019531,-0.8718872,-0.121398926,25.390625,25.765625,17.03125,587
588,1695773892185,0.10131836,-1.2192993,-0.1338501,-35.078125,-27.484375,15.109375,588
589,1695773892225,-0.24975586,-1.1150513,-0.051574707,-3.65625,-17.859375,39.015625,589
590,1695773892265,-0.545166,-1.1731567,0.07684326,6.234375,-8.203125,18.0625,590
591,1695773892305,-0.34423828,-0.7168579,-0.06378174,14.6875,11.015625,19.171875,591
592,1695773892345,-0.12182617,-0.7359009,-0.049621582,10.953125,-3.796875,20.875,592
593,1695773892385,0.05493164,-0.7258911,-0.05255127,-5.796875,-9.296875,26.984375,593
594,1695773892425,-0.04736328,-1.1404419,-0.081848145,-49.875,-30.828125,28.859375,594
595,1695773892465,-0.09643555,-1.7930298,0.8287964,-19.34375,-31.390625,23.21875,595
596,1695773892505,-0.33203125,-1.1360474,-0.04473877,-21.640625,27.96875,29.53125,596
597,1695773892545,-0.3425293,-0.7295532,0.054382324,3.09375,71.765625,-19.234375,597
598,1695773892585,0.16235352,-0.6321411,-0.20928955,42.734375,68.703125,-3.5,598
599,1695773892625,0.59350586,-0.71051025,-0.2312622,7.609375,-4.15625,-1.015625,599
600,1695773892665,0.61816406,-1.3171997,0.3756714,-47.59375,-25.828125,12.625,600
601,1695773892705,0.21435547,-1.1306763,0.15106201,-31.515625,-2.90625,17.421875,601
602,1695773892745,-0.3076172,-1.1243286,0.24603271,32.078125,38.578125,-10.34375,602
603,1695773892785,0.016601562,-0.7217407,-0.0134887695,13.53125,12.171875,-26.75,603
604,1695773892825,0.27929688,-0.7505493,0.0026245117,10.84375,-0.140625,-28.484375,604
605,1695773892865,0.31518555,-1.0151978,0.18084717,9.09375,2.5625,-15.21875,605
606,1695773892905,0.16967773,-0.91192627,0.02166748,-0.671875,-3.484375,-0.34375,606
607,1695773892945,0.11206055,-0.88238525,0.16595459,16.921875,-7.21875,-7.28125,607
608,1695773892985,0.1081543,-0.86920166,0.15716553,16.34375,1.015625,-29.0625,608
609,1695773893025,0.02758789,-0.8406372,0.13250732,10.890625,9.46875,-23.015625,609
610,1695773893065,-0.1899414,-0.9819946,-0.4570923,-18.53125,-17.296875,-22.90625,610
611,1695773893105,-1.0083008,-1.43927,-0.00079345703,3.25,-19.03125,-10.28125,611
612,1695773893145,-0.35742188,-1.2581177,0.014587402,56.265625,49.703125,-34.71875,612
613,1695773893185,0.09326172,-0.94122314,-0.13580322,45.359375,50.390625,-10.1875,613
614,1695773893225,0.20166016,-0.5742798,-0.3189087,20.359375,13.015625,-14.71875,614
615,1695773893265,-0.11279297,-0.94122314,-0.5149536,-21.890625,-52.015625,3.875,615
616,1695773893305,-0.49145508,-1.286438,0.07757568,-15.265625,-31.21875,37.578125,616
617,1695773893345,-0.390625,-1.3084106,0.06072998,34.140625,18.96875,50.515625,617
618,1695773893385,-0.12402344,-0.56573486,-0.33770752,-1.75,-1.859375,34.984375,618
619,1695773893425,0.026367188,-0.6699829,-0.24615479,-16.6875,-21.046875,10.65625,619
620,1695773893465,0.14428711,-1.0454712,-0.36260986,-21.15625,-57.96875,19.390625,620
621,1695773893505,0.015136719,-1.536438,0.18426514,-26.484375,-41.03125,30.828125,621
622,1695773893545,0.20800781,-1.2402954,0.24920654,1.265625,17.515625,37.765625,622
623,1695773893585,-0.32055664,-0.8616333,-0.22540283,-34.9375,-13.46875,8.796875,623
624,1695773893625,-0.23364258,-0.6045532,-0.046691895,0.03125,31.890625,-31.1875,624
625,1695773893665,0.047851562,-0.6030884,-0.26617432,12.9375,56.625,-25.0,625
626,1695773893705,0.7668457,-1.0003052,-0.2522583,-6.46875,-0.46875,-18.125,626
627,1695773893745,0.6916504,-1.4932251,0.26776123,-16.859375,-14.40625,31.078125,627
628,1695773893785,0.111328125,-0.956604,0.07220459,-21.234375,-8.609375,33.375,628
629,1695773893825,-0.29418945,-1.015686,0.14837646,-1.734375,-8.6875,-2.90625,629
630,1695773893865,-0.053710938,-0.6897583,-0.061584473,13.984375,14.78125,-36.234375,630
631,1695773893905,0.25317383,-0.8152466,-0.04425049,27.65625,17.859375,-25.578125,631
632,1695773893945,0.21313477,-0.9258423,0.10443115,10.0625,8.390625,-13.796875,632
633,1695773893985,0.19726562,-0.79815674,-0.028869629,0.734375,-4.484375,-14.09375,633
634,1695773894025,-0.08569336,-0.7515259,0.059753418,1.71875,4.515625,-17.046875,634
635,1695773894065,-0.2631836,-0.79937744,-0.21417236,21.234375,14.0625,-43.96875,635
636,1695773894105,-0.2290039,-1.2710571,-0.47564697,-6.265625,-15.9375,-53.171875,636
637,1695773894145,-0.11767578,-1.5510864,-0.09649658,13.71875,-32.1875,-25.78125,637
638,1695773894185,-0.19238281,-1.1775513,0.0836792,32.71875,19.59375,-10.5625,638
639,1695773894225,-0.17651367,-0.8748169,-0.26397705,10.078125,27.609375,7.578125,639
640,1695773894265,-0.20385742,-0.60406494,-0.552063,-19.203125,-25.71875,15.890625,640
641,1695773894305,-0.49047852,-0.9834595,-0.2822876,-21.78125,-33.78125,-12.359375,641
642,1695773894345,-0.4230957,-1.4255981,0.07537842,-8.984375,2.5625,-14.109375,642
643,1695773894385,-0.19189453,-0.97052,-0.15533447,9.625,27.796875,6.515625,643
644,1695773894425,-0.16210938,-0.6951294,-0.37530518,-11.6875,-11.484375,16.3125,644
645,1695773894465,-0.13598633,-0.77545166,-0.13067627,-26.125,-19.265625,21.296875,645
646,1695773894505,0.028076172,-0.9656372,-0.028137207,-21.59375,-20.15625,22.0625,646
647,1695773894545,0.020996094,-0.89434814,-0.03253174,-19.671875,-38.015625,32.421875,647
648,1695773894585,-0.14111328,-1.0269165,-0.15093994,-42.515625,-42.65625,13.953125,648
649,1695773894625,0.30810547,-1.68927,0.6256714,-18.28125,-69.78125,5.203125,649
650,1695773894665,0.12841797,-1.4973755,0.1708374,-20.765625,19.609375,60.4375,650
651,1695773894705,-0.6130371,-0.84820557,-0.2871704,-64.109375,-28.953125,35.71875,651
652,1695773894745,-0.86328125,-0.23394775,-0.1350708,0.34375,22.890625,-9.0,652
653,1695773894785,0.28637695,-0.34527588,-0.17144775,19.671875,46.125,-0.390625,653
654,1695773894825,0.92944336,-1.242981,0.7037964,-25.640625,-1.046875,-9.0625,654
655,1695773894865,0.6315918,-1.4109497,-0.0017700195,-13.734375,-12.0625,42.640625,655
656,1695773894905,-0.09375,-0.8049927,0.09466553,-5.515625,13.671875,17.78125,656
657,1695773894945,-0.13964844,-0.6682739,0.17230225,28.234375,20.828125,-12.625,657
658,1695773894985,0.13110352,-0.87994385,0.18475342,9.25,7.875,-31.84375,658
659,1695773895025,0.5305176,-1.2859497,0.28240967,9.046875,8.578125,-20.515625,659
660,1695773895065,0.23925781,-0.954895,0.15838623,19.140625,14.828125,1.671875,660
661,1695773895105,0.13183594,-0.79937744,0.18963623,35.15625,9.125,1.75,661
662,1695773895145,0.024169922,-0.72735596,0.14447021,11.875,6.890625,-11.328125,662
663,1695773895185,-0.061035156,-0.7371216,0.13226318,8.15625,17.96875,-29.703125,663
664,1695773895225,-0.11230469,-0.7654419,0.11224365,15.28125,29.921875,-44.390625,664
665,1695773895265,-0.40722656,-0.8413696,-0.37164307,-8.578125,39.90625,-60.015625,665
666,1695773895305,-0.26660156,-1.3262329,-0.6658325,-28.046875,9.375,-56.703125,666
667,1695773895345,-0.18603516,-2.0,-0.057434082,40.84375,-47.46875,-10.421875,667
668,1695773895385,0.07348633,-1.3467407,0.9406128,75.703125,71.40625,-4.0,668
669,1695773895425,0.11791992,-0.7962036,-0.031555176,-3.546875,46.375,52.265625,669
670,1695773895465,-0.20141602,-0.31549072,-0.7554321,-60.09375,-78.75,8.9375,670
671,1695773895505,-0.88549805,-0.83551025,-0.17999268,-20.796875,-43.546875,-47.125,671
672,1695773895545,-0.38427734,-1.3113403,0.14935303,-12.953125,31.546875,-49.0,672
673,1695773895585,-0.34887695,-1.0635376,0.08880615,13.1875,31.625,-15.953125,673
674,1695773895625,-0.1003418,-0.81988525,-0.36383057,14.703125,24.0625,-5.484375,674
675,1695773895665,-0.13476562,-0.7888794,-0.12237549,13.71875,1.890625,31.1875,675
676,1695773895705,-0.22460938,-0.7246704,-0.14385986,3.328125,-15.578125,44.3125,676
677,1695773895745,-0.21606445,-0.77301025,-0.10333252,25.578125,8.734375,30.15625,677
678,1695773895785,-0.15161133,-0.86920166,-0.10797119,11.046875,-0.875,9.625,678
679,1695773895825,0.040039062,-1.2078247,-0.062072754,-26.921875,-38.078125,18.265625,679
680,1695773895865,0.1381836,-1.6228638,-0.16168213,-15.34375,-44.203125,64.578125,680
681,1695773895905,0.37841797,-1.4509888,0.44647217,17.1875,-18.140625,50.03125,681
682,1695773895945,-0.4099121,-1.0159302,-0.082336426,-55.9375,-12.75,40.96875,682
683,1695773895985,-1.1054688,-0.82110596,0.1539917,-30.046875,14.0,-29.359375,683
684,1695773896025,-0.35375977,-0.35968018,-0.22027588,11.625,88.625,-38.8125,684
685,1695773896065,0.58325195,-0.8713989,-0.40826416,-13.53125,41.359375,-4.046875,685
686,1695773896105,1.1940918,-2.0,0.9430542,-37.21875,23.421875,27.5,686
687,1695773896145,0.11816406,-0.59820557,-0.09649658,-48.734375,-38.765625,63.40625,687
688,1695773896185,-0.39111328,-1.0337524,0.2904663,-10.578125,16.140625,7.21875,688
689,1695773896225,-0.41088867,-0.80841064,0.09295654,9.765625,62.84375,-38.09375,689
690,1695773896265,-0.01953125,-0.70513916,-0.12530518,20.921875,97.921875,-46.390625,690
691,1695773896305,0.10253906,-0.770813,-0.12261963,16.640625,89.3125,-31.8125,691
692,1695773896345,0.12109375,-0.61798096,-0.21783447,30.40625,88.0625,-17.828125,692
693,1695773896385,-0.071777344,-0.6157837,-0.09893799,28.28125,88.328125,-17.75,693
694,1695773896425,-0.18237305,-0.769104,-0.38653564,12.0625,85.5625,-47.921875,694
695,1695773896465,-0.48046875,-1.3027954,-0.70806885,-4.578125,89.890625,-60.5625,695
696,1695773896505,0.029052734,-1.9646606,-0.012512207,67.84375,42.0625,-34.03125,696
697,1695773896545,-0.33911133,-1.281311,-0.046203613,85.65625,120.828125,35.265625,697
698,1695773896585,-0.006591797,-0.7554321,-0.4932251,-9.59375,71.078125,40.90625,698
699,1695773896625,-0.08154297,-0.20269775,-0.45391846,14.34375,-15.703125,46.71875,699
700,1695773896665,-0.015136719,-0.49127197,-0.3345337,26.0,-0.8125,-1.171875,700
701,1695773896705,-0.32617188,-1.1560669,-0.061828613,-14.328125,-4.625,7.28125,701
702,1695773896745,-0.27783203,-1.342102,-0.10650635,-19.8125,-7.921875,8.53125,702
703,1695773896785,-0.13574219,-1.1499634,-0.26617432,7.09375,17.609375,10.9375,703
704,1695773896825,-0.020019531,-1.3782349,-0.113342285,-3.203125,28.921875,49.421875,704
705,1695773896865,-0.017333984,-1.2671509,-0.0803833,-59.203125,16.1875,47.765625,705
706,1695773896905,-0.43896484,-0.9055786,-0.21124268,-29.015625,41.0,68.5625,706
707,1695773896945,-0.22167969,-0.5420532,0.007751465,9.359375,46.875,6.984375,707
708,1695773896985,0.16381836,-0.8303833,-0.09307861,-21.5625,34.078125,-12.734375,708
709,1695773897025,0.22875977,-1.2749634,-0.047912598,-105.140625,5.265625,9.75,709
710,1695773897065,0.12939453,-1.050354,0.0770874,-28.21875,35.953125,62.203125,710
711,1695773897105,-0.068115234,-1.0527954,0.06756592,-5.25,49.171875,38.6875,711
712,1695773897145,0.043945312,-0.75079346,-0.057434082,-21.421875,46.3125,14.890625,712
713,1695773897185,0.2019043,-0.7053833,0.1305542,-18.96875,54.984375,-2.15625,713
714,1695773897225,0.2902832,-0.95147705,-0.0051879883,-20.46875,46.25,-19.921875,714
715,1695773897265,0.30371094,-1.0005493,0.12713623,-4.109375,33.5625,-10.78125,715
716,1695773897305,0.22192383,-1.052063,0.13201904,4.921875,50.96875,1.734375,716
717,1695773897345,0.11035156,-0.991272,0.081970215,-6.671875,34.5625,-5.296875,717
718,1695773897385,0.084228516,-0.90997314,0.1071167,3.859375,47.15625,-20.5,718
719,1695773897425,0.13745117,-0.85601807,0.012390137,10.78125,59.71875,-27.484375,719
720,1695773897465,0.052001953,-0.87213135,0.01751709,5.765625,45.609375,-28.734375,720
721,1695773897505,0.01953125,-0.84698486,0.035095215,13.28125,58.671875,-30.9375,721
722,1695773897545,-0.040039062,-0.7715454,-0.03326416,21.40625,64.828125,-36.578125,722
723,1695773897585,-0.10913086,-0.8179321,-0.085510254,11.484375,53.703125,-57.203125,723
724,1695773897625,-0.14746094,-0.89556885,-0.3135376,-21.1875,49.75,-46.734375,724
725,1695773897665,0.056884766,-1.6072388,-0.35772705,-5.78125,-5.71875,-20.328125,725
726,1695773897705,-0.25585938,-1.638977,0.45672607,69.3125,17.984375,4.984375,726
727,1695773897745,-0.234375,-0.9595337,-0.16680908,30.34375,68.53125,16.75,727
728,1695773897785,-0.8288574,-0.49005127,-0.5684204,-21.265625,-0.984375,-0.9375,728
729,1695773897825,-0.5234375,-0.2053833,-0.3345337,1.625,28.890625,-33.328125,729
730,1695773897865,-0.005126953,-1.2617798,-0.23712158,-18.375,-4.1875,-0.59375,730
731,1695773897905,-0.046875,-1.5632935,0.14666748,6.28125,22.484375,43.109375,731
732,1695773897945,0.08276367,-1.0291138,0.008972168,9.359375,20.03125,58.421875,732
733,1695773897985,-0.12695312,-0.7974243,-0.20611572,-28.15625,-29.828125,61.75,733
734,1695773898025,-0.41064453,-0.8088989,-0.28619385,-36.828125,-28.15625,51.953125,734
735,1695773898065,-0.34399414,-0.72857666,0.10467529,10.734375,28.984375,21.921875,735
736,1695773898105,0.24169922,-1.6211548,-0.030090332,-35.3125,3.421875,-22.640625,736
737,1695773898145,-0.25439453,-1.3206177,0.43499756,-17.3125,39.109375,-8.390625,737
738,1695773898185,0.026367188,-0.9631958,-0.028869629,-10.171875,70.703125,3.921875,738
739,1695773898225,0.21850586,-0.57525635,-0.29083252,7.1875,30.5625,8.140625,739
740,1695773898265,0.44580078,-0.8352661,-0.0154418945,-2.8125,-3.75,16.28125,740
741,1695773898305,0.5078125,-1.0808716,0.19207764,-28.4375,-5.6875,26.9375,741
742,1695773898345,0.076171875,-1.0508423,0.2538452,-16.515625,-29.3125,3.359375,742
743,1695773898385,-0.13793945,-0.99957275,0.27191162,15.859375,12.046875,-16.765625,743
744,1695773898425,0.09082031,-0.78619385,-0.04034424,10.421875,9.890625,-15.296875,744
745,1695773898465,0.25341797,-0.8010864,0.04876709,23.125,11.71875,-4.46875,745
746,1695773898505,0.11767578,-0.8027954,0.08294678,24.96875,10.15625,9.046875,746
747,1695773898545,-0.24145508,-0.7925415,0.16546631,-7.46875,-2.1875,-18.4375,747
748,1695773898585,-0.43408203,-0.81744385,0.18817139,15.0625,33.234375,-60.765625,748
749,1695773898625,-0.39526367,-1.0515747,-0.35894775,-10.21875,35.984375,-81.28125,749
750,1695773898665,-0.2927246,-1.0344849,-0.46051025,0.765625,7.96875,-53.46875,750
751,1695773898705,-0.08276367,-1.7700806,-0.24908447,42.828125,2.703125,-23.796875,751
752,1695773898745,-0.16479492,-1.2141724,0.41278076,38.625,72.203125,-4.28125,752
753,1695773898785,-0.115478516,-1.0344849,-0.14117432,-17.921875,23.390625,27.34375,753
754,1695773898825,-0.25805664,-0.6445923,-0.3916626,-4.765625,-9.15625,28.671875,754
755,1695773898865,-0.51831055,-1.0186157,-0.004699707,8.015625,-0.28125,-0.40625,755
756,1695773898905,-0.44262695,-0.94976807,-0.05670166,-6.203125,12.65625,11.375,756
757,1695773898945,-0.35229492,-0.8272095,-0.18682861,-6.046875,10.171875,7.40625,757
758,1695773898985,-0.33081055,-0.954895,-0.035705566,-10.515625,3.703125,-0.984375,758
759,1695773899025,-0.28344727,-1.0588989,0.09197998,-13.84375,8.578125,15.015625,759
