,timestamp,accel_x,accel_y,accel_z,gyro_x,gyro_y,gyro_z,ind
0,1695741795157,0.09448242,-0.9312134,0.17913818,3.53125,-5.859375,-2.375,0
1,1695741795197,0.109375,-0.9963989,0.047546387,8.234375,-7.65625,1.703125,1
2,1695741795237,0.13916016,-1.0137329,0.101257324,-19.0625,2.140625,0.828125,2
3,1695741795277,0.13012695,-0.95098877,0.22210693,-7.609375,-1.109375,-1.859375,3
4,1695741795317,0.09814453,-0.9668579,0.16229248,4.25,-5.0,-1.46875,4
5,1695741795357,0.07006836,-0.9841919,0.1149292,-1.328125,-7.03125,-0.90625,5
6,1695741795397,0.0871582,-0.99713135,0.14666748,-7.40625,-3.171875,0.703125,6
7,1695741795437,0.0715332,-0.9920044,0.17230225,-5.109375,-2.015625,-1.0625,7
8,1695741795477,0.10253906,-0.97369385,0.15325928,-1.90625,-2.71875,-0.046875,8
9,1695741795517,0.09838867,-0.991272,0.15057373,-6.59375,-0.875,-0.609375,9
10,1695741795557,0.068115234,-0.97052,0.17474365,-6.21875,0.984375,0.375,10
11,1695741795597,0.080322266,-0.96588135,0.20135498,-0.375,0.703125,2.046875,11
12,1695741795637,0.107421875,-1.0066528,0.14569092,2.625,-1.90625,1.8125,12
13,1695741795677,0.14355469,-0.97735596,0.16351318,-6.609375,1.3125,4.234375,13
14,1695741795717,0.16845703,-0.93585205,0.23284912,-5.859375,-1.0625,3.859375,14
15,1695741795757,0.11645508,-1.0005493,0.19720459,8.234375,-4.765625,3.484375,15
16,1695741795797,0.099365234,-1.0010376,0.12640381,-0.046875,-4.890625,3.171875,16
17,1695741795837,0.115234375,-0.96099854,0.17962646,-6.5625,-4.3125,6.8125,17
18,1695741795877,0.2019043,-0.9661255,0.22625732,-1.625,-6.625,8.8125,18
19,1695741795917,0.24609375,-0.99298096,0.21282959,4.109375,-15.109375,10.859375,19
20,1695741795957,0.25024414,-0.97003174,0.22503662,-5.5625,-16.90625,11.875,20
21,1695741795997,0.1965332,-0.91119385,0.29241943,-3.0625,-21.28125,11.3125,21
22,1695741796037,0.19750977,-1.0054321,0.17425537,7.609375,-24.65625,10.9375,22
23,1695741796077,0.17407227,-0.9319458,0.21697998,-7.609375,-21.21875,13.28125,23
24,1695741796117,0.22851562,-0.8880005,0.36566162,-0.25,-19.03125,8.0625,24
25,1695741796157,0.16186523,-0.9351196,0.2921753,15.40625,-28.09375,5.265625,25
26,1695741796197,0.13720703,-1.005188,0.19720459,8.40625,-20.640625,3.859375,26
27,1695741796237,0.16333008,-0.9378052,0.31610107,-3.890625,-13.65625,1.21875,27
28,1695741796277,0.2409668,-0.9011841,0.2765503,9.03125,-14.671875,0.8125,28
29,1695741796317,0.26342773,-0.85284424,0.35247803,-2.234375,-10.921875,1.46875,29
30,1695741796357,0.2446289,-0.9224243,0.33343506,13.46875,-21.078125,1.125,30
31,1695741796397,0.18066406,-0.92559814,0.3168335,9.71875,-20.65625,-3.53125,31
32,1695741796437,0.10205078,-0.95318604,0.29632568,11.265625,-20.3125,-6.34375,32
33,1695741796477,0.11767578,-1.0200806,0.27874756,11.4375,-15.828125,-9.296875,33
34,1695741796517,0.20898438,-1.0947876,0.21942139,4.53125,-26.296875,-7.796875,34
35,1695741796557,0.18041992,-0.97540283,0.30926514,-2.609375,-16.609375,-10.140625,35
36,1695741796597,0.05029297,-0.8772583,0.29071045,2.609375,-13.875,-12.875,36
37,1695741796637,0.07446289,-0.86798096,0.21600342,-0.453125,-23.609375,-13.484375,37
38,1695741796677,0.09423828,-1.010315,0.21038818,2.1875,-16.1875,-10.78125,38
39,1695741796717,0.10449219,-1.1636353,0.17889404,5.28125,-9.953125,-8.953125,39
40,1695741796757,0.16601562,-1.0376587,0.08074951,15.78125,-2.046875,-4.0625,40
41,1695741796797,0.076416016,-0.9002075,0.047790527,22.546875,-7.0625,-4.71875,41
42,1695741796837,-0.021240234,-0.9968872,-0.08770752,21.84375,-7.1875,-6.890625,42
43,1695741796877,-0.014160156,-1.0928345,0.038024902,11.703125,-6.25,-7.15625,43
44,1695741796917,-0.079589844,-1.013977,0.109802246,6.640625,5.453125,-8.6875,44
45,1695741796957,-0.10424805,-0.93536377,0.055603027,12.96875,-1.59375,-2.984375,45
46,1695741796997,-0.041259766,-0.8584595,0.014587402,1.34375,-3.109375,-5.59375,46
47,1695741797037,0.026611328,-0.9138794,0.025817871,0.40625,-4.90625,-1.09375,47
48,1695741797077,-0.0014648438,-0.91900635,0.0914917,-1.5625,-10.5,5.046875,48
49,1695741797117,-0.040283203,-0.95025635,0.15374756,-2.59375,-19.90625,6.609375,49
50,1695741797157,-0.053955078,-0.9619751,0.113464355,-1.546875,-24.953125,6.171875,50
51,1695741797197,0.068847656,-1.0137329,0.047546387,-5.046875,-36.203125,6.453125,51
52,1695741797237,0.03100586,-1.1245728,0.13568115,-10.59375,-27.25,8.578125,52
53,1695741797277,-0.020507812,-1.1443481,0.23602295,-19.46875,-24.84375,10.609375,53
54,1695741797317,0.0026855469,-1.18927,0.19720459,2.0625,-46.078125,9.9375,54
55,1695741797357,0.1171875,-1.2554321,-0.012023926,-2.203125,-49.25,9.5625,55
56,1695741797397,0.2602539,-0.98321533,-0.0154418945,-17.171875,-36.796875,15.078125,56
57,1695741797437,0.46875,-0.7984009,0.29266357,-9.515625,-13.671875,16.65625,57
58,1695741797477,0.24804688,-0.85650635,0.13812256,25.015625,-37.359375,6.59375,58
59,1695741797517,0.045410156,-1.1030884,-0.13165283,6.8125,-29.140625,-3.03125,59
60,1695741797557,0.14916992,-1.0864868,0.262146,-8.9375,-22.46875,8.578125,60
61,1695741797597,0.18481445,-0.9439087,0.22698975,-4.703125,-17.421875,2.578125,61
62,1695741797637,0.29492188,-0.71539307,0.06781006,-13.453125,-8.875,-0.265625,62
63,1695741797677,0.25341797,-0.69366455,0.23944092,9.859375,-9.71875,0.921875,63
64,1695741797717,0.14501953,-0.86846924,0.32537842,-0.015625,-11.984375,7.640625,64
65,1695741797757,0.15161133,-0.9463501,0.2855835,14.640625,-32.390625,12.15625,65
66,1695741797797,0.1538086,-0.9155884,0.2074585,0.546875,-19.796875,-3.25,66
67,1695741797837,0.12768555,-0.83258057,0.16375732,1.21875,-12.328125,-13.015625,67
68,1695741797877,0.091552734,-0.93292236,0.37078857,11.109375,0.875,-20.125,68
69,1695741797917,-0.08666992,-0.9390259,0.24066162,15.4375,-4.40625,-27.59375,69
70,1695741797957,-0.14526367,-1.1260376,-0.07086182,5.46875,-31.34375,-27.6875,70
71,1695741797997,-0.014892578,-1.4937134,-0.29058838,33.125,-8.28125,8.0,71
72,1695741798037,0.59643555,-1.442688,-0.016906738,-80.625,59.765625,-7.8125,72
73,1695741798077,0.41015625,-0.65216064,0.35931396,36.328125,-21.34375,-23.1875,73
74,1695741798117,0.10839844,-0.5029907,-0.012023926,37.859375,1.734375,-14.34375,74
75,1695741798157,-0.1706543,-0.74957275,-0.07647705,37.4375,-1.421875,17.03125,75
76,1695741798197,-0.2319336,-1.4434204,-0.43170166,55.375,-9.484375,18.09375,76
77,1695741798237,0.14501953,-1.2005005,-0.13116455,-8.65625,0.359375,2.578125,77
78,1695741798277,0.1496582,-0.99835205,0.07342529,-30.46875,20.703125,-9.765625,78
79,1695741798317,-0.14404297,-0.9458618,-0.04083252,-18.140625,30.25,5.875,79
80,1695741798357,-0.10839844,-0.88287354,-0.09918213,-0.015625,13.234375,6.328125,80
81,1695741798397,-0.15063477,-0.91119385,-0.15167236,-1.8125,9.90625,0.203125,81
82,1695741798437,-0.029541016,-0.95562744,-0.026672363,-12.390625,10.203125,1.34375,82
83,1695741798477,0.107666016,-1.0584106,0.020446777,-9.625,8.40625,9.5625,83
84,1695741798517,0.099609375,-1.1729126,0.029968262,-20.890625,6.546875,-2.59375,84
85,1695741798557,-0.099609375,-0.989563,-0.030090332,-34.5,12.9375,2.078125,85
86,1695741798597,-0.12548828,-0.84503174,0.026306152,-14.546875,1.484375,9.625,86
87,1695741798637,-0.06298828,-0.8760376,0.055114746,-13.453125,-3.59375,3.09375,87
88,1695741798677,0.30371094,-1.2932739,0.18890381,-7.5,-9.09375,15.171875,88
89,1695741798717,0.31298828,-1.0401001,0.40301514,-0.96875,7.265625,-1.78125,89
90,1695741798757,-0.16308594,-0.8640747,-0.026916504,50.859375,-14.78125,-0.21875,90
91,1695741798797,0.025146484,-0.9522095,-0.33111572,-9.796875,10.234375,3.171875,91
92,1695741798837,0.23266602,-0.9434204,0.13201904,-86.109375,58.890625,5.4375,92
93,1695741798877,0.25390625,-0.9973755,0.6144409,-11.96875,31.203125,4.515625,93
94,1695741798917,0.22192383,-0.9348755,0.14276123,-0.1875,23.5,6.890625,94
95,1695741798957,0.22436523,-0.8567505,0.20794678,-12.578125,32.140625,3.609375,95
96,1695741798997,0.11328125,-0.86505127,0.14422607,0.046875,47.703125,-4.25,96
97,1695741799037,0.10961914,-0.8809204,0.15179443,-6.640625,49.765625,7.046875,97
98,1695741799077,0.35009766,-0.9053345,0.27020264,-18.390625,52.296875,9.890625,98
99,1695741799117,0.37231445,-0.9631958,0.28289795,4.484375,37.375,-0.390625,99
100,1695741799157,0.25390625,-0.9639282,0.0914917,10.25,45.328125,-1.203125,100
101,1695741799197,0.2019043,-0.9475708,0.0758667,-22.234375,59.78125,-0.296875,101
102,1695741799237,0.26171875,-0.9085083,0.20550537,-20.6875,65.109375,-0.921875,102
103,1695741799277,0.4182129,-0.9624634,0.23968506,-1.328125,58.84375,-6.578125,103
104,1695741799317,0.26049805,-0.7476196,0.13275146,9.921875,60.546875,-9.5625,104
105,1695741799357,0.15527344,-0.66534424,0.04827881,18.75,70.25,-8.953125,105
106,1695741799397,0.020751953,-0.7268677,-0.11187744,31.9375,63.984375,-1.4375,106
107,1695741799437,0.31054688,-1.1177368,-0.41363525,37.640625,41.625,24.265625,107
108,1695741799477,1.1374512,-1.5266724,-0.15753174,-47.71875,83.8125,16.25,108
109,1695741799517,0.3095703,-0.7510376,0.44940186,-25.734375,56.1875,-11.78125,109
110,1695741799557,-0.17456055,-0.75372314,-0.16192627,108.171875,-2.34375,-20.4375,110
111,1695741799597,-0.2331543,-0.80059814,-0.97052,80.25,7.765625,-2.578125,111
112,1695741799637,0.21240234,-1.2063599,-0.6589966,-97.828125,50.640625,27.578125,112
113,1695741799677,0.64746094,-0.91973877,1.1703491,-134.59375,115.515625,6.546875,113
114,1695741799717,0.4663086,-0.9019165,0.07928467,39.609375,-47.53125,-16.6875,114
115,1695741799757,0.17504883,-0.7229614,-0.33892822,53.421875,-28.1875,-5.125,115
116,1695741799797,0.05834961,-0.909729,-0.59454346,29.875,-25.359375,1.796875,116
117,1695741799837,0.0546875,-0.9404907,-0.3982544,-54.859375,6.1875,-8.671875,117
118,1695741799877,0.024169922,-0.8394165,0.011413574,-43.484375,-7.484375,1.3125,118
119,1695741799917,0.2548828,-0.87384033,-0.07940674,25.734375,-47.5,-7.59375,119
120,1695741799957,0.20605469,-0.9273071,-0.3970337,13.671875,-36.609375,-6.46875,120
121,1695741799997,0.10571289,-0.87286377,-0.29156494,-33.59375,-20.96875,-2.015625,121
122,1695741800037,0.22631836,-0.83673096,-0.07208252,-24.609375,-37.03125,1.453125,122
123,1695741800077,0.34570312,-1.1731567,-0.034484863,9.421875,-30.296875,14.921875,123
124,1695741800117,0.28149414,-1.190979,0.12615967,-8.921875,-20.328125,-6.890625,124
125,1695741800157,0.09423828,-0.8694458,0.20452881,-4.296875,-22.71875,0.375,125
126,1695741800197,-0.0078125,-0.93634033,0.09539795,9.09375,-13.078125,13.015625,126
127,1695741800237,0.095947266,-1.1045532,0.19500732,7.078125,-11.296875,22.390625,127
128,1695741800277,0.4650879,-1.3272095,0.2387085,-15.078125,-2.3125,8.46875,128
129,1695741800317,0.14257812,-0.9026489,0.18255615,-0.59375,-7.984375,-7.78125,129
130,1695741800357,0.107910156,-0.6734009,0.1642456,10.234375,4.578125,-8.5,130
131,1695741800397,-0.099121094,-0.80010986,0.013366699,29.0,2.765625,3.25,131
132,1695741800437,0.21142578,-0.98687744,-0.05279541,-11.0625,-1.234375,16.28125,132
133,1695741800477,0.45483398,-1.0913696,0.16668701,-44.125,38.4375,-5.75,133
134,1695741800517,0.28125,-0.7695923,0.21234131,-3.125,16.59375,-20.21875,134
135,1695741800557,0.31860352,-0.7305298,-0.02154541,29.4375,-2.53125,3.53125,135
136,1695741800597,0.5168457,-1.0005493,-0.0154418945,-21.90625,5.6875,14.015625,136
137,1695741800637,0.3647461,-0.9849243,0.23114014,-13.53125,4.296875,-8.46875,137
138,1695741800677,0.08691406,-0.82940674,0.038513184,41.03125,7.5,-28.484375,138
139,1695741800717,-0.0053710938,-0.8858032,-0.23052979,25.984375,16.953125,-14.328125,139
140,1695741800757,0.28930664,-1.1609497,-0.21954346,-9.609375,10.203125,26.28125,140
141,1695741800797,0.80249023,-1.2705688,0.13519287,-58.453125,7.25,2.796875,141
142,1695741800837,0.11791992,-0.8069458,0.26507568,23.296875,4.828125,-17.90625,142
143,1695741800877,0.04272461,-0.77789307,-0.11871338,85.3125,-9.078125,-20.921875,143
144,1695741800917,-0.048339844,-0.79229736,-0.38311768,16.09375,-4.328125,8.578125,144
145,1695741800957,0.076171875,-1.2459106,-0.03643799,-43.25,7.078125,36.1875,145
146,1695741800997,0.40600586,-1.2349243,0.15423584,-16.421875,-5.609375,-6.890625,146
147,1695741801037,0.048095703,-0.94903564,-0.06036377,67.859375,-13.765625,-32.125,147
148,1695741801077,-0.08227539,-0.7053833,-0.51104736,22.859375,-1.734375,-11.765625,148
149,1695741801117,0.14648438,-0.7337036,-0.20391846,-82.125,15.390625,12.75,149
150,1695741801157,0.31201172,-0.91485596,0.23651123,-46.28125,1.484375,11.28125,150
151,1695741801197,0.21704102,-1.1133423,0.05633545,57.453125,-26.75,-12.6875,151
152,1695741801237,0.0053710938,-1.0210571,-0.4463501,61.421875,-17.953125,-20.25,152
153,1695741801277,0.06567383,-0.8098755,-0.49298096,-36.421875,11.25,7.109375,153
154,1695741801317,0.19238281,-0.80181885,-0.035949707,-58.046875,18.578125,7.890625,154
155,1695741801357,0.17163086,-0.89068604,0.1071167,0.3125,3.78125,-3.515625,155
156,1695741801397,0.07055664,-1.0813599,-0.19952393,38.3125,-4.0625,-5.765625,156
157,1695741801437,0.11206055,-1.0974731,-0.37408447,-11.953125,6.765625,15.875,157
158,1695741801477,0.41064453,-0.9260864,0.08465576,-58.125,34.796875,5.9375,158
159,1695741801517,0.3330078,-0.7149048,0.45819092,-5.125,10.328125,11.546875,159
160,1695741801557,0.25195312,-0.8792114,0.0914917,46.671875,-20.453125,15.4375,160
161,1695741801597,0.28857422,-1.3665161,-0.06744385,26.53125,-15.859375,16.53125,161
162,1695741801637,0.20874023,-1.3084106,0.04925537,-27.8125,8.359375,-5.359375,162
163,1695741801677,0.06933594,-0.8911743,0.18890381,-27.359375,9.71875,-10.9375,163
164,1695741801717,0.0859375,-0.72906494,0.13616943,2.296875,7.0625,-0.40625,164
165,1695741801757,0.16577148,-0.77838135,0.0692749,0.625,3.25,7.953125,165
166,1695741801797,0.2824707,-1.0332642,0.09222412,-10.65625,5.953125,13.359375,166
167,1695741801837,0.39916992,-1.0674438,0.16156006,-14.3125,7.359375,3.234375,167
168,1695741801877,0.2397461,-0.8538208,0.12176514,11.515625,3.015625,-7.234375,168
169,1695741801917,0.16699219,-0.9614868,-0.008361816,18.90625,11.59375,-2.59375,169
170,1695741801957,0.1640625,-0.97540283,-0.03668213,-17.828125,9.6875,-8.453125,170
171,1695741801997,0.13452148,-0.86602783,0.08441162,-16.765625,23.0625,-6.390625,171
172,1695741802037,0.20947266,-0.9302368,0.030944824,8.25,18.53125,-3.765625,172
173,1695741802077,0.31469727,-0.95513916,-0.05230713,-4.390625,15.90625,-2.421875,173
174,1695741802117,0.35205078,-1.123352,0.047546387,-7.515625,28.609375,0.796875,174
175,1695741802157,0.14428711,-1.0615845,0.053649902,6.640625,24.890625,-11.671875,175
176,1695741802197,-0.080566406,-0.8115845,-0.09844971,15.703125,31.640625,-15.859375,176
177,1695741802237,-0.12695312,-0.7427368,-0.2695923,12.75,33.953125,1.140625,177
178,1695741802277,0.19482422,-0.960022,-0.2354126,-17.046875,36.453125,17.984375,178
179,1695741802317,0.5073242,-1.2022095,0.035095215,-32.6875,36.953125,14.890625,179
180,1695741802357,0.33496094,-1.0046997,0.082214355,0.046875,37.75,-8.921875,180
181,1695741802397,-0.0078125,-0.81256104,-0.08526611,38.140625,28.375,-11.5,181
182,1695741802437,-0.09692383,-0.8340454,-0.32574463,21.515625,19.765625,-4.78125,182
183,1695741802477,0.016601562,-0.9783325,-0.27960205,-1.453125,22.46875,15.921875,183
184,1695741802517,0.29003906,-1.1013794,-0.21368408,-1.703125,20.625,10.625,184
185,1695741802557,0.26220703,-1.0027466,-0.13018799,-15.6875,26.703125,-0.0625,185
186,1695741802597,0.1352539,-0.89190674,-0.101867676,-10.546875,16.46875,5.109375,186
187,1695741802637,0.017089844,-0.9351196,-0.19683838,9.890625,11.265625,5.578125,187
188,1695741802677,-0.060546875,-0.9981079,-0.29058838,-7.5625,13.78125,1.4375,188
189,1695741802717,0.05419922,-0.94073486,-0.1453247,-9.625,17.5,5.9375,189
190,1695741802757,0.14453125,-0.95098877,-0.16973877,-11.828125,20.375,1.4375,190
191,1695741802797,0.088378906,-0.9380493,-0.17486572,-12.859375,19.078125,2.578125,191
192,1695741802837,0.10864258,-0.9470825,-0.1560669,-22.46875,19.40625,5.0625,192
193,1695741802877,0.08862305,-0.9939575,-0.117492676,-15.3125,14.578125,7.046875,193
194,1695741802917,0.17114258,-1.0144653,-0.120666504,-18.78125,8.203125,6.625,194
195,1695741802957,0.26098633,-1.0669556,-0.054016113,-13.703125,9.390625,12.546875,195
196,1695741802997,0.25097656,-0.99591064,-0.003479004,-22.21875,19.875,9.5,196
197,1695741803037,0.08203125,-0.83673096,0.06829834,-11.71875,10.875,-1.3125,197
198,1695741803077,-0.0041503906,-0.9092407,-0.17779541,6.40625,5.921875,-3.28125,198
199,1695741803117,0.12890625,-0.98028564,-0.0115356445,-7.3125,5.1875,6.484375,199
200,1695741803157,0.37329102,-1.0667114,0.039245605,-17.015625,11.078125,7.765625,200
201,1695741803197,0.22998047,-0.98931885,0.051940918,-18.171875,16.0625,0.109375,201
202,1695741803237,0.140625,-0.89190674,-0.03765869,-14.46875,8.953125,-3.296875,202
203,1695741803277,0.23754883,-0.8648071,0.07513428,-11.828125,9.953125,2.890625,203
204,1695741803317,0.24389648,-0.9463501,0.11517334,-5.734375,8.171875,11.125,204
205,1695741803357,0.35375977,-0.9963989,0.117614746,-9.28125,-2.171875,6.25,205
206,1695741803397,0.31152344,-1.0357056,0.18963623,-6.53125,6.140625,-0.671875,206
207,1695741803437,0.26464844,-1.0044556,0.19476318,-3.203125,3.6875,-3.609375,207
208,1695741803477,0.18579102,-0.90338135,0.13470459,-11.875,3.734375,-4.65625,208
209,1695741803517,0.17236328,-0.83551025,0.1696167,7.3125,-3.390625,-0.9375,209
210,1695741803557,0.23388672,-0.86383057,0.12567139,3.953125,0.15625,-1.203125,210
211,1695741803597,0.33666992,-0.9639282,0.20135498,-9.421875,-0.890625,2.625,211
212,1695741803637,0.2956543,-0.93536377,0.22235107,4.75,-4.15625,-5.09375,212
213,1695741803677,0.32666016,-0.85650635,0.20428467,1.96875,-10.265625,-5.84375,213
214,1695741803717,0.2770996,-0.88360596,0.21160889,10.671875,-8.546875,-3.6875,214
215,1695741803757,0.20605469,-0.96221924,0.15863037,15.25,-11.15625,-5.546875,215
216,1695741803797,0.26342773,-0.8953247,0.26727295,-4.953125,-7.109375,-1.140625,216
217,1695741803837,0.3474121,-0.88897705,0.2789917,9.4375,-15.34375,-3.125,217
218,1695741803877,0.3569336,-0.9573364,0.066589355,32.578125,-29.40625,-2.765625,218
219,1695741803917,0.31103516,-1.260315,-0.11627197,21.984375,-35.0,9.03125,219
220,1695741803957,0.38793945,-1.0984497,0.08099365,-25.984375,-8.921875,-3.078125,220
221,1695741803997,0.047851562,-0.9348755,0.18817139,-9.53125,-14.984375,-24.0625,221
222,1695741804037,-0.0690918,-0.8154907,-0.13018799,51.28125,-38.234375,-14.59375,222
223,1695741804077,0.17626953,-1.050354,-0.27667236,23.8125,-29.578125,6.15625,223
224,1695741804117,0.2956543,-1.2561646,-0.20074463,-10.0,-17.09375,-1.921875,224
225,1695741804157,0.20458984,-0.91119385,-0.02935791,3.890625,-27.078125,-30.859375,225
226,1695741804197,-0.1743164,-0.8242798,-0.1951294,20.546875,-32.984375,-21.5625,226
227,1695741804237,-0.14135742,-0.8760376,-0.11383057,4.953125,-16.453125,-9.75,227
228,1695741804277,-0.044189453,-0.87994385,-0.0569458,18.859375,-27.453125,-1.15625,228
229,1695741804317,0.15893555,-0.95147705,-0.144104,4.875,-22.375,-1.125,229
230,1695741804357,0.29345703,-0.9146118,-0.035461426,-4.796875,-23.8125,-5.71875,230
231,1695741804397,0.0043945312,-0.97125244,-0.023498535,-9.890625,-18.265625,-1.21875,231
232,1695741804437,0.016601562,-1.0205688,0.094177246,-11.984375,-42.40625,6.3125,232
233,1695741804477,0.09106445,-1.0276489,0.09051514,3.734375,-39.546875,4.015625,233
234,1695741804517,-0.09350586,-0.97857666,0.11102295,-6.8125,-32.609375,8.078125,234
235,1695741804557,-0.07421875,-0.92437744,-0.0037231445,3.0,-35.625,3.4375,235
236,1695741804597,-0.06518555,-1.0598755,0.057800293,-3.78125,-35.171875,0.6875,236
237,1695741804637,0.08959961,-1.2588501,0.073913574,-20.9375,-28.953125,4.875,237
238,1695741804677,0.14575195,-1.1345825,0.13104248,-10.34375,-23.5,12.296875,238
239,1695741804717,0.34814453,-1.1079712,-0.21392822,5.59375,-53.609375,-5.40625,239
240,1695741804757,0.41674805,-0.975647,-0.06060791,-6.640625,-35.015625,26.34375,240
241,1695741804797,0.48632812,-1.0332642,0.34710693,-7.328125,-0.90625,-13.34375,241
242,1695741804837,-0.25830078,-1.0811157,-0.06939697,93.390625,-33.359375,-30.859375,242
243,1695741804877,-0.22143555,-1.0581665,-0.23223877,-61.203125,7.40625,-6.125,243
244,1695741804917,0.25708008,-0.8233032,0.19476318,-65.875,29.28125,0.078125,244
245,1695741804957,0.43530273,-0.6819458,0.3847046,4.234375,6.953125,-0.203125,245
246,1695741804997,0.23022461,-0.6626587,0.086120605,20.09375,4.828125,-10.671875,246
247,1695741805037,-0.13452148,-0.7744751,0.09442139,-28.796875,25.203125,-8.546875,247
248,1695741805077,-0.13964844,-0.93878174,0.31048584,15.1875,25.734375,-1.546875,248
249,1695741805117,0.10229492,-0.9331665,0.17791748,-7.484375,36.171875,1.3125,249
250,1695741805157,0.34838867,-0.9373169,0.34735107,-4.953125,20.875,-11.40625,250
251,1695741805197,0.22387695,-0.95684814,0.309021,1.109375,43.875,-9.40625,251
252,1695741805237,0.06201172,-0.85162354,0.19769287,3.71875,26.828125,-5.0625,252
253,1695741805277,0.11035156,-0.9487915,0.06048584,7.171875,8.03125,-0.890625,253
254,1695741805317,0.07104492,-1.3713989,-0.24346924,20.71875,-4.828125,25.390625,254
255,1695741805357,0.5031738,-1.74469,-0.39141846,46.359375,14.484375,18.703125,255
256,1695741805397,0.19433594,-0.92559814,-0.2612915,-53.671875,49.75,-24.09375,256
257,1695741805437,0.02709961,-0.5628052,0.022644043,-38.640625,40.265625,-12.203125,257
258,1695741805477,-0.09448242,-0.7151489,-0.015197754,64.953125,4.71875,-6.984375,258
259,1695741805517,-0.19458008,-1.1941528,-0.37701416,41.28125,1.671875,21.765625,259
260,1695741805557,-0.0029296875,-1.0481567,-0.25250244,0.875,38.765625,8.921875,260
261,1695741805597,-0.1003418,-0.63409424,-0.27471924,-14.9375,44.984375,-9.4375,261
262,1695741805637,-0.035888672,-0.80596924,-0.18829346,-18.15625,38.796875,-7.421875,262
263,1695741805677,0.17407227,-0.99420166,-0.17974854,-34.65625,34.203125,16.34375,263
264,1695741805717,0.33422852,-1.2749634,0.19769287,-31.515625,33.828125,22.265625,264
265,1695741805757,0.11230469,-0.9380493,-0.054992676,-17.921875,14.671875,8.21875,265
266,1695741805797,0.055908203,-0.87335205,-0.03643799,-33.375,10.5,5.21875,266
267,1695741805837,0.050048828,-0.9146118,0.08050537,-9.359375,-11.828125,9.4375,267
268,1695741805877,0.05883789,-0.95806885,0.0848999,6.484375,-6.140625,10.171875,268
269,1695741805917,-0.123046875,-1.0498657,0.055847168,-13.96875,0.234375,9.28125,269
270,1695741805957,-0.17333984,-1.1052856,-0.05621338,-1.734375,-9.328125,16.953125,270
271,1695741805997,-0.19140625,-0.9734497,0.030212402,-4.875,2.390625,4.859375,271
272,1695741806037,-0.171875,-0.9639282,-0.07183838,-5.171875,2.875,-2.21875,272
273,1695741806077,0.014892578,-1.3557739,-0.105529785,10.0625,10.84375,2.171875,273
274,1695741806117,0.48461914,-1.3262329,-0.16729736,5.78125,20.6875,2.484375,274
275,1695741806157,0.6921387,-0.93048096,-0.004699707,-33.59375,45.796875,-1.140625,275
276,1695741806197,0.41455078,-0.7546997,0.1876831,-13.1875,43.875,-2.640625,276
277,1695741806237,0.27734375,-0.90093994,-0.05206299,-1.9375,25.15625,-0.515625,277
278,1695741806277,0.28344727,-1.031311,0.10784912,-12.421875,28.640625,-0.453125,278
279,1695741806317,0.29956055,-1.0618286,0.11981201,-18.875,33.296875,2.0,279
280,1695741806357,0.20996094,-0.831604,0.039001465,-16.09375,30.15625,-17.125,280
281,1695741806397,0.21606445,-0.7371216,0.01361084,-13.515625,32.890625,-11.921875,281
282,1695741806437,0.27392578,-0.78863525,0.15081787,-7.078125,23.078125,-9.0,282
283,1695741806477,0.18945312,-1.076477,0.2658081,-5.703125,26.75,3.46875,283
284,1695741806517,0.2199707,-1.0090942,0.1671753,-24.78125,22.0,-5.0,284
285,1695741806557,0.2939453,-0.80596924,0.21746826,-13.65625,17.640625,-11.5625,285
286,1695741806597,0.084472656,-0.87945557,0.34661865,-0.875,15.28125,-9.125,286
287,1695741806637,0.057861328,-0.8467407,0.25946045,-0.015625,-3.359375,-8.890625,287
288,1695741806677,0.07543945,-0.8032837,0.26361084,-1.78125,-1.03125,-18.171875,288
289,1695741806717,0.10986328,-0.90704346,0.22137451,4.109375,-1.328125,-13.765625,289
290,1695741806757,0.15161133,-1.0081177,0.34466553,-11.34375,3.515625,-20.46875,290
291,1695741806797,-0.07128906,-1.0606079,0.35076904,-1.640625,-6.546875,-27.09375,291
292,1695741806837,0.10229492,-1.3428345,-0.04156494,12.140625,-47.953125,-8.78125,292
293,1695741806877,0.5202637,-1.6253052,0.02923584,0.421875,8.109375,28.34375,293
294,1695741806917,0.57128906,-0.8682251,0.22332764,-10.09375,-22.203125,0.421875,294
295,1695741806957,0.40185547,-0.7576294,0.018249512,-21.484375,-54.78125,-11.328125,295
296,1695741806997,-0.20288086,-0.99835205,-0.06011963,23.703125,-24.828125,-7.96875,296
297,1695741807037,-0.35717773,-1.4592896,0.019470215,10.078125,-3.828125,28.078125,297
298,1695741807077,0.31152344,-0.89434814,0.27142334,-17.921875,-10.21875,-13.140625,298
299,1695741807117,0.21606445,-0.5906372,0.1449585,11.484375,-35.40625,-3.453125,299
300,1695741807157,0.05029297,-0.647522,0.16082764,-11.328125,-9.203125,14.390625,300
301,1695741807197,0.10180664,-0.7625122,0.15057373,9.96875,-29.3125,27.53125,301
302,1695741807237,-0.0690918,-1.2625122,0.19500732,38.828125,-14.90625,13.09375,302
303,1695741807277,-0.17504883,-1.0718384,-0.00982666,16.265625,-3.09375,-10.46875,303
304,1695741807317,-0.12451172,-0.8335571,0.09246826,-21.40625,1.09375,10.96875,304
305,1695741807357,0.008544922,-0.91485596,0.15228271,5.3125,-1.03125,13.84375,305
306,1695741807397,-0.06738281,-0.9663696,-0.024475098,14.78125,2.875,14.296875,306
307,1695741807437,-0.045410156,-0.81085205,-0.07281494,2.875,9.90625,18.828125,307
308,1695741807477,0.10620117,-0.8982544,-0.07354736,-4.984375,27.734375,29.5,308
309,1695741807517,0.6130371,-1.0288696,0.0079956055,-15.015625,32.40625,41.53125,309
310,1695741807557,1.0834961,-1.0188599,0.50286865,13.40625,24.9375,47.984375,310
311,1695741807597,0.50390625,-0.9155884,0.16668701,57.4375,2.734375,-2.203125,311
312,1695741807637,0.031982422,-0.769104,-0.25494385,78.03125,7.203125,5.28125,312
313,1695741807677,0.039794922,-1.0501099,-0.3118286,36.015625,27.671875,17.890625,313
314,1695741807717,0.3996582,-0.9307251,-0.23321533,-60.015625,28.546875,39.78125,314
315,1695741807757,0.8322754,-0.8501587,0.23358154,-78.046875,51.109375,13.84375,315
316,1695741807797,0.52905273,-0.4265747,0.24456787,47.984375,24.375,-4.125,316
317,1695741807837,0.20361328,-0.66656494,-0.28448486,84.25,-1.1875,19.625,317
318,1695741807877,0.31030273,-0.8128052,-0.27252197,10.234375,23.984375,16.359375,318
319,1695741807917,0.10058594,-0.8399048,-0.06011963,-11.265625,50.65625,12.328125,319
320,1695741807957,0.27026367,-0.7510376,-0.17388916,23.90625,39.921875,7.046875,320
321,1695741807997,0.42285156,-0.66485596,-0.31695557,22.9375,57.15625,5.125,321
322,1695741808037,0.4658203,-0.6951294,-0.3015747,2.71875,39.53125,30.140625,322
323,1695741808077,0.6081543,-0.60821533,-0.04888916,-23.53125,34.375,6.359375,323
324,1695741808117,0.3095703,-0.64556885,-0.32989502,43.984375,4.234375,4.46875,324
325,1695741808157,0.48876953,-0.97784424,-0.8809204,24.546875,-4.75,15.953125,325
326,1695741808197,0.22729492,-0.6934204,-0.38555908,-57.28125,65.34375,-4.765625,326
327,1695741808237,0.23461914,-0.5791626,0.0040893555,28.75,19.625,2.578125,327
328,1695741808277,0.45874023,-0.7510376,-0.73883057,31.53125,3.109375,-1.765625,328
329,1695741808317,0.35424805,-0.65582275,-0.47296143,-39.359375,43.265625,-2.90625,329
330,1695741808357,0.06616211,-0.55548096,-0.59454346,34.703125,29.4375,-4.953125,330
331,1695741808397,0.2980957,-0.694397,-0.7576294,-30.28125,16.40625,-3.4375,331
332,1695741808437,0.28125,-0.6243286,-0.5696411,19.421875,23.46875,-4.5,332
333,1695741808477,0.35083008,-0.73565674,-0.63409424,12.296875,13.234375,-8.578125,333
334,1695741808517,0.18701172,-0.6592407,-0.71417236,-8.5625,13.8125,-16.640625,334
335,1695741808557,0.15966797,-0.8069458,-0.68927,11.390625,14.546875,-25.234375,335
336,1695741808597,0.05883789,-0.725647,-0.704895,8.484375,21.5625,-20.5,336
337,1695741808637,0.1550293,-0.75567627,-0.6746216,-0.140625,12.703125,-13.53125,337
338,1695741808677,0.0126953125,-0.7241821,-0.7827759,1.453125,21.71875,-18.65625,338
339,1695741808717,0.15209961,-0.8682251,-0.7163696,-2.28125,9.8125,-13.03125,339
340,1695741808757,0.12915039,-0.8562622,-0.68341064,-2.8125,9.015625,-10.59375,340
341,1695741808797,-0.04321289,-0.803772,-0.8892212,9.109375,6.09375,-23.15625,341
342,1695741808837,0.035888672,-0.77471924,-0.7061157,13.5,8.328125,-21.984375,342
343,1695741808877,-0.11352539,-0.6995239,-0.6358032,8.953125,6.671875,-12.3125,343
344,1695741808917,0.00048828125,-0.8904419,-0.8115845,9.265625,-8.015625,-5.546875,344
345,1695741808957,0.057617188,-0.85650635,-0.7727661,-2.984375,-2.84375,-1.109375,345
346,1695741808997,-0.072021484,-0.82476807,-0.8574829,-1.703125,-2.859375,-11.140625,346
347,1695741809037,-0.111328125,-0.77471924,-0.7022095,12.96875,-7.25,-7.578125,347
348,1695741809077,-0.08276367,-0.7756958,-0.76690674,-3.234375,-9.640625,-0.140625,348
349,1695741809117,-0.012939453,-0.8140259,-0.7432251,-1.6875,-8.390625,-2.625,349
350,1695741809157,-0.041259766,-0.84942627,-0.72540283,-6.359375,-11.09375,-0.640625,350
351,1695741809197,-0.012207031,-0.8428345,-0.7781372,-11.734375,-14.265625,-3.5625,351
352,1695741809237,-0.12084961,-0.7979126,-0.72784424,-8.34375,-5.625,-2.28125,352
353,1695741809277,0.0036621094,-0.84625244,-0.6694946,-21.0,-12.03125,3.9375,353
354,1695741809317,-0.050048828,-0.85235596,-0.7012329,-31.28125,-7.859375,6.125,354
355,1695741809357,0.0146484375,-0.8374634,-0.6795044,-23.71875,-14.0625,6.421875,355
356,1695741809397,-0.020996094,-0.9194946,-0.58428955,-24.5625,-8.484375,16.125,356
357,1695741809437,0.079833984,-0.8220825,-0.61920166,-29.09375,-4.96875,12.640625,357
358,1695741809477,0.17456055,-0.86724854,-0.4602661,-26.296875,-6.625,7.46875,358
359,1695741809517,0.07104492,-0.92510986,-0.41705322,-18.125,-1.875,7.328125,359
360,1695741809557,0.029296875,-0.81866455,-0.5117798,-14.84375,-3.25,6.703125,360
361,1695741809597,0.1315918,-0.9273071,-0.4578247,-18.0625,-3.859375,14.734375,361
362,1695741809637,0.03930664,-0.8623657,-0.40020752,-3.9375,0.359375,8.171875,362
363,1695741809677,0.087646484,-0.79351807,-0.39996338,-3.4375,3.515625,6.6875,363
364,1695741809717,0.11694336,-0.79473877,-0.3821411,-5.53125,4.75,8.984375,364
365,1695741809757,0.1977539,-0.81378174,-0.37750244,-5.140625,-10.125,13.390625,365
366,1695741809797,0.107666016,-0.8442993,-0.46246338,3.46875,-10.609375,-0.390625,366
367,1695741809837,0.17504883,-0.82891846,-0.43902588,-14.859375,-8.796875,11.46875,367
368,1695741809877,0.27001953,-0.8208618,-0.35064697,-19.046875,-8.46875,4.328125,368
369,1695741809917,0.2475586,-0.86676025,-0.30010986,-7.28125,-21.3125,6.703125,369
370,1695741809957,0.3095703,-0.8657837,-0.3255005,-10.921875,-20.609375,-6.125,370
371,1695741809997,0.10620117,-0.769104,-0.2962036,-7.109375,-22.609375,-10.453125,371
372,1695741810037,0.1328125,-0.798645,-0.28692627,-16.015625,-27.3125,4.25,372
373,1695741810077,0.2705078,-0.9434204,-0.2144165,-22.515625,-22.21875,2.1875,373
374,1695741810117,0.23095703,-0.954895,-0.09674072,-28.140625,-13.40625,-5.5,374
375,1695741810157,0.32958984,-0.88653564,0.11566162,-47.015625,-20.859375,-9.375,375
376,1695741810197,0.09277344,-0.61968994,0.24261475,7.765625,-38.953125,-18.421875,376
377,1695741810237,-0.06762695,-0.6240845,-0.028381348,25.6875,-42.578125,-12.546875,377
378,1695741810277,0.005859375,-0.6724243,-0.0635376,-23.9375,-34.9375,0.25,378
379,1695741810317,0.13793945,-0.96588135,0.11395264,-48.0625,-17.296875,0.453125,379
380,1695741810357,0.1159668,-1.1375122,0.33465576,-32.015625,-15.8125,-18.359375,380
381,1695741810397,0.040771484,-0.8970337,0.24871826,0.96875,-25.125,-35.328125,381
382,1695741810437,0.0007324219,-0.7149048,-0.04522705,34.453125,-52.625,-21.171875,382
383,1695741810477,0.3557129,-1.3931274,-0.21051025,23.078125,-66.1875,23.15625,383
384,1695741810517,0.22460938,-1.2654419,0.04510498,-54.6875,17.203125,-38.734375,384
385,1695741810557,0.33422852,-0.56085205,0.35516357,-15.484375,-34.984375,-30.578125,385
386,1695741810597,0.18017578,-0.89434814,-0.027160645,30.953125,-63.328125,-9.703125,386
387,1695741810637,0.11621094,-1.1433716,-0.14141846,-18.421875,-39.1875,4.75,387
388,1695741810677,0.09448242,-1.1987915,0.12615967,1.8125,-49.75,1.578125,388
389,1695741810717,0.0036621094,-0.925354,-0.02130127,30.296875,-58.25,-16.453125,389
390,1695741810757,-0.012939453,-0.75250244,-0.0022583008,7.375,-54.296875,-1.578125,390
391,1695741810797,-0.021728516,-0.9248657,-0.054504395,19.6875,-55.375,1.765625,391
392,1695741810837,0.044677734,-0.9846802,-0.047912598,7.671875,-55.015625,4.515625,392
393,1695741810877,-0.036132812,-1.0166626,0.0138549805,16.359375,-61.25,6.671875,393
394,1695741810917,-0.10888672,-0.9758911,-0.10040283,12.75,-56.359375,-0.625,394
395,1695741810957,-0.12695312,-0.9614868,-0.06939697,-8.296875,-59.296875,6.078125,395
396,1695741810997,0.01928711,-0.79766846,-0.031799316,1.171875,-64.921875,1.171875,396
397,1695741811037,0.04296875,-0.8567505,-0.19976807,16.703125,-70.03125,-0.53125,397
398,1695741811077,0.026611328,-1.0244751,-0.28204346,20.25,-69.734375,-2.0625,398
399,1695741811117,-0.0859375,-1.3850708,-0.1807251,-42.6875,-34.6875,7.703125,399
400,1695741811157,0.4243164,-1.0950317,1.0682983,-20.359375,-1.984375,-0.328125,400
401,1695741811197,0.41259766,-1.0681763,0.2399292,35.3125,-83.1875,-0.3125,401
402,1695741811237,0.38989258,-0.83917236,0.16229248,4.34375,-59.640625,-5.1875,402
403,1695741811277,0.11303711,-0.8233032,0.22039795,25.75,-61.609375,-3.796875,403
404,1695741811317,-0.059814453,-0.81378174,0.051452637,19.28125,-71.25,-8.40625,404
405,1695741811357,-0.119140625,-0.88238525,0.14984131,-7.8125,-42.96875,0.140625,405
406,1695741811397,0.05834961,-0.8262329,0.18450928,10.3125,-41.203125,5.390625,406
407,1695741811437,0.35253906,-0.88848877,0.18011475,13.4375,-45.28125,-4.390625,407
408,1695741811477,0.28857422,-0.96954346,0.16204834,21.53125,-45.359375,-11.734375,408
409,1695741811517,-0.053222656,-0.8960571,-0.023498535,53.4375,-77.90625,-23.328125,409
410,1695741811557,-0.3972168,-1.3743286,-0.36138916,86.265625,-57.578125,-15.3125,410
411,1695741811597,-0.022460938,-1.1362915,-0.4685669,-31.5625,12.21875,-3.859375,411
412,1695741811637,0.043701172,-0.48443604,0.35247803,-126.65625,57.328125,-3.625,412
413,1695741811677,0.27319336,-0.7173462,0.082214355,71.078125,-90.0625,11.15625,413
414,1695741811717,0.4572754,-1.5332642,-0.4138794,52.359375,-81.71875,18.890625,414
415,1695741811757,-0.016601562,-1.3657837,-0.18292236,22.828125,-52.25,-28.953125,415
416,1695741811797,-0.39819336,-0.6140747,-0.3184204,33.0625,-41.890625,-35.90625,416
417,1695741811837,-0.33007812,-0.5237427,-0.42999268,-6.234375,-46.3125,-3.453125,417
418,1695741811877,0.08154297,-0.6116333,-0.32525635,-5.90625,-50.21875,5.0625,418
419,1695741811917,0.34423828,-0.9819946,-0.29986572,-6.859375,-54.9375,13.671875,419
420,1695741811957,0.24584961,-1.0916138,-0.29156494,21.046875,-58.171875,-5.234375,420
421,1695741811997,0.18383789,-1.0120239,-0.3789673,41.75,-73.6875,-0.90625,421
422,1695741812037,0.17529297,-0.85357666,-0.19171143,-4.9375,-32.4375,-3.75,422
423,1695741812077,0.33935547,-0.88287354,0.08685303,-13.296875,-42.421875,40.0,423
424,1695741812117,0.43969727,-1.2659302,0.18695068,62.96875,-75.828125,38.03125,424
425,1695741812157,0.22827148,-1.5601196,-0.1296997,98.828125,-65.578125,-2.28125,425
426,1695741812197,-0.20019531,-0.85406494,-0.37750244,77.859375,-49.046875,-35.609375,426
427,1695741812237,-0.10058594,-0.55914307,-0.409729,-31.609375,-0.765625,13.546875,427
428,1695741812277,0.2919922,-0.54937744,-0.09161377,-51.328125,9.96875,11.65625,428
429,1695741812317,0.4885254,-0.6741333,0.10101318,11.0,-9.890625,28.21875,429
430,1695741812357,0.5336914,-1.0061646,-0.07525635,47.78125,-13.265625,30.1875,430
431,1695741812397,0.45361328,-0.83428955,-0.15899658,39.609375,-13.875,-2.1875,431
432,1695741812437,0.32470703,-0.51226807,-0.35430908,59.765625,-19.171875,3.421875,432
433,1695741812477,0.41503906,-0.5796509,-0.5791626,21.34375,-14.921875,20.890625,433
434,1695741812517,0.7338867,-0.704895,-0.40020752,-17.890625,0.375,20.453125,434
435,1695741812557,0.42041016,-1.135315,-0.19146729,37.875,34.9375,11.859375,435
436,1695741812597,0.19433594,-0.77227783,-0.43218994,64.328125,5.375,-8.828125,436
437,1695741812637,0.005126953,-0.6387329,-0.7402954,18.359375,-3.953125,20.265625,437
438,1695741812677,0.64282227,-0.68536377,-0.6514282,-43.484375,-14.8125,34.28125,438
439,1695741812717,0.9243164,-0.7786255,-0.17095947,-61.203125,-11.265625,0.703125,439
440,1695741812757,0.5800781,-0.51885986,0.019470215,2.328125,-23.5,-10.359375,440
441,1695741812797,0.043701172,-0.71051025,-0.5720825,63.765625,-48.515625,-38.015625,441
442,1695741812837,-0.13183594,-0.7842407,-0.8670044,26.9375,-1.359375,-6.421875,442
443,1695741812877,0.25976562,-0.59991455,-0.4631958,-78.265625,7.890625,14.75,443
444,1695741812917,0.6862793,-0.47320557,-0.070373535,-77.640625,-5.40625,-10.578125,444
445,1695741812957,0.62060547,-0.7085571,-0.16241455,21.796875,-13.21875,-12.5625,445
446,1695741812997,0.22143555,-0.7473755,-0.42462158,-3.859375,3.359375,-15.1875,446
447,1695741813037,0.3894043,-0.71343994,-0.21173096,-50.828125,9.546875,-8.609375,447
448,1695741813077,0.41455078,-0.78009033,-0.26397705,-8.21875,-23.34375,-11.015625,448
449,1695741813117,0.27270508,-0.74713135,-0.21270752,-13.953125,27.90625,-11.234375,449
450,1695741813157,0.41088867,-0.7258911,-0.20269775,-32.71875,-11.75,6.546875,450
451,1695741813197,0.6201172,-0.87579346,-0.10455322,-30.328125,-16.578125,3.359375,451
452,1695741813237,0.6262207,-0.9746704,-0.010803223,-47.8125,0.5,0.984375,452
453,1695741813277,0.6130371,-0.8386841,0.004333496,-16.703125,-9.34375,1.90625,453
454,1695741813317,0.5046387,-0.9768677,-0.07232666,-14.1875,-14.265625,-5.296875,454
455,1695741813357,0.4951172,-1.0454712,-0.08380127,-22.96875,-2.4375,2.21875,455
456,1695741813397,0.56103516,-0.88067627,0.21795654,-25.734375,-9.109375,0.359375,456
457,1695741813437,0.54833984,-0.954895,0.035583496,-13.890625,-11.640625,-6.03125,457
458,1695741813477,0.49389648,-0.9656372,0.07293701,-15.015625,2.625,-8.171875,458
459,1695741813517,0.43066406,-0.9446411,0.14324951,0.671875,-8.390625,-0.328125,459
460,1695741813557,0.548584,-0.9439087,-0.003479004,-18.078125,-13.484375,-0.765625,460
461,1695741813597,0.6855469,-1.0076294,0.15985107,-32.03125,-6.296875,-4.890625,461
462,1695741813637,0.40942383,-1.0127563,0.16912842,2.359375,3.84375,-0.5,462
463,1695741813677,0.4338379,-0.82232666,0.30926514,-1.171875,-11.859375,7.671875,463
464,1695741813717,0.5300293,-0.9397583,-0.050598145,3.9375,-19.640625,-13.828125,464
465,1695741813757,0.39746094,-1.0647583,0.27459717,-31.515625,2.984375,-6.71875,465
466,1695741813797,0.48461914,-0.8335571,0.41400146,-6.796875,-17.71875,-0.125,466
467,1695741813837,0.5214844,-1.0020142,0.06707764,-5.671875,-4.078125,-12.984375,467
468,1695741813877,0.35864258,-1.0635376,0.32537842,-9.53125,1.03125,-8.46875,468
469,1695741813917,0.5239258,-1.0615845,0.42181396,0.25,-9.578125,-6.8125,469
470,1695741813957,0.50561523,-1.0845337,0.10223389,18.984375,4.546875,-14.453125,470
471,1695741813997,0.4008789,-1.0144653,0.21551514,12.234375,14.359375,-2.9375,471
472,1695741814037,0.4008789,-1.0650024,0.16693115,32.890625,6.90625,-2.46875,472
473,1695741814077,0.49682617,-1.0134888,0.07952881,23.09375,1.375,-2.25,473
474,1695741814117,0.49243164,-1.0020142,0.078308105,11.671875,13.171875,-1.5625,474
475,1695741814157,0.46289062,-1.000061,-0.0491333,36.921875,3.140625,-6.109375,475
476,1695741814197,0.42407227,-1.0151978,-0.121398926,14.515625,6.375,-3.6875,476
477,1695741814237,0.35961914,-1.0457153,-0.06500244,8.921875,18.859375,-0.375,477
478,1695741814277,0.4580078,-0.9578247,0.018981934,4.765625,4.796875,1.453125,478
479,1695741814317,0.53149414,-0.9690552,-0.054504395,19.1875,-9.734375,-4.359375,479
480,1695741814357,0.5292969,-0.9763794,-0.11920166,5.265625,1.53125,-15.1875,480
481,1695741814397,0.3227539,-0.8987427,-0.10089111,10.921875,-9.25,-12.578125,481
482,1695741814437,0.35961914,-0.9961548,-0.11773682,12.765625,-12.3125,-7.0625,482
483,1695741814477,0.5095215,-0.8987427,-0.09527588,-3.015625,-10.640625,-12.21875,483
484,1695741814517,0.46020508,-0.88409424,-0.17022705,-2.40625,-32.015625,-6.546875,484
485,1695741814557,0.623291,-0.89849854,-0.01739502,-25.328125,-28.234375,-11.890625,485
486,1695741814597,0.3461914,-0.6069946,0.2850952,-12.53125,-10.984375,-14.234375,486
487,1695741814637,0.21289062,-0.47149658,0.22381592,36.625,-49.4375,-9.859375,487
488,1695741814677,-0.10913086,-0.51446533,-0.023254395,48.609375,-58.453125,-20.3125,488
489,1695741814717,-0.123535156,-0.53863525,-0.19805908,11.4375,-40.390625,-11.09375,489
490,1695741814757,0.07788086,-0.7781372,-0.07574463,-35.8125,-17.46875,3.140625,490
491,1695741814797,0.35375977,-0.8057251,0.38763428,-41.109375,18.3125,-11.203125,491
492,1695741814837,0.25952148,-0.8296509,0.24871826,10.265625,-35.03125,-9.875,492
493,1695741814877,0.16772461,-0.77838135,0.06732178,14.890625,-30.921875,-9.28125,493
494,1695741814917,0.20703125,-0.9026489,-0.014465332,15.890625,-30.9375,0.71875,494
495,1695741814957,0.35791016,-1.0774536,0.15301514,-25.875,-3.921875,3.578125,495
496,1695741814997,0.46362305,-1.0049438,0.41204834,8.84375,-29.046875,-6.578125,496
497,1695741815037,0.33251953,-0.8838501,0.12713623,41.921875,-45.0625,-11.359375,497
498,1695741815077,0.27392578,-0.8286743,0.10296631,-32.21875,-21.09375,-7.953125,498
499,1695741815117,0.36621094,-0.819397,0.26727295,3.046875,-35.8125,-0.453125,499
500,1695741815157,0.2866211,-0.96466064,0.25604248,4.59375,-48.59375,-5.984375,500
501,1695741815197,0.12939453,-0.9614868,0.15838623,24.09375,-63.921875,-15.203125,501
502,1695741815237,-0.015380859,-1.1975708,-0.11431885,35.84375,-57.46875,-13.125,502
503,1695741815277,0.048339844,-1.0835571,-0.11090088,19.34375,-38.578125,-10.5,503
504,1695741815317,0.17163086,-0.82403564,-0.0032348633,-13.0,-12.703125,-14.3125,504
505,1695741815357,0.0625,-0.72125244,-0.03765869,-0.8125,-18.984375,-7.78125,505
506,1695741815397,-0.076171875,-1.0789185,-0.16046143,28.609375,-34.0,-11.296875,506
507,1695741815437,-0.009521484,-1.3569946,-0.25201416,17.609375,-31.6875,5.3125,507
508,1695741815477,0.11303711,-0.9534302,-0.013000488,9.578125,-21.671875,0.546875,508
509,1695741815517,0.038330078,-0.86431885,-0.097229004,13.359375,-20.6875,-7.453125,509
510,1695741815557,-0.08691406,-0.83721924,-0.14215088,7.265625,-22.75,-6.4375,510
511,1695741815597,-0.092041016,-0.92559814,-0.035461426,5.546875,-36.265625,13.640625,511
512,1695741815637,0.1640625,-1.0232544,0.023376465,16.359375,-53.109375,6.78125,512
513,1695741815677,0.15014648,-0.9902954,-0.09503174,9.875,-45.90625,5.5625,513
514,1695741815717,0.041015625,-1.0044556,-0.039611816,3.03125,-44.328125,4.734375,514
515,1695741815757,0.006591797,-1.0432739,-0.042785645,-1.140625,-50.703125,6.078125,515
516,1695741815797,0.03149414,-1.0044556,-0.0713501,-3.203125,-54.0,5.1875,516
517,1695741815837,0.08618164,-1.1096802,-0.2041626,4.453125,-63.28125,-10.234375,517
518,1695741815877,0.36157227,-1.1150513,-0.057922363,-12.5,-50.359375,-4.71875,518
519,1695741815917,0.5283203,-1.192688,0.19818115,-8.65625,-20.875,7.8125,519
520,1695741815957,0.39257812,-0.86065674,0.09686279,1.09375,-45.890625,-6.109375,520
521,1695741815997,0.034423828,-0.6851196,-0.07598877,28.09375,-52.71875,-11.53125,521
522,1695741816037,-0.05834961,-0.7432251,-0.057678223,40.390625,-29.1875,-12.40625,522
523,1695741816077,0.12207031,-1.0137329,-0.12261963,-13.6875,-23.65625,0.6875,523
524,1695741816117,0.44995117,-1.1704712,0.43743896,-53.46875,6.859375,3.484375,524
525,1695741816157,0.33154297,-0.8945923,0.307312,28.796875,-36.9375,-12.0,525
526,1695741816197,0.052246094,-0.63482666,-0.042785645,21.609375,-18.75,-7.90625,526
527,1695741816237,-0.14013672,-0.8435669,0.10394287,11.109375,-8.21875,2.234375,527
528,1695741816277,-0.0031738281,-1.031311,0.14959717,1.71875,-1.875,4.703125,528
529,1695741816317,0.26293945,-1.0029907,0.3131714,-8.296875,11.359375,-14.40625,529
530,1695741816357,0.26757812,-0.9116821,0.22406006,9.34375,-5.46875,-9.046875,530
531,1695741816397,0.23706055,-0.89630127,0.15374756,7.09375,-3.546875,-7.328125,531
532,1695741816437,-0.029541016,-0.9524536,0.17010498,19.640625,-5.8125,-13.109375,532
533,1695741816477,-0.15209961,-1.3306274,-0.31329346,37.453125,-28.984375,-8.875,533
534,1695741816517,0.2783203,-1.607727,-0.24639893,-29.46875,23.5625,0.8125,534
535,1695741816557,0.47509766,-0.96539307,0.56243896,-59.328125,49.1875,-8.828125,535
536,1695741816597,0.16674805,-0.6917114,-0.023010254,40.671875,-11.390625,-14.796875,536
537,1695741816637,-0.010009766,-0.58135986,-0.302063,26.984375,-4.640625,-1.953125,537
538,1695741816677,-0.21142578,-1.0010376,-0.41485596,22.328125,3.359375,12.359375,538
539,1695741816717,0.0637207,-1.2210083,-0.33868408,8.125,12.34375,6.484375,539
540,1695741816757,0.2644043,-1.048645,-0.09112549,-26.421875,24.609375,-7.953125,540
541,1695741816797,0.044921875,-0.9307251,-0.0256958,-27.015625,21.6875,4.765625,541
542,1695741816837,-0.012451172,-0.864563,-0.035461426,-9.390625,4.09375,9.28125,542
543,1695741816877,-0.0031738281,-0.864563,-0.14703369,7.171875,-6.75,0.140625,543
544,1695741816917,-0.001953125,-0.9331665,-0.1609497,4.078125,-0.8125,-3.234375,544
545,1695741816957,0.024414062,-1.0366821,-0.0037231445,-3.453125,5.484375,2.0,545
546,1695741816997,0.056396484,-1.079895,-0.0068969727,-17.078125,0.671875,3.453125,546
547,1695741817037,-0.009277344,-0.9758911,-0.0044555664,-17.09375,-3.5,1.640625,547
548,1695741817077,0.001953125,-0.9512329,-0.024963379,-15.796875,-8.359375,0.046875,548
549,1695741817117,0.038085938,-0.9517212,0.03314209,-15.59375,-3.703125,-0.75,549
550,1695741817157,0.08862305,-0.9512329,0.066589355,-11.875,-13.953125,2.453125,550
551,1695741817197,0.14282227,-1.1887817,0.048034668,2.171875,-25.984375,5.84375,551
552,1695741817237,0.30908203,-1.3377075,-0.036193848,18.90625,-23.359375,7.8125,552
553,1695741817277,0.17260742,-0.9529419,0.017028809,-13.265625,-4.9375,8.140625,553
554,1695741817317,0.01586914,-0.7481079,0.03656006,-2.328125,-9.5,0.96875,554
555,1695741817357,0.0043945312,-0.61016846,0.005554199,4.40625,-9.296875,-9.15625,555
556,1695741817397,0.13476562,-0.82647705,0.030700684,15.25,-0.71875,1.734375,556
557,1695741817437,0.5720215,-1.5183716,0.21234131,-13.453125,-0.796875,14.4375,557
558,1695741817477,0.34326172,-1.0283813,0.12420654,-18.46875,1.921875,3.390625,558
559,1695741817517,0.088134766,-0.85284424,0.010681152,-21.921875,-5.171875,2.828125,559
560,1695741817557,0.1772461,-0.6934204,0.039978027,12.46875,-17.890625,-18.0625,560
561,1695741817597,0.16088867,-0.7654419,0.007019043,7.953125,-2.328125,-12.140625,561
562,1695741817637,0.33081055,-1.0872192,0.34368896,-46.375,11.5,11.5625,562
563,1695741817677,0.48706055,-1.1975708,0.37738037,28.09375,-27.0,-2.1875,563
564,1695741817717,0.26293945,-0.928772,-0.09088135,8.75,-23.421875,-8.015625,564
565,1695741817757,0.05444336,-0.89385986,0.28656006,-5.5625,-16.984375,-8.3125,565
566,1695741817797,-0.20385742,-0.95977783,0.08856201,18.328125,-24.8125,-8.125,566
567,1695741817837,-0.11669922,-1.0042114,0.022399902,-2.703125,-11.6875,0.59375,567
568,1695741817877,0.2277832,-0.9920044,0.18597412,-26.984375,0.8125,5.75,568
569,1695741817917,0.24951172,-1.0254517,0.2670288,-0.90625,-9.34375,-2.328125,569
570,1695741817957,0.11230469,-0.9216919,0.13885498,-5.15625,-17.484375,-6.203125,570
571,1695741817997,-0.04663086,-0.92315674,0.20233154,4.390625,-2.828125,-3.59375,571
572,1695741818037,-0.07836914,-1.0310669,0.081726074,-6.359375,-9.375,4.65625,572
573,1695741818077,0.10180664,-0.9578247,0.1461792,-5.390625,-1.84375,-3.8125,573
574,1695741818117,0.114746094,-1.0530396,0.13006592,-11.765625,5.65625,3.1875,574
575,1695741818157,0.1418457,-0.92193604,0.20111084,5.65625,-0.953125,-7.671875,575
576,1695741818197,0.118652344,-1.1734009,-0.15557861,13.671875,-17.0,4.921875,576
577,1695741818237,0.3786621,-0.9627075,0.0028686523,-43.078125,-8.15625,0.921875,577
578,1695741818277,0.2043457,-0.90948486,0.39422607,20.90625,-7.15625,-5.203125,578
579,1695741818317,-0.049072266,-0.940979,0.014587402,26.140625,-17.8125,-1.8125,579
580,1695741818357,-0.06982422,-1.0369263,0.016052246,4.703125,-11.15625,8.15625,580
581,1695741818397,0.091796875,-1.1262817,0.101501465,-12.796875,7.953125,9.828125,581
582,1695741818437,0.19677734,-0.9077759,0.3690796,-7.546875,3.40625,-5.328125,582
583,1695741818477,-0.03564453,-0.86187744,0.152771,18.359375,-4.75,-11.328125,583
584,1695741818517,-0.05883789,-0.94854736,0.1395874,-13.265625,18.34375,-1.75,584
585,1695741818557,0.05419922,-0.9710083,0.29656982,5.375,6.5,5.421875,585
586,1695741818597,0.17749023,-1.112854,0.199646,0.734375,5.421875,-2.8125,586
587,1695741818637,0.087646484,-0.9819946,0.18695068,0.96875,15.1875,-14.171875,587
588,1695741818677,-0.03149414,-0.94195557,0.10687256,8.5625,12.109375,-10.9375,588
589,1695741818717,0.018066406,-0.93048096,0.05682373,-4.390625,12.515625,-5.046875,589
590,1695741818757,0.12841797,-0.96295166,0.1605835,-9.234375,18.875,-3.484375,590
591,1695741818797,0.106933594,-1.005188,0.19940186,7.390625,8.1875,-4.796875,591
592,1695741818837,-0.0029296875,-1.0449829,0.12420654,13.265625,4.78125,-5.890625,592
593,1695741818877,-0.08569336,-1.0061646,0.066833496,3.34375,14.28125,-2.984375,593
594,1695741818917,0.013671875,-0.9902954,0.06585693,-4.03125,12.59375,-6.265625,594
595,1695741818957,0.09301758,-0.9536743,0.18548584,-0.390625,20.953125,-8.28125,595
596,1695741818997,0.05493164,-0.99346924,0.15545654,2.953125,8.421875,-4.4375,596
597,1695741819037,-0.07421875,-1.0112915,0.085632324,11.625,1.125,1.609375,597
598,1695741819077,-0.0637207,-1.081604,0.011657715,-2.34375,10.828125,-1.625,598
599,1695741819117,0.0043945312,-0.9902954,0.10272217,-10.53125,21.53125,-9.3125,599
600,1695741819157,-0.013183594,-0.9429321,0.15789795,7.40625,13.296875,-6.40625,600
601,1695741819197,-0.0078125,-0.98760986,0.06414795,-4.6875,10.203125,-3.171875,601
602,1695741819237,-0.0063476562,-1.0083618,0.1227417,1.578125,5.40625,-2.390625,602
603,1695741819277,-0.05859375,-1.0090942,0.10638428,6.671875,10.046875,0.328125,603
604,1695741819317,-0.010009766,-0.98028564,0.04827881,-2.21875,2.875,-3.546875,604
605,1695741819357,-0.038330078,-0.9312134,0.1486206,-1.6875,8.359375,-5.953125,605
606,1695741819397,-0.07739258,-1.0227661,0.06781006,2.640625,7.3125,-2.4375,606
607,1695741819437,-0.111083984,-1.0239868,0.08758545,-2.34375,8.875,-3.21875,607
608,1695741819477,-0.10253906,-1.0037231,0.07952881,-0.078125,10.15625,-7.59375,608
609,1695741819517,-0.021484375,-1.00177,0.11029053,0.734375,9.890625,1.578125,609
610,1695741819557,0.015625,-1.0073853,0.11395264,0.3125,5.046875,1.46875,610
611,1695741819597,-0.030273438,-0.95025635,0.066345215,-3.0,2.09375,-2.984375,611
612,1695741819637,-0.06201172,-0.9602661,0.11224365,0.703125,5.171875,-5.28125,612
613,1695741819677,-0.08203125,-1.0679321,0.137146,2.625,8.40625,0.15625,613
614,1695741819717,-0.110839844,-1.0012817,0.09979248,4.046875,5.71875,0.40625,614
615,1695741819757,-0.06665039,-0.9360962,0.034851074,6.25,5.28125,-2.125,615
616,1695741819797,-0.09008789,-0.9612427,0.05999756,4.140625,16.140625,1.53125,616
617,1695741819837,-0.013671875,-1.0339966,0.07684326,-1.078125,8.5625,3.390625,617
618,1695741819877,-0.08642578,-1.0117798,0.10076904,4.421875,10.84375,0.890625,618
619,1695741819917,-0.12597656,-1.0335083,0.061706543,0.84375,15.453125,4.953125,619
620,1695741819957,-0.07104492,-0.9541626,0.0079956055,0.984375,9.59375,3.625,620
621,1695741819997,-0.045898438,-0.9780884,0.07122803,3.09375,13.6875,1.640625,621
622,1695741820037,-0.0048828125,-1.0901489,0.05682373,2.515625,9.03125,5.640625,622
623,1695741820077,-0.01928711,-1.0007935,0.05340576,-3.453125,8.984375,4.5,623
624,1695741820117,-0.01977539,-1.0220337,0.018005371,2.09375,3.921875,4.078125,624
625,1695741820157,-0.024658203,-0.95635986,0.054626465,-0.8125,8.421875,5.15625,625
626,1695741820197,-0.12231445,-1.0383911,0.030944824,-1.609375,7.484375,6.875,626
627,1695741820237,-0.104003906,-0.9812622,0.028747559,-0.203125,6.28125,4.234375,627
628,1695741820277,-0.1003418,-0.9480591,0.014099121,2.140625,8.265625,0.515625,628
629,1695741820317,-0.1315918,-1.0261841,-0.008361816,0.265625,13.34375,1.0625,629
630,1695741820357,-0.010986328,-0.96661377,0.047302246,-7.046875,13.78125,-0.625,630
631,1695741820397,0.0063476562,-1.0200806,0.04510498,-14.296875,10.59375,-1.3125,631
632,1695741820437,0.06640625,-1.0254517,0.06463623,-6.859375,10.796875,5.546875,632
633,1695741820477,0.0029296875,-0.9841919,0.08685303,-4.390625,13.453125,4.125,633
634,1695741820517,-0.111083984,-0.96710205,0.0758667,-4.734375,21.046875,0.78125,634
635,1695741820557,-0.107177734,-0.93096924,-0.022033691,-3.734375,8.03125,0.296875,635
636,1695741820597,0.111572266,-0.9475708,0.02557373,0.65625,6.265625,0.578125,636
637,1695741820637,0.11303711,-0.9480591,0.06512451,-0.5625,8.625,3.6875,637
638,1695741820677,0.10888672,-0.99542236,0.1149292,-0.953125,16.28125,2.625,638
639,1695741820717,0.033935547,-0.93927,0.17010498,-9.828125,19.328125,-11.96875,639
640,1695741820757,0.021972656,-0.93878174,0.09564209,10.6875,11.921875,-9.328125,640
641,1695741820797,0.115722656,-1.0903931,0.11907959,-13.140625,22.703125,-1.5625,641
642,1695741820837,0.16772461,-1.2295532,0.3546753,-10.140625,25.171875,-5.140625,642
643,1695741820877,0.045410156,-1.0632935,0.15985107,5.296875,9.21875,-11.703125,643
644,1695741820917,0.020507812,-0.92266846,0.05682373,-3.0625,15.484375,-7.703125,644
645,1695741820957,0.1159668,-0.78863525,0.22479248,-17.203125,32.5625,-8.515625,645
646,1695741820997,0.021484375,-0.9026489,0.20599365,10.078125,10.703125,-1.234375,646
647,1695741821037,0.017089844,-1.0964966,0.14666748,-1.71875,11.734375,2.6875,647
648,1695741821077,-0.12158203,-1.3320923,0.13543701,14.03125,12.734375,4.5,648
649,1695741821117,0.15454102,-1.0618286,0.012878418,-6.28125,8.96875,-1.9375,649
650,1695741821157,0.012939453,-0.68341064,0.14642334,8.609375,14.78125,-1.84375,650
651,1695741821197,-0.14770508,-0.77130127,-0.006652832,21.796875,4.1875,4.828125,651
652,1695741821237,-0.13671875,-1.010315,-0.07330322,4.3125,12.5625,15.078125,652
653,1695741821277,0.028320312,-1.2090454,0.027770996,-14.984375,25.40625,8.765625,653
654,1695741821317,0.072265625,-1.0252075,0.13641357,6.0625,15.0625,2.0625,654
655,1695741821357,-0.0053710938,-0.9302368,-0.0049438477,7.40625,15.140625,-1.15625,655
656,1695741821397,-0.111572266,-0.92633057,0.015563965,-4.984375,15.921875,4.65625,656
657,1695741821437,0.06347656,-0.8748169,-0.012512207,0.34375,10.046875,9.265625,657
658,1695741821477,0.10571289,-1.1323853,0.05340576,10.390625,14.015625,11.5625,658
659,1695741821517,0.018066406,-1.0945435,0.066345215,2.234375,9.140625,3.953125,659
660,1695741821557,-0.099609375,-0.9475708,-0.0076293945,11.703125,6.921875,-0.734375,660
661,1695741821597,-0.12915039,-0.93829346,-0.101135254,4.265625,14.71875,0.75,661
662,1695741821637,-0.015136719,-0.97198486,-0.0051879883,-0.5625,13.5,0.203125,662
663,1695741821677,0.05126953,-1.0733032,-0.09942627,-9.078125,5.984375,0.9375,663
664,1695741821717,0.10449219,-1.0852661,0.08929443,-11.515625,16.96875,-3.890625,664
665,1695741821757,-0.032714844,-0.93951416,0.05316162,4.015625,7.046875,-4.546875,665
666,1695741821797,-0.05053711,-0.9368286,-0.061584473,-18.796875,9.546875,3.84375,666
667,1695741821837,-0.0017089844,-0.90216064,0.050231934,1.703125,9.515625,-2.296875,667
668,1695741821877,-0.055664062,-1.0564575,-0.0413208,0.28125,12.546875,-0.171875,668
669,1695741821917,-0.0007324219,-0.9873657,-0.027160645,-15.0625,18.90625,-1.5625,669
670,1695741821957,-0.020507812,-0.96099854,0.018005371,2.765625,15.546875,0.90625,670
671,1695741821997,-0.025634766,-0.97442627,-0.06500244,-2.609375,16.6875,2.390625,671
672,1695741822037,-0.009277344,-1.0093384,-0.057678223,-0.03125,16.640625,5.453125,672
673,1695741822077,0.0075683594,-1.02594,-0.003479004,2.46875,20.3125,2.640625,673
674,1695741822117,-0.019042969,-1.0100708,-0.062805176,-0.75,21.265625,3.015625,674
675,1695741822157,0.013916016,-0.9873657,-0.086242676,-3.3125,23.671875,6.953125,675
676,1695741822197,0.046875,-0.93170166,-0.027648926,-6.03125,20.203125,5.40625,676
677,1695741822237,-0.017822266,-0.9829712,-0.05303955,1.984375,16.34375,6.796875,677
678,1695741822277,-0.095214844,-1.0022583,-0.16656494,-2.765625,16.296875,7.984375,678
679,1695741822317,-0.017822266,-0.96588135,-0.06964111,-13.84375,23.15625,5.5,679
680,1695741822357,-0.04248047,-1.0254517,-0.08331299,-9.765625,19.34375,2.96875,680
681,1695741822397,-0.008544922,-0.97052,-0.04034424,-8.078125,20.046875,3.421875,681
682,1695741822437,0.020996094,-0.9819946,-0.03326416,-8.3125,23.84375,7.484375,682
683,1695741822477,0.07836914,-1.0227661,-0.07086182,-13.359375,20.1875,9.34375,683
684,1695741822517,0.20019531,-1.0227661,0.08856201,-19.71875,35.84375,12.828125,684
685,1695741822557,0.19921875,-0.97442627,0.18011475,-9.71875,29.140625,9.015625,685
686,1695741822597,0.13549805,-0.8557739,0.1329956,-13.0625,10.53125,7.25,686
687,1695741822637,0.31884766,-0.96417236,0.20843506,-5.671875,18.046875,13.46875,687
688,1695741822677,0.34228516,-1.2124634,0.2694702,-5.015625,8.453125,7.390625,688
689,1695741822717,0.22827148,-1.1780396,0.44281006,-20.890625,25.21875,2.140625,689
690,1695741822757,0.18945312,-0.986145,0.17279053,-11.546875,6.53125,-0.65625,690
691,1695741822797,0.16186523,-0.80181885,0.15301514,-6.8125,15.0,-5.34375,691
692,1695741822837,0.28442383,-0.72003174,0.25994873,-8.109375,19.265625,-5.109375,692
693,1695741822877,0.3154297,-0.8110962,0.34710693,-10.71875,2.46875,4.71875,693
694,1695741822917,0.26757812,-0.8574829,0.28289795,5.140625,-3.671875,10.015625,694
695,1695741822957,0.10058594,-0.91656494,0.25408936,16.28125,8.140625,-1.546875,695
696,1695741822997,-0.07861328,-1.034729,0.09515381,20.171875,4.734375,-4.890625,696
697,1695741823037,0.1027832,-0.8987427,0.07928467,-10.03125,16.359375,2.703125,697
698,1695741823077,0.25512695,-0.8755493,0.355896,-19.6875,27.21875,-1.078125,698
699,1695741823117,0.24609375,-0.927063,0.3390503,18.03125,-0.171875,-5.40625,699
700,1695741823157,0.026855469,-1.0037231,0.17523193,16.03125,6.015625,-8.09375,700
701,1695741823197,-0.15698242,-1.0132446,0.031677246,6.40625,15.375,-8.828125,701
702,1695741823237,0.045898438,-0.97442627,0.18035889,-25.0,37.0,-13.09375,702
703,1695741823277,0.0847168,-1.0408325,0.3678589,7.9375,26.890625,-21.40625,703
704,1695741823317,-0.0041503906,-1.1382446,-0.0064086914,4.8125,4.28125,-11.015625,704
705,1695741823357,0.5800781,-1.553772,-0.10455322,-3.21875,14.421875,21.296875,705
706,1695741823397,0.46191406,-0.909729,0.54559326,-28.390625,51.8125,-20.03125,706
707,1695741823437,0.22973633,-0.64849854,0.045837402,34.578125,-19.109375,-33.078125,707
708,1695741823477,-0.055908203,-0.9067993,-0.3110962,-29.265625,13.984375,-8.875,708
709,1695741823517,0.099853516,-1.1731567,0.10467529,12.078125,6.65625,2.234375,709
710,1695741823557,0.18530273,-0.9299927,0.059753418,6.1875,2.828125,-2.296875,710
711,1695741823597,0.14160156,-0.75860596,0.02532959,-9.109375,1.78125,-3.40625,711
712,1695741823637,-0.03930664,-0.8201294,0.023864746,-3.015625,0.21875,-1.28125,712
713,1695741823677,-0.016357422,-1.0020142,0.046325684,9.84375,-13.578125,9.953125,713
714,1695741823717,0.05444336,-1.0567017,0.093688965,0.390625,-10.453125,11.90625,714
715,1695741823757,0.0126953125,-0.92681885,0.1876831,-0.6875,-11.609375,6.078125,715
716,1695741823797,-0.05810547,-0.96539307,0.082458496,-7.0,-26.8125,6.3125,716
717,1695741823837,0.045898438,-1.0200806,0.08416748,-2.75,-27.234375,8.828125,717
718,1695741823877,0.043945312,-1.1343384,0.0446167,2.78125,-28.078125,4.5,718
719,1695741823917,0.08862305,-1.0791626,0.137146,-7.03125,-19.140625,-0.078125,719
720,1695741823957,0.063964844,-1.062561,0.1083374,0.6875,-36.875,0.140625,720
721,1695741823997,0.21362305,-1.1213989,0.01727295,-0.65625,-41.796875,2.25,721
722,1695741824037,0.37402344,-1.1484985,0.019958496,0.515625,-34.0,6.90625,722
723,1695741824077,0.33544922,-1.0005493,0.070495605,0.5,-28.171875,12.015625,723
724,1695741824117,0.34277344,-0.7974243,0.08392334,2.375,-40.25,5.96875,724
725,1695741824157,0.27172852,-0.75982666,0.18182373,7.875,-30.609375,3.421875,725
726,1695741824197,0.14111328,-0.960022,0.14324951,19.734375,-41.75,3.796875,726
727,1695741824237,0.21484375,-0.9973755,0.13690186,5.59375,-39.53125,9.9375,727
728,1695741824277,0.27563477,-0.8804321,0.2189331,1.859375,-29.546875,0.671875,728
729,1695741824317,0.17675781,-0.722229,0.11151123,12.484375,-28.8125,-2.0625,729
730,1695741824357,0.0637207,-0.8237915,0.20159912,10.703125,-21.34375,3.703125,730
731,1695741824397,-0.020507812,-1.0422974,0.2033081,15.453125,-22.734375,4.5,731
732,1695741824437,-0.004638672,-0.9993286,0.21990967,-14.703125,-7.078125,-11.609375,732
733,1695741824477,0.111816406,-0.79229736,0.2597046,7.3125,-4.546875,-13.65625,733
734,1695741824517,0.21362305,-0.9209595,0.19403076,6.984375,1.71875,-11.25,734
735,1695741824557,0.2199707,-1.031311,0.29388428,6.421875,-10.828125,-12.734375,735
736,1695741824597,-0.12695312,-1.3132935,-0.045715332,25.140625,-29.328125,-12.75,736
737,1695741824637,0.008056641,-1.5232544,-0.14312744,-9.234375,4.125,-3.84375,737
738,1695741824677,0.41455078,-1.0584106,0.4484253,-48.90625,52.890625,-17.421875,738
739,1695741824717,0.13842773,-0.6416626,0.078552246,20.453125,-11.671875,-22.765625,739
740,1695741824757,0.07128906,-0.5762329,-0.25372314,11.765625,-10.5625,-5.875,740
741,1695741824797,0.25024414,-1.03302,-0.16436768,11.53125,-13.546875,20.25,741
742,1695741824837,0.25732422,-1.3630981,0.039245605,-9.15625,11.40625,3.9375,742
743,1695741824877,0.11035156,-0.9155884,0.0524292,-12.796875,-9.234375,-1.8125,743
744,1695741824917,-0.025146484,-0.8101196,0.06072998,0.609375,-7.140625,2.625,744
745,1695741824957,-0.01977539,-0.8948364,-0.04058838,0.453125,-15.75,4.0,745
746,1695741824997,0.08544922,-0.87750244,-0.06964111,9.828125,-29.078125,6.125,746
747,1695741825037,0.20776367,-0.9920044,0.051940918,6.890625,-28.453125,9.6875,747
748,1695741825077,0.15332031,-1.1035767,0.11151123,-14.140625,-21.5,12.1875,748
749,1695741825117,0.11376953,-1.022522,0.08319092,-15.453125,-32.0,18.9375,749
750,1695741825157,0.047851562,-1.0181274,0.016540527,-4.71875,-40.046875,12.78125,750
751,1695741825197,-0.08496094,-1.0012817,-0.00079345703,2.53125,-36.640625,8.546875,751
752,1695741825237,0.103271484,-1.0437622,0.113220215,1.203125,-36.875,10.765625,752
753,1695741825277,0.576416,-1.0916138,0.25750732,0.234375,-16.546875,22.78125,753
754,1695741825317,0.48364258,-0.8945923,0.1461792,-11.328125,-34.859375,32.6875,754
755,1695741825357,0.3798828,-0.86798096,0.1749878,0.96875,-34.0625,25.03125,755
756,1695741825397,0.0021972656,-0.92852783,0.053649902,37.734375,-42.5,16.953125,756
757,1695741825437,0.20214844,-0.98565674,0.036071777,5.25,-24.703125,11.859375,757
758,1695741825477,0.39575195,-0.93170166,0.24798584,-24.21875,-0.890625,16.796875,758
759,1695741825517,0.5654297,-0.76812744,0.25823975,-4.234375,-25.734375,19.15625,759
