,timestamp,accel_x,accel_y,accel_z,gyro_x,gyro_y,gyro_z
0,1695742075775,0.08618164,-0.71051025,-0.10675049,2.609375,-23.65625,5.375
1,1695742075815,0.07495117,-1.0586548,0.007751465,4.296875,0.765625,3.875
2,1695742075856,0.32348633,-1.4277954,0.2555542,-9.65625,0.890625,-5.921875
3,1695742075895,0.18286133,-1.0327759,-0.0049438477,13.390625,-22.578125,-17.546875
4,1695742075935,0.2133789,-0.7732544,-0.12872314,-10.46875,2.5625,-9.171875
5,1695742075975,0.044433594,-0.68341064,0.03778076,1.59375,9.53125,1.515625
6,1695742075995,0.1027832,-1.1607056,-0.11871338,-4.796875,-4.546875,8.703125
7,1695742076035,0.30566406,-1.2005005,0.04119873,-43.375,31.71875,-10.734375
8,1695742076075,0.21777344,-0.9404907,0.3451538,-13.84375,22.90625,-29.5625
9,1695742076115,0.11401367,-0.95758057,0.18841553,41.4375,8.625,-5.90625
10,1695742076155,0.06201172,-1.0894165,-0.016906738,36.765625,-11.921875,3.828125
11,1695742076195,-0.0041503906,-0.7307739,0.08441162,16.25,8.890625,-9.15625
12,1695742076235,0.05883789,-1.1484985,-0.31622314,67.625,7.984375,8.140625
13,1695742076275,0.3293457,-0.81378174,-0.034729004,-30.625,19.921875,-3.734375
14,1695742076315,0.021484375,-0.98687744,-0.34649658,1.46875,15.9375,-2.578125
15,1695742076355,-0.007080078,-0.880188,-0.2029419,-34.75,-4.8125,-10.125
16,1695742076395,-0.06298828,-0.7112427,-0.23736572,-20.828125,-14.578125,1.546875
17,1695742076436,0.29882812,-0.8936157,0.001159668,-28.140625,15.125,22.59375
18,1695742076475,0.15454102,-1.3286743,0.291687,47.8125,7.84375,5.984375
19,1695742076516,-0.111816406,-1.098938,-0.13702393,-10.671875,-18.125,7.46875
20,1695742076556,0.022949219,-0.8245239,-0.11651611,-10.109375,-11.015625,3.390625
21,1695742076596,0.18725586,-0.8323364,-0.06304932,9.8125,-12.59375,4.21875
22,1695742076635,0.26879883,-1.0845337,0.101257324,-10.6875,-5.203125,15.09375
23,1695742076676,0.23486328,-1.0811157,0.11785889,-16.71875,-18.765625,-3.9375
24,1695742076716,0.16455078,-1.2288208,0.010437012,10.390625,-19.21875,5.125
25,1695742076756,0.28979492,-0.8831177,0.062683105,-7.578125,-18.34375,15.65625
26,1695742076797,0.21142578,-0.7329712,0.08905029,13.890625,-37.953125,9.75
27,1695742076837,-0.029541016,-0.82159424,-0.08892822,33.90625,-30.8125,-22.25
28,1695742076876,-0.15698242,-0.9866333,-0.29180908,15.921875,-9.421875,-15.171875
29,1695742076917,0.38842773,-1.3552856,-0.08453369,-87.375,10.8125,27.078125
30,1695742076956,0.49072266,-1.0962524,0.7211304,-21.59375,17.484375,-0.015625
31,1695742076996,0.20410156,-0.8599243,0.074645996,23.6875,-11.625,-20.09375
32,1695742077036,-0.03857422,-0.7564087,-0.1362915,11.234375,10.75,-16.6875
33,1695742077076,0.032470703,-0.88067627,0.05218506,-43.453125,30.171875,8.890625
34,1695742077116,0.40478516,-0.9780884,0.37591553,-63.21875,38.8125,9.953125
35,1695742077156,0.4465332,-0.9348755,0.36663818,4.96875,-2.15625,-2.578125
36,1695742077195,0.2980957,-0.80426025,0.12835693,3.796875,-2.671875,-7.046875
37,1695742077215,0.171875,-0.93048096,0.23797607,-12.328125,23.28125,0.28125
38,1695742077256,0.14624023,-1.1021118,0.24847412,3.0625,15.1875,-0.84375
39,1695742077295,0.05102539,-1.0960083,0.22015381,10.53125,29.859375,16.125
40,1695742077335,0.8996582,-0.8418579,0.2230835,7.375,25.078125,-19.25
41,1695742077376,0.032958984,-0.3718872,0.30023193,28.484375,38.75,-28.375
42,1695742077416,0.07373047,-0.7476196,0.16497803,44.703125,13.8125,23.34375
43,1695742077455,0.09814453,-0.8345337,0.053894043,-2.15625,7.25,22.359375
44,1695742077496,0.3269043,-1.2791138,0.2008667,-27.359375,23.96875,0.828125
45,1695742077536,0.2998047,-0.98272705,0.35247803,-8.78125,27.484375,-26.15625
46,1695742077575,0.35986328,-0.8098755,0.2662964,19.546875,-21.53125,-14.0
47,1695742077616,0.49682617,-1.0908813,0.035827637,48.625,-33.640625,2.78125
48,1695742077656,0.3395996,-1.3682251,-0.269104,77.859375,-21.0,-1.328125
49,1695742077696,0.08959961,-0.9746704,-0.23101807,-4.0,18.890625,-12.328125
50,1695742077736,0.080566406,-0.6958618,0.015075684,-60.8125,33.984375,-11.328125
51,1695742077776,0.07495117,-0.67633057,0.03314209,27.109375,-21.484375,-0.71875
52,1695742077816,0.22509766,-1.3018188,-0.39361572,95.25,-40.71875,15.53125
53,1695742077856,0.21289062,-1.2630005,-0.55718994,-16.734375,19.328125,-13.453125
54,1695742077895,0.2290039,-0.70098877,-0.2432251,-51.8125,11.328125,-20.140625
55,1695742077935,0.20410156,-0.6921997,-0.0051879883,14.1875,-11.5625,-10.828125
56,1695742077976,0.11303711,-0.91485596,-0.2539673,35.734375,-27.421875,4.78125
57,1695742078016,-0.018310547,-1.0681763,-0.4373169,-20.546875,-18.703125,-7.59375
58,1695742078056,0.118652344,-0.9277954,-0.19000244,-6.78125,-16.90625,-15.578125
59,1695742078095,0.024658203,-0.93951416,-0.20611572,6.65625,-20.828125,-15.671875
60,1695742078136,0.14208984,-0.86724854,-0.22003174,-24.125,-14.9375,-2.234375
61,1695742078179,0.15161133,-0.9902954,-0.17730713,-18.078125,-27.359375,-2.265625
62,1695742078216,0.052246094,-0.93341064,-0.085998535,-11.84375,-7.296875,-12.71875
63,1695742078256,-0.031982422,-1.0161743,-0.10797119,-4.359375,-2.328125,-10.5625
64,1695742078296,-0.038085938,-0.9463501,-0.054016113,16.703125,-7.0,-1.171875
65,1695742078336,0.10205078,-0.9031372,-0.101135254,22.609375,-27.765625,3.921875
66,1695742078376,0.041748047,-0.9788208,-0.15484619,-8.15625,-20.671875,-4.984375
67,1695742078416,0.09423828,-0.94781494,-0.13189697,-0.84375,-18.203125,-3.671875
68,1695742078456,0.032226562,-1.0213013,-0.039855957,-6.0,-28.546875,1.65625
69,1695742078476,-0.032226562,-1.0349731,-0.09112549,8.046875,-26.15625,-6.46875
70,1695742078516,-0.060546875,-0.93756104,-0.18267822,-1.96875,-27.328125,-2.5625
71,1695742078556,0.0041503906,-0.9085083,-0.13018799,-6.796875,-28.03125,-4.953125
72,1695742078595,0.06665039,-1.0332642,-0.07965088,-9.25,-21.5625,0.890625
73,1695742078636,0.17529297,-1.0239868,0.014343262,-14.453125,-24.609375,6.03125
74,1695742078675,0.079589844,-1.0083618,-0.09918213,-11.625,-25.921875,5.265625
75,1695742078716,-0.096191406,-1.0801392,-0.037902832,5.109375,-18.28125,10.171875
76,1695742078756,-0.28833008,-1.1401978,-0.026916504,-13.609375,-23.96875,-1.078125
77,1695742078796,0.07788086,-0.8049927,-0.035949707,-5.140625,-20.15625,9.625
78,1695742078835,0.54174805,-1.0151978,0.06048584,-7.515625,-15.96875,11.84375
79,1695742078876,0.43164062,-0.99713135,0.27044678,-18.03125,-6.984375,-5.21875
80,1695742078916,-0.08959961,-0.8587036,-0.04840088,3.265625,-24.078125,-5.3125
81,1695742078956,-0.05029297,-0.9949341,-0.10406494,26.09375,-17.109375,5.140625
82,1695742078996,0.1953125,-1.3291626,0.23944092,0.46875,19.09375,27.546875
83,1695742079035,0.28442383,-0.8115845,-0.09698486,-11.71875,-0.4375,0.03125
84,1695742079076,0.32104492,-0.7979126,0.06341553,-5.453125,4.21875,-1.09375
85,1695742079116,0.234375,-0.91119385,0.06121826,-3.234375,-22.671875,0.484375
86,1695742079157,0.08544922,-0.8953247,0.0036010742,-20.328125,-27.984375,-3.34375
87,1695742079198,0.19116211,-0.9151001,0.14788818,-29.3125,-17.359375,-7.265625
88,1695742079235,0.26049805,-1.0210571,0.37713623,7.0,11.265625,-1.046875
89,1695742079276,0.3083496,-1.0261841,0.20526123,-0.515625,-15.96875,5.40625
90,1695742079317,0.21923828,-0.88531494,0.16937256,-9.546875,-20.046875,2.921875
91,1695742079357,0.24121094,-0.97662354,0.10614014,-1.8125,-6.28125,4.40625
92,1695742079396,0.19262695,-0.9500122,0.17230225,-12.296875,3.359375,4.109375
93,1695742079436,0.21728516,-1.0210571,0.3908081,-9.328125,1.5625,2.890625
94,1695742079476,0.13427734,-0.9385376,0.14471436,2.625,-4.1875,-0.15625
95,1695742079517,0.2607422,-0.7966919,0.322937,-6.609375,17.421875,-6.5625
96,1695742079556,0.087890625,-0.9204712,0.33148193,20.859375,9.59375,3.34375
97,1695742079596,0.22583008,-0.9614868,0.13079834,24.25,-17.703125,3.375
98,1695742079636,0.053466797,-0.94610596,0.05682373,0.046875,5.453125,-9.328125
99,1695742079676,0.11450195,-0.9194946,0.23138428,-18.84375,14.734375,-11.875
100,1695742079695,0.040039062,-1.0176392,0.18817139,10.359375,5.375,-13.15625
101,1695742079736,0.26220703,-1.2896118,0.082458496,-9.21875,9.078125,5.125
102,1695742079776,0.51904297,-1.0950317,0.30389404,-11.765625,10.90625,-2.59375
103,1695742079816,0.27539062,-0.8110962,0.24578857,16.1875,0.15625,-16.296875
104,1695742079856,0.020751953,-0.7024536,-0.011779785,26.09375,-8.0625,-19.328125
105,1695742079896,-0.0146484375,-0.87457275,-0.175354,16.65625,-5.421875,2.625
106,1695742079936,0.26757812,-1.1499634,-0.005432129,-27.65625,7.71875,16.25
107,1695742079975,0.44018555,-1.197815,0.17132568,-29.65625,14.984375,6.203125
108,1695742080016,0.23510742,-0.94854736,0.18255615,10.4375,-1.046875,-7.5
109,1695742080056,0.21728516,-0.7234497,0.054626465,0.5625,-5.5625,-9.453125
110,1695742080096,0.045898438,-0.8897095,0.13543701,11.734375,-18.921875,-5.734375
111,1695742080136,-0.07739258,-1.1199341,-0.007385254,48.828125,-11.734375,0.375
112,1695742080176,0.15942383,-1.0349731,-0.17803955,9.8125,-22.484375,-1.1875
113,1695742080216,0.2475586,-0.89312744,-0.046447754,-22.28125,-8.90625,-7.265625
114,1695742080255,0.118896484,-1.1370239,0.08392334,-16.625,7.640625,4.484375
115,1695742080296,0.059814453,-0.97613525,0.20037842,-1.859375,-25.453125,-9.609375
116,1695742080336,0.036132812,-0.95147705,-0.07281494,-9.765625,-20.0,2.234375
117,1695742080375,0.076416016,-0.99420166,0.010437012,2.84375,-22.109375,1.703125
118,1695742080416,0.09716797,-0.960022,0.046569824,-8.78125,-13.21875,-3.640625
119,1695742080457,0.096191406,-0.98760986,0.097839355,-12.484375,-13.46875,-2.1875
120,1695742080496,0.033935547,-1.0874634,0.059020996,5.140625,-23.328125,4.625
121,1695742080536,0.060546875,-1.000061,0.06536865,0.9375,-23.5,3.1875
122,1695742080576,0.079833984,-0.9446411,0.028503418,7.6875,-18.40625,3.296875
123,1695742080616,0.20898438,-0.925354,0.024108887,12.765625,-29.328125,-5.0625
124,1695742080655,-0.025390625,-1.0108032,-0.02520752,7.375,-32.25,5.203125
125,1695742080696,-0.1850586,-1.0562134,0.06512451,-25.484375,-22.5625,-7.671875
126,1695742080736,0.10107422,-1.0530396,0.1293335,-24.65625,-18.359375,-8.40625
127,1695742080775,0.20507812,-1.0200806,0.41619873,8.6875,4.28125,2.15625
128,1695742080816,0.19921875,-0.82769775,0.15985107,17.578125,-48.578125,0.5
129,1695742080856,0.14135742,-0.84454346,-0.016662598,26.71875,-32.484375,3.34375
130,1695742080896,0.01977539,-1.005188,0.018737793,-26.171875,-3.265625,7.421875
131,1695742080916,0.18969727,-0.9783325,0.50335693,-11.6875,-19.265625,8.0
132,1695742080955,0.07885742,-1.053772,0.12615967,-1.546875,-30.3125,9.1875
133,1695742080997,0.15405273,-1.0029907,0.2904663,-9.875,-17.390625,11.03125
134,1695742081036,0.16699219,-0.9573364,0.24432373,-2.5,-18.015625,6.25
135,1695742081075,0.21313477,-0.9314575,0.30706787,1.078125,-15.65625,5.1875
136,1695742081116,0.19604492,-0.9500122,0.22528076,0.65625,-20.625,6.078125
137,1695742081156,0.15014648,-0.960022,0.23284912,-6.328125,-22.609375,9.078125
138,1695742081196,0.18237305,-0.9685669,0.21942139,6.59375,-27.84375,8.34375
139,1695742081236,0.20703125,-0.90631104,0.13397217,7.984375,-28.96875,6.15625
140,1695742081276,0.15454102,-0.99664307,0.33026123,10.109375,-15.125,8.5625
141,1695742081315,0.18920898,-0.9627075,0.21917725,2.515625,-28.96875,7.984375
142,1695742081357,0.15454102,-0.9072876,0.21575928,-10.296875,-7.578125,9.953125
143,1695742081395,0.28149414,-0.9859009,0.3439331,4.890625,-4.390625,-3.390625
144,1695742081436,0.18530273,-1.0159302,0.38909912,24.578125,-8.25,-3.234375
145,1695742081475,0.10058594,-0.90509033,0.2086792,25.359375,-27.125,-0.828125
146,1695742081517,0.037841797,-0.90093994,0.19525146,-42.8125,0.0625,7.625
147,1695742081556,0.30688477,-0.927063,0.39520264,5.84375,-6.6875,-7.65625
148,1695742081596,0.19335938,-0.97540283,0.27264404,4.703125,-15.53125,-9.296875
149,1695742081636,0.20361328,-0.9451294,0.24920654,-4.625,-9.59375,-3.09375
150,1695742081675,0.26391602,-0.94366455,0.2929077,2.03125,-8.28125,-0.28125
151,1695742081716,0.20288086,-0.92926025,0.29852295,-1.921875,-9.359375,-1.53125
152,1695742081757,0.14770508,-0.97784424,0.230896,3.84375,-16.15625,-4.5
153,1695742081796,0.17578125,-1.0588989,0.12054443,10.1875,-23.859375,-1.765625
154,1695742081836,0.21020508,-0.95269775,0.15667725,18.78125,-15.953125,2.796875
155,1695742081875,0.24853516,-0.897522,0.22015381,8.0,-7.625,4.515625
156,1695742081916,0.061279297,-0.90216064,0.16815186,6.5,-22.8125,5.328125
157,1695742081955,-0.029052734,-0.91241455,0.2033081,-9.234375,-0.578125,11.5625
158,1695742081996,0.2175293,-1.050354,0.26385498,-5.34375,-6.921875,-2.484375
159,1695742082036,0.20043945,-1.1409302,0.3234253,15.296875,2.171875,-9.46875
160,1695742082076,0.07446289,-0.9470825,0.1486206,26.015625,-12.953125,-6.875
161,1695742082136,0.011230469,-0.89971924,-0.01739502,7.015625,-15.140625,-0.515625
162,1695742082155,0.18457031,-0.87579346,0.13470459,-14.046875,5.390625,2.96875
163,1695742082175,0.17529297,-0.9932251,0.26654053,5.359375,-8.625,-7.765625
164,1695742082216,0.087402344,-1.0349731,0.12176514,1.921875,-18.25,-3.90625
165,1695742082255,0.057373047,-0.991272,0.11834717,-2.390625,-6.8125,-4.421875
166,1695742082295,0.1171875,-0.9717407,0.1437378,0.5,-3.1875,-10.84375
167,1695742082335,0.052001953,-1.008606,0.105163574,13.984375,-11.90625,-3.65625
168,1695742082376,0.043945312,-1.00177,0.039978027,1.484375,-6.59375,-2.328125
169,1695742082416,0.1315918,-0.9780884,0.1473999,-4.234375,4.125,-0.09375
170,1695742082456,0.06225586,-0.95025635,0.06097412,9.515625,-1.53125,0.40625
171,1695742082496,0.109375,-1.0303345,0.10369873,5.28125,-0.703125,3.34375
172,1695742082536,-0.06982422,-0.9673462,0.074157715,-8.609375,-8.640625,1.265625
173,1695742082576,0.076416016,-0.95391846,0.09637451,-7.21875,4.96875,-1.8125
174,1695742082615,0.13574219,-1.029602,0.13909912,0.21875,9.109375,-11.125
175,1695742082656,0.07446289,-1.048645,0.20062256,16.125,7.4375,-3.171875
176,1695742082696,0.026855469,-1.0029907,0.0016479492,20.515625,-12.28125,1.328125
177,1695742082735,-0.043945312,-0.9924927,-0.0256958,-4.390625,-2.625,-2.5
178,1695742082775,0.03466797,-0.94195557,0.10491943,-1.703125,7.140625,-4.140625
179,1695742082816,0.032470703,-1.0037231,0.09051514,9.3125,-11.359375,-4.25
180,1695742082856,0.028320312,-1.0210571,-0.022277832,0.0625,-8.828125,2.84375
181,1695742082896,0.08618164,-1.0029907,0.10321045,-14.34375,1.609375,-1.1875
182,1695742082936,0.025878906,-0.9902954,0.1071167,12.140625,-12.828125,-5.421875
183,1695742082976,-0.041259766,-0.9866333,-0.05230713,11.15625,-10.28125,-3.890625
184,1695742083015,0.026367188,-0.972229,-0.041809082,-15.6875,0.828125,4.859375
185,1695742083056,0.08984375,-1.0098267,0.16448975,-8.25,-3.859375,4.515625
186,1695742083096,0.041503906,-1.02594,0.0048217773,-0.1875,-19.65625,-1.15625
187,1695742083135,0.033691406,-0.9668579,0.024841309,-23.984375,1.515625,1.3125
188,1695742083176,0.032958984,-0.9951782,0.16546631,-5.828125,2.171875,-4.640625
189,1695742083217,0.017089844,-1.0640259,0.21038818,8.28125,-3.75,1.5625
190,1695742083256,-0.012207031,-1.0032349,0.06121826,19.0625,-12.96875,0.921875
191,1695742083299,-0.041503906,-0.99298096,-0.018859863,9.703125,-13.421875,-1.59375
192,1695742083336,0.056396484,-0.91363525,0.031188965,-17.828125,1.203125,1.90625
193,1695742083375,0.07446289,-0.9841919,0.21673584,-10.234375,-4.953125,-1.53125
194,1695742083396,0.0126953125,-1.041565,0.097839355,6.875,-13.390625,-3.046875
195,1695742083436,-0.0073242188,-1.0166626,0.04827881,-8.96875,-4.453125,0.765625
196,1695742083476,0.08642578,-0.93218994,0.15203857,-11.0,-2.046875,0.34375
197,1695742083516,0.068603516,-0.9951782,0.16400146,3.5,-7.515625,-0.578125
198,1695742083556,0.025878906,-1.0230103,0.059020996,3.296875,-4.0,-0.078125
199,1695742083597,0.06518555,-1.000061,0.09222412,-10.03125,-3.40625,-1.109375
200,1695742083635,0.056152344,-0.8987427,0.0848999,-7.234375,11.3125,21.875
201,1695742083675,0.19873047,-0.9656372,0.4244995,-11.0,19.078125,7.84375
202,1695742083716,0.10571289,-1.1738892,0.28167725,22.515625,-15.203125,-5.484375
203,1695742083756,-0.0031738281,-0.9963989,0.054870605,47.5625,3.953125,-2.859375
204,1695742083797,0.07128906,-0.80963135,-0.013244629,5.125,-18.046875,8.75
205,1695742083836,0.115722656,-0.84698486,0.054870605,-19.96875,-2.34375,6.734375
206,1695742083876,0.25952148,-1.0691528,0.25653076,-18.578125,24.609375,11.78125
207,1695742083916,0.2548828,-1.4717407,0.57806396,64.765625,36.0,25.265625
208,1695742083956,0.14624023,-1.000061,-0.3418579,0.25,-0.953125,-4.296875
209,1695742083996,-0.08154297,-0.35162354,-0.20123291,-26.4375,-3.71875,-20.4375
210,1695742084036,0.13208008,-0.8257446,0.08782959,-6.046875,9.578125,11.296875
211,1695742084075,0.16088867,-1.1228638,0.054626465,-27.359375,-24.265625,-5.234375
212,1695742084116,0.2290039,-1.0076294,0.055603027,-29.875,-22.28125,0.109375
213,1695742084156,0.0871582,-0.98443604,0.24041748,3.859375,6.59375,3.6875
214,1695742084196,0.2253418,-1.0745239,0.21234131,-2.4375,-14.96875,-0.34375
215,1695742084235,-0.033447266,-0.9314575,0.030944824,11.96875,-16.078125,-0.890625
216,1695742084275,0.13671875,-0.87384033,0.058044434,-29.921875,19.453125,11.78125
217,1695742084315,0.38549805,-0.9702759,0.42523193,-25.078125,13.015625,4.484375
218,1695742084356,0.059326172,-1.1013794,0.3143921,38.03125,-4.796875,-7.875
219,1695742084395,-0.021484375,-1.0435181,-0.013977051,42.046875,-25.578125,-3.40625
220,1695742084435,0.032714844,-0.79473877,-0.1404419,0.984375,-15.375,-2.765625
221,1695742084475,0.23583984,-0.8987427,0.044128418,-64.578125,27.34375,13.78125
222,1695742084516,0.2319336,-1.1091919,0.46136475,3.34375,-10.75,-8.21875
223,1695742084557,0.039794922,-1.06427,0.12176514,25.3125,-24.125,-8.09375
224,1695742084618,0.052246094,-1.0039673,-0.062561035,-3.453125,-5.203125,-6.015625
225,1695742084626,0.1015625,-0.8843384,0.11883545,-35.59375,15.609375,-7.078125
226,1695742084655,0.12182617,-0.92022705,0.31195068,4.6875,-1.796875,-8.84375
227,1695742084697,0.052978516,-1.078186,0.10223389,1.734375,-5.46875,-1.03125
228,1695742084736,0.15356445,-0.9812622,0.1461792,-13.921875,11.625,-1.484375
229,1695742084777,0.029541016,-0.98809814,0.25335693,-0.03125,4.921875,-0.875
230,1695742084816,0.1352539,-0.8977661,0.14813232,-6.125,-0.375,-19.5625
231,1695742084857,0.0078125,-1.0007935,0.30950928,7.328125,7.5625,-10.46875
232,1695742084895,-0.025390625,-1.0493774,0.18060303,13.78125,-3.484375,-4.34375
233,1695742084938,0.08325195,-0.97979736,0.11004639,0.90625,-7.65625,0.203125
234,1695742084976,0.09277344,-0.92022705,0.22039795,-11.90625,3.234375,-9.203125
235,1695742085016,0.029785156,-1.0066528,0.2506714,-0.828125,-0.484375,0.15625
236,1695742085055,-0.008544922,-1.0298462,0.15863037,-9.890625,-4.3125,2.75
237,1695742085096,0.10424805,-1.060852,0.21258545,-9.875,15.71875,-2.34375
238,1695742085137,0.13476562,-0.98394775,0.25701904,8.171875,0.15625,-5.234375
239,1695742085176,0.049560547,-0.9158325,0.16400146,5.9375,1.25,-1.03125
240,1695742085216,0.053222656,-0.93927,0.17401123,-5.703125,1.5,5.421875
241,1695742085256,0.08105469,-1.0078735,0.17156982,4.015625,-1.203125,0.9375
242,1695742085295,0.06616211,-1.005188,0.1383667,-0.546875,6.46875,2.125
243,1695742085335,0.07128906,-0.93829346,0.1864624,-7.34375,8.046875,0.0625
244,1695742085376,0.063964844,-0.9585571,0.15838623,0.578125,1.421875,8.078125
245,1695742085415,0.079833984,-1.0291138,0.21502686,-13.953125,16.28125,6.8125
246,1695742085456,0.14526367,-0.9607544,0.2999878,1.0625,-1.171875,-14.890625
247,1695742085495,0.026123047,-1.0042114,0.1876831,19.609375,10.109375,-2.0625
248,1695742085536,0.00048828125,-0.96539307,0.18231201,11.390625,6.515625,5.953125
249,1695742085575,0.029785156,-1.003479,0.117614746,10.828125,-10.890625,2.828125
250,1695742085621,0.024902344,-1.0095825,0.11126709,-5.203125,5.1875,-5.078125
251,1695742085655,0.047607422,-0.95098877,0.19866943,-13.4375,0.3125,-0.03125
252,1695742085695,0.08154297,-0.95977783,0.17523193,-3.0,-9.28125,4.890625
253,1695742085735,0.10522461,-1.0071411,0.09124756,-3.8125,1.53125,2.265625
254,1695742085775,0.12207031,-1.0474243,0.20599365,-2.859375,7.703125,2.53125
255,1695742085815,0.07446289,-0.98321533,0.16448975,11.890625,-3.75,-4.125
256,1695742085835,0.076416016,-0.9248657,0.074401855,0.546875,0.390625,4.03125
257,1695742085874,0.1081543,-0.92974854,0.07269287,10.359375,5.265625,2.234375
258,1695742085915,0.123046875,-0.99884033,0.14031982,-21.0625,13.578125,17.28125
259,1695742085955,0.064208984,-1.0298462,0.28094482,-10.671875,10.671875,4.671875
260,1695742085995,0.1262207,-0.9639282,0.18743896,8.1875,-10.796875,-12.84375
261,1695742086035,0.052490234,-1.0278931,0.21795654,16.5,9.15625,-9.515625
262,1695742086076,0.041015625,-0.8977661,0.13104248,17.21875,-7.90625,1.359375
263,1695742086116,0.012939453,-1.0183716,0.050964355,15.359375,-19.4375,-0.203125
264,1695742086156,0.014892578,-1.03302,0.028259277,-15.828125,7.953125,-5.140625
265,1695742086197,0.07128906,-0.93878174,0.18865967,-35.0,8.390625,-1.421875
266,1695742086236,0.05126953,-0.9607544,0.2098999,8.4375,-14.9375,-0.59375
267,1695742086276,0.084228516,-1.013977,0.09710693,6.46875,-4.90625,2.75
268,1695742086316,0.099609375,-1.0396118,0.16693115,-12.015625,1.125,-3.53125
269,1695742086355,0.04663086,-0.98272705,0.15814209,-2.8125,2.09375,-5.296875
270,1695742086395,0.08178711,-0.9890747,0.13787842,3.046875,2.671875,0.5625
271,1695742086437,0.08666992,-0.9199829,0.08758545,4.953125,-0.515625,1.640625
272,1695742086477,0.11767578,-0.94976807,0.05999756,15.734375,3.921875,2.484375
273,1695742086515,0.076660156,-1.0889282,0.19598389,-20.859375,10.375,12.9375
274,1695742086557,-0.010253906,-0.87872314,0.26800537,4.203125,-6.625,4.3125
275,1695742086596,0.09326172,-0.991272,0.019470215,7.78125,-3.9375,-0.8125
276,1695742086637,0.18798828,-1.0110474,0.27142334,-20.140625,26.296875,-6.21875
277,1695742086677,0.084472656,-1.013977,0.27581787,23.3125,-19.171875,-5.453125
278,1695742086715,-0.0234375,-0.99835205,-0.010314941,30.09375,-17.875,-2.65625
279,1695742086755,0.039794922,-1.0054321,-0.01739502,-19.140625,4.09375,-3.453125
280,1695742086799,0.11791992,-0.8609009,0.24139404,-26.265625,11.984375,-3.421875
281,1695742086836,0.07446289,-1.0171509,0.19598389,3.015625,-8.03125,-0.046875
282,1695742086876,0.06689453,-1.024231,0.08294678,-7.78125,-6.640625,-0.1875
283,1695742086916,0.13549805,-1.0132446,0.22625732,-3.21875,0.65625,1.078125
284,1695742086956,0.060058594,-0.98638916,0.15203857,-0.828125,2.84375,-4.65625
285,1695742086996,0.056152344,-0.9536743,0.11248779,-5.71875,-1.84375,-0.71875
286,1695742087035,0.08227539,-0.96466064,0.14447021,1.0,-1.109375,0.125
287,1695742087076,0.10058594,-0.99713135,0.09710693,7.59375,-8.6875,2.40625
288,1695742087097,0.1850586,-0.9446411,0.19915771,-2.3125,-0.71875,7.5
289,1695742087136,-0.034179688,-0.9800415,0.22357178,-7.859375,-11.625,-1.09375
290,1695742087175,-0.0126953125,-0.9932251,0.062683105,1.484375,-10.0,0.609375
291,1695742087215,0.1809082,-1.0230103,0.15545654,-17.03125,20.375,2.15625
292,1695742087255,0.14282227,-1.0149536,0.36639404,13.375,1.28125,-8.0625
293,1695742087296,-0.010253906,-0.9998169,0.109802246,26.828125,-12.359375,0.9375
294,1695742087336,-0.021484375,-0.9763794,0.0028686523,1.296875,-2.3125,-1.59375
295,1695742087377,0.12670898,-0.93707275,0.1918335,-23.125,5.984375,-0.03125
296,1695742087416,0.11254883,-0.9685669,0.22576904,-0.65625,-5.140625,-2.546875
297,1695742087456,0.052001953,-1.020813,0.10003662,-3.546875,-3.296875,-0.421875
298,1695742087517,0.080322266,-0.9829712,0.19256592,-1.984375,0.28125,1.125
299,1695742087535,0.06225586,-0.99713135,0.19598389,7.671875,-5.921875,-1.65625
300,1695742087596,0.049072266,-0.9734497,0.070739746,-3.578125,-2.890625,-0.65625
301,1695742087616,0.09765625,-0.9717407,0.16986084,-4.984375,5.296875,1.125
302,1695742087656,0.11694336,-0.9783325,0.07537842,12.8125,-5.671875,0.28125
303,1695742087698,0.0637207,-1.0325317,0.055847168,-11.96875,10.796875,10.0
304,1695742087736,0.08251953,-0.8640747,0.3595581,-26.09375,17.359375,8.09375
305,1695742087776,0.051513672,-1.031311,0.14642334,8.546875,-14.71875,-0.28125
306,1695742087816,0.15112305,-1.0737915,0.20941162,-8.453125,24.296875,-4.859375
307,1695742087856,0.076660156,-1.0252075,0.30706787,19.015625,-5.15625,-7.46875
308,1695742087895,0.010253906,-0.9043579,0.047790527,31.59375,-15.28125,-2.109375
309,1695742087936,0.083496094,-0.9624634,-0.04034424,-12.59375,8.875,2.984375
310,1695742087976,0.14160156,-0.94659424,0.31365967,-27.796875,17.9375,-0.140625
311,1695742088016,0.052246094,-1.0586548,0.19647217,14.03125,-14.1875,-0.515625
312,1695742088055,0.05810547,-1.0134888,0.044128418,6.25,-7.625,-0.328125
313,1695742088095,0.12036133,-0.9492798,0.17840576,-18.421875,11.9375,1.609375
314,1695742088136,0.107421875,-1.0073853,0.2453003,9.09375,-9.796875,-6.453125
315,1695742088175,0.07055664,-0.97320557,0.13006592,-12.734375,2.203125,-0.4375
316,1695742088216,0.10595703,-0.9522095,0.06512451,5.671875,-2.765625,-0.375
317,1695742088255,0.08618164,-0.99664307,0.12225342,7.71875,-1.78125,5.5625
318,1695742088295,0.15014648,-0.93878174,0.2098999,-13.078125,8.125,9.203125
319,1695742088315,0.056396484,-1.0454712,0.16546631,3.96875,-2.671875,5.078125
320,1695742088355,0.13647461,-0.94122314,0.12542725,-5.859375,8.71875,-4.140625
321,1695742088395,0.15600586,-1.0518188,0.31878662,-2.53125,16.78125,-6.78125
322,1695742088437,0.008300781,-0.9348755,0.15667725,27.234375,-16.265625,-2.59375
323,1695742088475,0.020507812,-1.0293579,-0.035461426,5.65625,-2.796875,-1.828125
324,1695742088516,0.13110352,-0.9487915,0.15057373,-22.640625,13.6875,-0.25
325,1695742088556,0.15112305,-0.94610596,0.23699951,4.5625,-5.09375,-1.484375
326,1695742088596,0.06616211,-1.0105591,0.057556152,7.859375,-4.890625,-1.828125
327,1695742088636,0.076416016,-0.97906494,0.15423584,-12.40625,4.546875,-0.296875
328,1695742088676,0.06982422,-1.0122681,0.21160889,5.75,-4.96875,-1.953125
329,1695742088716,0.051513672,-1.024231,0.058532715,-1.234375,-2.953125,-3.796875
330,1695742088755,0.09082031,-0.94537354,0.109558105,-5.890625,-5.203125,-2.4375
331,1695742088795,0.122558594,-0.98638916,0.109802246,-0.9375,7.078125,1.59375
332,1695742088836,0.13134766,-1.0088501,0.22235107,-11.46875,3.46875,-1.25
333,1695742088876,-0.060546875,-0.9800415,0.1395874,1.453125,-15.390625,-3.609375
334,1695742088916,0.063964844,-0.9163208,0.1449585,-13.390625,1.875,-1.203125
335,1695742088955,0.1809082,-1.0029907,0.22479248,-8.453125,2.578125,-1.484375
336,1695742088995,0.07788086,-1.022522,0.21697998,3.96875,-6.96875,-2.03125
337,1695742089035,0.01953125,-0.9939575,0.11419678,-0.015625,-0.0625,-0.71875
338,1695742089076,0.075683594,-0.9529419,0.20404053,-1.796875,2.46875,-1.453125
339,1695742089116,0.048828125,-0.9661255,0.15765381,6.375,-3.71875,-0.96875
340,1695742089156,0.06982422,-0.99176025,0.16571045,-4.140625,-0.5625,1.875
341,1695742089195,0.06982422,-0.9949341,0.19329834,-0.015625,0.578125,1.5
342,1695742089235,0.06665039,-0.9907837,0.18865967,0.75,-3.53125,-0.765625
343,1695742089275,0.045166016,-0.97320557,0.1383667,0.125,-0.984375,-0.078125
344,1695742089316,0.0034179688,-0.8965454,0.25726318,23.21875,6.1875,6.015625
345,1695742089356,0.3491211,-1.5564575,0.2699585,29.984375,39.859375,21.359375
346,1695742089396,0.01586914,-0.725647,-0.07354736,-11.296875,-22.640625,-11.578125
347,1695742089436,0.076171875,-0.93536377,0.0602417,5.125,3.671875,-7.90625
348,1695742089477,0.13671875,-0.92803955,0.18157959,-12.8125,-0.375,4.765625
349,1695742089536,0.13867188,-1.0054321,0.046081543,-21.828125,-10.890625,-5.171875
350,1695742089556,0.09423828,-0.97076416,0.15057373,-12.453125,-2.40625,-2.328125
351,1695742089575,0.04638672,-1.0025024,0.2374878,-5.4375,2.8125,1.625
352,1695742089657,0.072265625,-0.99713135,0.1930542,-9.890625,-10.03125,2.25
353,1695742089659,0.091552734,-0.95880127,0.15106201,-12.3125,9.1875,-1.3125
354,1695742089697,0.1550293,-0.98321533,0.32196045,3.1875,16.53125,0.046875
355,1695742089736,0.096191406,-1.0183716,0.25823975,17.453125,-10.78125,3.46875
356,1695742089776,-0.0024414062,-1.0491333,0.08465576,10.015625,-12.328125,3.28125
357,1695742089816,0.06567383,-0.87579346,0.11395264,-11.6875,1.109375,-1.984375
358,1695742089856,0.20507812,-0.93951416,0.28167725,-10.21875,7.765625,-0.3125
359,1695742089896,0.09399414,-1.0584106,0.1473999,0.796875,-11.5,-0.484375
360,1695742089936,0.1315918,-1.0310669,0.11810303,-15.84375,2.53125,-0.328125
361,1695742089976,0.15576172,-0.8779907,0.29364014,-9.6875,6.40625,2.890625
362,1695742090015,-0.00390625,-1.0703735,0.18231201,10.4375,9.96875,6.53125
363,1695742090056,0.1508789,-0.86798096,0.25701904,-14.40625,7.078125,4.46875
364,1695742090096,0.21972656,-1.0408325,0.3703003,15.78125,-2.96875,-7.1875
365,1695742090136,0.044921875,-0.99224854,0.17376709,24.03125,-10.859375,-4.84375
366,1695742090176,-0.010986328,-0.98101807,0.06976318,3.390625,-17.546875,-4.390625
367,1695742090216,0.06225586,-0.85235596,0.045837402,-12.921875,4.875,0.390625
368,1695742090256,0.24926758,-1.0703735,0.35614014,-24.4375,22.140625,3.125
369,1695742090296,0.13671875,-1.0029907,0.24725342,7.359375,-21.890625,-5.875
370,1695742090336,0.05419922,-1.0154419,0.117370605,-3.515625,-3.390625,-0.265625
371,1695742090376,0.0847168,-0.8994751,0.19500732,-9.921875,0.609375,-3.265625
372,1695742090415,0.088378906,-0.95440674,0.19940186,-2.9375,-0.140625,-1.890625
373,1695742090456,-0.0034179688,-1.0271606,0.13226318,-4.234375,6.359375,6.578125
374,1695742090496,0.2121582,-0.96417236,0.4315796,-10.734375,19.0625,9.3125
375,1695742090535,0.14086914,-0.9898071,0.23553467,13.453125,-16.8125,-10.15625
376,1695742090576,0.09692383,-0.8965454,0.15985107,3.859375,7.03125,-8.3125
377,1695742090616,-0.0146484375,-1.0088501,0.27508545,12.53125,1.203125,-0.5625
378,1695742090656,0.029785156,-1.0256958,0.08416748,14.34375,-8.890625,5.171875
379,1695742090696,0.1105957,-0.93756104,0.13861084,-14.578125,6.484375,-2.796875
380,1695742090736,0.1381836,-0.96466064,0.3204956,-1.53125,9.625,-1.765625
381,1695742090756,0.0715332,-0.9697876,0.20184326,1.734375,-8.6875,1.421875
382,1695742090796,0.091552734,-1.0213013,0.1552124,-6.0625,-1.484375,-0.453125
383,1695742090837,0.119628906,-0.96466064,0.17156982,-7.40625,1.578125,-1.71875
384,1695742090876,0.036865234,-0.99224854,0.1005249,-1.96875,-1.265625,-2.1875
385,1695742090916,0.18334961,-0.81256104,0.29534912,-19.3125,26.03125,9.65625
386,1695742090957,0.2529297,-1.1152954,0.32781982,10.953125,-2.390625,3.265625
387,1695742090996,0.00390625,-1.0046997,0.23577881,28.125,-6.078125,-13.625
388,1695742091037,-0.03930664,-0.9883423,0.032409668,13.140625,-7.328125,-6.578125
389,1695742091076,0.03564453,-0.8257446,0.07733154,-14.171875,1.609375,9.28125
390,1695742091116,0.22998047,-1.0430298,0.24822998,-14.796875,14.59375,7.1875
391,1695742091156,0.16748047,-1.0361938,0.29266357,6.734375,-10.1875,-4.75
392,1695742091196,0.06762695,-0.9807739,0.12347412,11.375,-8.703125,-4.875
393,1695742091235,0.032226562,-0.93707275,0.08319092,-6.890625,0.859375,-0.953125
394,1695742091276,0.10180664,-0.954895,0.19744873,-2.421875,5.1875,1.484375
395,1695742091316,0.1315918,-1.0542603,0.16448975,0.03125,-1.0,2.34375
396,1695742091356,0.12719727,-0.91241455,0.1605835,-4.59375,-1.421875,-4.8125
397,1695742091400,0.05517578,-1.06427,0.15570068,-11.5625,9.265625,10.140625
398,1695742091436,0.10986328,-0.93096924,0.27752686,-4.984375,5.8125,-2.4375
399,1695742091475,0.16210938,-0.97613525,0.21258545,8.90625,-2.546875,-13.796875
400,1695742091516,-0.057128906,-0.9614868,0.16131592,16.09375,3.796875,-4.75
401,1695742091556,0.055908203,-1.0374146,0.12298584,1.5,0.125,11.625
402,1695742091595,0.12670898,-0.9155884,0.15814209,-3.921875,-7.75,-2.265625
403,1695742091636,0.11767578,-0.98883057,0.17376709,-3.8125,7.5625,-4.9375
404,1695742091675,0.052734375,-0.9819946,0.23651123,-0.1875,-5.625,-0.421875
405,1695742091716,0.01977539,-0.9793091,0.11663818,8.921875,-15.28125,1.421875
406,1695742091756,0.14550781,-1.0613403,0.14251709,-9.28125,4.671875,2.5625
407,1695742091797,0.119384766,-0.9644165,0.22723389,0.515625,3.5625,-4.21875
408,1695742091836,0.072021484,-0.9661255,0.16473389,9.03125,-7.125,-3.4375
409,1695742091876,0.05493164,-0.96759033,0.09222412,-2.75,-7.0625,2.640625
410,1695742091915,0.104003906,-0.9612427,0.13543701,-11.078125,2.40625,0.296875
411,1695742091956,0.15942383,-1.0332642,0.20550537,3.609375,5.328125,2.078125
412,1695742091996,0.08154297,-0.9768677,0.1329956,8.015625,-5.609375,-1.0
413,1695742092015,0.020751953,-0.9456177,0.024353027,-8.03125,14.75,0.90625
414,1695742092056,0.08862305,-1.0054321,0.2477417,-31.25,31.546875,24.953125
415,1695742092096,0.22851562,-0.913147,0.3920288,-2.21875,-16.546875,-7.578125
416,1695742092136,0.07080078,-1.1123657,0.20428467,33.390625,-13.328125,-21.453125
417,1695742092176,-0.049072266,-0.9624634,0.101745605,10.671875,3.71875,-0.9375
418,1695742092216,0.013671875,-0.8706665,0.1317749,4.859375,-16.0625,10.140625
419,1695742092256,0.1706543,-0.93536377,0.013122559,1.921875,2.15625,-2.15625
420,1695742092296,0.09350586,-1.0610962,0.22723389,-20.09375,21.90625,0.15625
421,1695742092338,0.17041016,-1.2962036,0.5355835,57.71875,25.265625,24.109375
422,1695742092377,0.0546875,-0.89801025,-0.4981079,36.515625,29.453125,-13.015625
423,1695742092416,-0.084472656,-0.41314697,-0.14898682,-7.0625,-16.359375,-21.75
424,1695742092456,0.06274414,-0.8640747,0.013366699,0.421875,11.484375,4.828125
425,1695742092497,0.2368164,-1.1746216,0.10028076,-34.1875,-4.375,2.65625
426,1695742092536,0.12011719,-0.9546509,-0.0022583008,-26.765625,-19.3125,-1.53125
427,1695742092576,0.027832031,-0.9343872,0.17523193,-4.796875,-0.359375,0.640625
428,1695742092615,0.16333008,-1.1836548,0.32122803,-10.109375,6.40625,4.390625
429,1695742092656,0.010498047,-0.9475708,0.12054443,2.734375,-30.75,-8.59375
430,1695742092695,0.041259766,-0.88360596,-0.058898926,-16.921875,3.828125,2.9375
431,1695742092736,0.22094727,-1.0667114,0.18939209,-35.15625,15.390625,11.0625
432,1695742092775,0.18603516,-0.9434204,0.37786865,-0.03125,3.625,3.375
433,1695742092816,0.11279297,-1.1184692,0.18206787,21.140625,-9.875,-10.40625
434,1695742092856,-0.049560547,-0.8135376,0.105651855,16.953125,-6.09375,-2.734375
435,1695742092896,0.071777344,-1.0071411,0.10491943,-5.359375,-3.609375,7.796875
436,1695742092936,0.078125,-0.99591064,0.15545654,-14.25,-2.84375,0.03125
437,1695742092976,0.22460938,-1.006897,0.24383545,-18.328125,5.09375,-1.109375
438,1695742093016,0.11254883,-0.97198486,0.22772217,4.953125,-11.5625,-4.5
439,1695742093056,0.020996094,-0.9927368,0.15350342,2.09375,-2.234375,1.328125
440,1695742093095,0.06323242,-1.005188,0.16693115,-9.265625,1.078125,1.078125
441,1695742093156,0.15698242,-0.9627075,0.21331787,1.828125,0.171875,-0.609375
442,1695742093176,0.15405273,-0.95269775,0.22625732,-2.390625,-3.21875,-1.09375
443,1695742093235,0.107177734,-0.99468994,0.19866943,-2.359375,-6.671875,-0.109375
444,1695742093236,0.07104492,-0.9846802,0.17034912,-1.6875,-7.421875,0.796875
445,1695742093275,0.100097656,-1.0291138,0.15032959,-8.078125,-1.0,-2.6875
446,1695742093316,0.029541016,-0.95098877,0.2164917,-12.546875,15.453125,11.09375
447,1695742093356,0.23901367,-0.8623657,0.4562378,-9.484375,5.34375,6.0625
448,1695742093395,0.125,-1.1018677,0.29779053,24.703125,-27.578125,-13.9375
449,1695742093436,-0.025146484,-0.9939575,0.08929443,25.53125,-8.234375,-8.921875
450,1695742093475,-0.01586914,-0.80303955,0.14251709,-15.15625,-8.234375,3.34375
451,1695742093516,0.18139648,-0.95562744,0.1708374,-8.828125,-5.765625,8.125
452,1695742093556,0.115722656,-1.123352,0.31488037,-6.625,6.15625,-5.734375
453,1695742093596,0.095703125,-0.9644165,0.2526245,6.078125,-16.515625,-2.3125
454,1695742093635,0.08081055,-0.9338989,0.18304443,-2.53125,-5.765625,-1.0625
455,1695742093676,0.059326172,-0.9439087,0.21624756,-3.6875,-0.703125,-3.21875
456,1695742093716,0.037353516,-1.0010376,0.21868896,-2.359375,-3.046875,2.09375
457,1695742093756,0.15795898,-1.0276489,0.26116943,-7.53125,-4.90625,2.21875
458,1695742093796,0.09033203,-0.87042236,0.19329834,-1.25,-0.1875,-3.578125
459,1695742093836,0.07763672,-1.036438,0.2592163,-3.265625,14.9375,11.765625
460,1695742093876,0.15625,-0.9668579,0.3805542,-0.78125,-6.203125,-2.78125
461,1695742093915,0.04321289,-1.008606,0.21136475,14.09375,-11.3125,-10.375
462,1695742093955,-0.01586914,-0.9812622,0.18841553,6.53125,1.875,2.0
463,1695742093996,0.0715332,-0.9385376,0.1930542,-0.015625,-9.65625,-1.78125
464,1695742094036,0.09106445,-0.9155884,0.1798706,-4.25,2.5,-3.296875
465,1695742094075,0.07714844,-1.017395,0.26605225,-5.328125,-0.078125,0.0625
466,1695742094115,0.061279297,-1.0186157,0.24383545,1.5,-5.28125,1.046875
467,1695742094176,0.076171875,-0.96051025,0.24261475,0.8125,1.78125,-3.671875
468,1695742094196,0.026855469,-0.9727173,0.17010498,3.390625,1.015625,-1.96875
469,1695742094236,0.04711914,-0.9800415,0.2218628,-6.21875,7.390625,2.8125
470,1695742094276,0.11743164,-0.9763794,0.21868896,-4.984375,-0.125,-2.640625
471,1695742094316,0.107421875,-0.9841919,0.23040771,-4.515625,12.09375,-0.40625
472,1695742094356,0.01586914,-1.0405884,0.29925537,-2.15625,12.09375,7.78125
473,1695742094396,0.15429688,-0.84210205,0.2597046,-1.359375,-2.828125,-3.765625
474,1695742094456,0.06591797,-1.0012817,0.2904663,13.796875,7.15625,-12.296875
475,1695742094475,-0.032470703,-1.0457153,0.16595459,15.359375,1.78125,1.125
476,1695742094495,0.044189453,-0.9578247,0.16571045,-0.4375,-6.5625,-0.75
477,1695742094537,0.045166016,-0.92633057,0.13616943,-2.578125,5.25,0.25
478,1695742094576,0.064941406,-1.0132446,0.26409912,-7.546875,11.28125,-0.015625
479,1695742094616,0.076660156,-1.0154419,0.2411499,-0.4375,-5.53125,-1.8125
480,1695742094656,0.05834961,-1.0220337,0.21697998,-3.09375,3.828125,-0.4375
481,1695742094695,0.026123047,-0.96343994,0.17962646,7.5625,2.890625,-1.59375
482,1695742094737,0.045654297,-0.96759033,0.16497803,-0.703125,2.46875,-2.765625
483,1695742094776,0.07788086,-0.9854126,0.19354248,-6.1875,7.8125,-1.34375
484,1695742094816,0.1003418,-1.0015259,0.20501709,4.234375,2.359375,-3.109375
485,1695742094856,0.061035156,-0.9573364,0.17230225,2.640625,5.0,-3.0625
486,1695742094896,0.02319336,-0.97198486,0.17645264,1.71875,4.75,-0.046875
487,1695742094936,0.06201172,-1.0003052,0.16375732,5.28125,1.28125,-0.34375
488,1695742094976,0.059814453,-0.99053955,0.08416748,9.25,4.25,2.390625
489,1695742095016,0.09765625,-1.0039673,0.10491943,-3.78125,14.171875,3.03125
490,1695742095056,0.15625,-0.9241333,0.17791748,-13.046875,12.09375,9.015625
491,1695742095096,0.0068359375,-0.9595337,0.21160889,-3.390625,12.046875,12.8125
492,1695742095137,0.13012695,-1.0776978,0.23065186,-1.40625,-0.546875,-10.828125
493,1695742095176,0.12011719,-0.9302368,0.168396,11.34375,4.796875,-8.96875
494,1695742095217,0.115234375,-0.9024048,0.15106201,0.78125,-1.65625,0.765625
495,1695742095256,0.063964844,-1.0239868,0.13006592,13.03125,-1.90625,6.96875
496,1695742095296,0.06616211,-1.0667114,0.10760498,0.890625,5.03125,-4.375
497,1695742095336,0.06518555,-0.94659424,0.19476318,-0.34375,-3.03125,-7.40625
498,1695742095376,0.059326172,-0.95928955,0.13616943,3.453125,-3.90625,-0.953125
499,1695742095417,0.056396484,-0.97198486,0.11468506,-8.59375,-1.125,-0.65625
500,1695742095456,0.052001953,-1.0222778,0.15789795,-4.40625,-6.96875,2.875
501,1695742095498,0.13623047,-1.0576782,0.17523193,0.875,-3.53125,-0.59375
502,1695742095537,0.068359375,-0.91290283,0.07244873,4.046875,-4.421875,-3.6875
503,1695742095578,0.095458984,-0.95147705,0.11199951,2.78125,-0.171875,1.203125
504,1695742095618,0.001953125,-0.9360962,0.10638428,-13.28125,6.484375,5.140625
505,1695742095660,0.17358398,-1.0889282,0.22454834,-19.078125,2.609375,0.640625
506,1695742095698,-0.007080078,-1.0427856,0.21136475,0.671875,3.546875,-3.0
507,1695742095717,0.08227539,-0.8921509,0.21990967,-2.09375,2.28125,-7.03125
508,1695742095759,0.02758789,-0.94903564,0.21868896,12.609375,-0.84375,5.203125
509,1695742095800,0.056396484,-0.96466064,0.11199951,9.125,-5.546875,3.65625
510,1695742095841,0.01977539,-1.0747681,0.16497803,5.734375,-3.1875,2.75
511,1695742095881,0.09033203,-1.0283813,0.16815186,-3.046875,-1.25,-9.59375
512,1695742095919,0.0390625,-0.9048462,0.13983154,-8.671875,-2.765625,-8.140625
513,1695742095957,0.111572266,-1.0188599,0.18743896,-4.078125,3.53125,5.359375
514,1695742095997,0.088378906,-1.0015259,0.21356201,7.453125,-8.640625,-3.265625
515,1695742096035,0.010498047,-0.9612427,0.020690918,-12.03125,-0.5,-0.390625
516,1695742096077,0.08203125,-0.9302368,0.16619873,1.78125,-0.375,-0.78125
517,1695742096115,0.1015625,-0.9351196,0.12371826,3.1875,-3.03125,2.5
518,1695742096156,0.075683594,-0.97076416,0.10076904,-11.40625,3.546875,13.109375
519,1695742096197,0.092041016,-1.053772,0.34783936,-19.40625,14.03125,7.703125
520,1695742096237,0.033203125,-1.0054321,0.20819092,11.703125,-6.875,-9.453125
521,1695742096276,0.030029297,-0.96881104,0.18963623,7.5625,7.09375,-6.515625
522,1695742096315,-0.00024414062,-0.9854126,0.14593506,8.453125,1.84375,3.0
523,1695742096356,0.05493164,-0.9768677,0.15765381,4.265625,-6.609375,3.609375
524,1695742096397,0.15039062,-0.9981079,0.15960693,-9.046875,4.0,-3.078125
525,1695742096438,0.10546875,-0.9338989,0.26776123,-8.40625,1.359375,-8.578125
526,1695742096475,0.0012207031,-0.98883057,0.09686279,8.828125,-10.609375,-2.78125
527,1695742096515,0.020751953,-1.005188,0.13397217,-9.953125,-2.390625,1.96875
528,1695742096555,0.15283203,-1.0110474,0.20770264,-3.734375,6.984375,-1.59375
529,1695742096596,0.067871094,-0.90338135,0.1671753,-1.078125,0.40625,0.6875
530,1695742096636,0.040039062,-1.0081177,0.054382324,4.609375,-1.296875,2.78125
531,1695742096676,0.044433594,-0.93341064,0.1720581,-28.171875,30.609375,23.140625
532,1695742096716,0.15917969,-0.95098877,0.47943115,-5.734375,11.484375,-2.765625
533,1695742096758,0.024902344,-1.0950317,0.26068115,30.046875,-20.09375,-17.9375
534,1695742096796,-0.12890625,-1.0459595,0.08905029,33.09375,0.8125,-2.96875
535,1695742096835,0.008056641,-0.7971802,0.044128418,-7.96875,-14.6875,2.859375
536,1695742096876,0.19067383,-1.0071411,0.113220215,-20.75,7.796875,0.359375
537,1695742096916,0.12231445,-1.0142212,0.32635498,-20.859375,11.25,-5.40625
538,1695742096935,0.047851562,-1.0557251,0.20111084,12.03125,-14.484375,-4.28125
539,1695742096976,-0.018554688,-0.958313,0.07757568,0.234375,-0.171875,-0.953125
540,1695742097017,0.057128906,-0.9651489,0.121520996,-15.953125,5.15625,-0.5625
541,1695742097057,0.092041016,-0.95147705,0.22161865,-1.703125,2.953125,0.53125
542,1695742097098,0.10229492,-0.9783325,0.12054443,0.328125,1.421875,4.25
543,1695742097140,0.15209961,-1.0310669,0.23309326,-15.125,9.15625,11.0625
544,1695742097180,0.041015625,-0.866272,0.3126831,6.765625,-2.921875,-4.25
545,1695742097220,0.048583984,-1.017395,0.17352295,6.34375,1.546875,-7.40625
546,1695742097261,-0.017822266,-1.0027466,0.23016357,9.3125,12.234375,3.84375
547,1695742097302,0.06567383,-1.0025024,0.16009521,16.09375,-17.796875,-0.765625
548,1695742097340,0.07836914,-0.96051025,0.04071045,2.546875,0.5625,0.640625
549,1695742097379,0.14086914,-0.9170532,0.2670288,-24.234375,14.78125,-1.0
550,1695742097425,0.05419922,-0.9939575,0.23602295,3.484375,-18.203125,-2.546875
551,1695742097464,-0.009521484,-1.0286255,0.08050537,2.734375,-3.65625,0.03125
552,1695742097505,0.02709961,-1.0115356,0.13470459,-17.6875,5.03125,1.828125
553,1695742097542,0.14990234,-0.9680786,0.33221436,-4.984375,6.421875,-2.203125
554,1695742097578,0.079833984,-0.9517212,0.18206787,5.671875,-5.59375,-4.1875
555,1695742097624,0.057373047,-0.97198486,0.16571045,-9.421875,3.640625,0.4375
556,1695742097659,0.05883789,-0.9924927,0.2333374,0.203125,-1.96875,-1.734375
557,1695742097701,0.038330078,-1.0071411,0.16204834,-0.890625,-1.578125,-2.234375
558,1695742097740,0.087890625,-0.9973755,0.12371826,-11.5625,-0.3125,-4.71875
559,1695742097782,0.014160156,-0.9944458,0.26263428,-17.921875,19.625,11.0625
560,1695742097820,0.13549805,-0.8584595,0.4039917,6.6875,0.234375,-5.359375
561,1695742097860,0.013427734,-1.1030884,0.26507568,10.625,-7.109375,-10.453125
562,1695742097899,-0.10107422,-0.956604,0.12176514,19.21875,1.09375,2.75
563,1695742097940,0.044677734,-0.94854736,0.17596436,-11.34375,-2.203125,3.03125
564,1695742097980,0.11230469,-0.95318604,0.21673584,2.0625,5.671875,-0.5625
565,1695742098021,0.08691406,-1.0515747,0.28460693,-4.0,3.609375,-5.25
566,1695742098059,0.004638672,-0.97979736,0.18035889,10.734375,-7.859375,-3.03125
567,1695742098100,0.023925781,-0.97491455,0.15203857,-4.546875,1.625,6.1875
568,1695742098140,0.06713867,-0.9561157,0.2321167,2.46875,-6.625,0.34375
569,1695742098159,0.064941406,-0.96099854,0.16766357,5.859375,-7.78125,-1.0
570,1695742098198,0.037841797,-1.0154419,0.11248779,-1.75,-2.390625,2.25
571,1695742098282,0.14648438,-1.0071411,0.16912842,-7.34375,0.140625,-0.015625
572,1695742098285,0.013183594,-0.86309814,0.14984131,-6.109375,8.40625,5.734375
573,1695742098324,0.118652344,-1.0784302,0.33636475,-11.203125,7.859375,7.578125
574,1695742098366,-0.0012207031,-0.97076416,0.2514038,4.390625,-7.625,-9.796875
575,1695742098401,0.091552734,-1.0339966,0.23284912,8.46875,5.703125,-7.609375
576,1695742098441,0.04711914,-0.94537354,0.1786499,10.203125,-6.6875,4.28125
577,1695742098479,0.044921875,-0.9265747,0.15863037,-5.15625,-4.03125,4.109375
578,1695742098521,0.040527344,-1.0427856,0.1954956,-6.125,4.4375,-2.984375
579,1695742098561,0.034179688,-1.0195923,0.2609253,0.328125,0.5,-5.84375
580,1695742098600,0.03149414,-0.9475708,0.20794678,-0.640625,-6.28125,-3.90625
581,1695742098641,0.032958984,-0.9697876,0.16766357,-3.3125,-0.140625,1.125
582,1695742098682,0.046142578,-1.0012817,0.25872803,1.78125,-4.359375,6.0
583,1695742098719,0.04663086,-0.98883057,0.21917725,0.171875,-10.84375,-2.9375
584,1695742098757,0.08203125,-0.97491455,0.07684326,1.796875,-3.34375,-3.28125
585,1695742098800,0.14550781,-0.98760986,0.14202881,-11.140625,5.515625,1.734375
586,1695742098838,0.021972656,-0.9421997,0.25701904,-8.09375,14.015625,7.71875
587,1695742098877,0.018798828,-1.0872192,0.3114624,-5.109375,-0.921875,0.234375
588,1695742098919,0.009033203,-0.8557739,0.19647217,-0.015625,-1.625,-7.671875
589,1695742098957,0.07397461,-1.0588989,0.31365967,6.234375,13.765625,-4.046875
590,1695742098997,0.036865234,-0.98516846,0.16644287,16.8125,-4.453125,3.609375
591,1695742099036,0.09057617,-0.9690552,0.14813232,-3.0625,-4.0,1.765625
592,1695742099076,0.083496094,-0.9607544,0.18988037,-2.1875,3.984375,-2.59375
593,1695742099116,0.041015625,-0.99224854,0.2526245,0.84375,2.296875,-3.765625
594,1695742099157,0.030517578,-0.9956665,0.16229248,4.484375,-7.984375,0.640625
595,1695742099196,0.07910156,-0.98809814,0.1359253,-7.234375,0.390625,1.9375
596,1695742099237,0.09057617,-0.9717407,0.21307373,-7.234375,2.546875,-1.578125
597,1695742099277,0.026367188,-0.9819946,0.21502686,0.203125,-1.9375,-2.390625
598,1695742099320,0.007080078,-1.0654907,0.11639404,-11.375,-3.171875,0.0625
599,1695742099360,0.044189453,-0.9031372,0.26019287,-26.0,11.390625,9.375
600,1695742099400,0.13085938,-0.8970337,0.35101318,5.546875,0.96875,-2.3125
601,1695742099420,0.068847656,-1.1062622,0.31732178,10.765625,-2.921875,-5.25
602,1695742099460,0.013427734,-0.98223877,0.17572021,21.203125,-4.1875,7.0625
603,1695742099500,0.0036621094,-0.954895,0.1317749,-0.4375,-13.828125,0.671875
604,1695742099538,0.08691406,-0.9312134,0.12200928,-2.09375,6.390625,1.5625
605,1695742099580,0.12768555,-1.0215454,0.3480835,-7.796875,3.9375,-0.140625
606,1695742099618,0.064941406,-0.9780884,0.21575928,2.34375,-21.28125,0.5625
607,1695742099659,0.035888672,-1.0100708,0.13934326,-5.578125,-8.1875,5.78125
608,1695742099700,0.06591797,-0.97247314,0.25091553,-5.5625,-7.9375,1.34375
609,1695742099738,0.07006836,-0.9446411,0.19720459,0.421875,-15.53125,-0.375
610,1695742099778,0.078125,-0.9819946,0.19622803,-6.875,-13.578125,3.609375
611,1695742099821,0.09448242,-0.98101807,0.23626709,2.875,-16.015625,5.65625
612,1695742099862,0.038330078,-1.0176392,0.13470459,-1.765625,-18.6875,2.890625
613,1695742099901,0.080566406,-0.91851807,0.32757568,-14.28125,1.96875,15.875
614,1695742099942,0.15209961,-0.9649048,0.2658081,12.0625,-15.8125,-0.421875
615,1695742099982,0.06347656,-1.0271606,0.3060913,10.65625,-16.546875,-3.703125
616,1695742100018,0.022216797,-0.99298096,0.14251709,26.640625,-26.296875,8.828125
617,1695742100060,0.075683594,-0.8689575,0.16815186,-3.4375,-35.9375,2.46875
618,1695742100099,0.068603516,-0.98516846,0.18011475,-2.390625,-26.921875,6.96875
619,1695742100140,0.19458008,-1.0586548,0.33026123,-26.640625,-13.5625,6.234375
620,1695742100183,0.15161133,-0.9475708,0.30706787,13.640625,-36.9375,2.046875
621,1695742100220,0.07788086,-0.96881104,0.17596436,18.4375,-28.15625,0.96875
622,1695742100261,-0.0146484375,-0.9612427,0.12860107,-3.578125,-21.359375,-0.03125
623,1695742100301,0.055908203,-0.940979,0.27679443,-20.15625,-7.890625,4.671875
624,1695742100339,0.08496094,-1.0401001,0.262146,1.0625,-11.46875,-1.421875
625,1695742100381,0.061523438,-0.9812622,0.246521,-7.828125,-8.71875,-0.875
626,1695742100420,0.0012207031,-0.9805298,0.30340576,-4.84375,-12.84375,3.25
627,1695742100462,0.072021484,-0.8994751,0.27996826,-6.140625,11.03125,0.890625
628,1695742100500,0.114990234,-1.0984497,0.20941162,2.78125,9.453125,1.9375
629,1695742100541,0.41455078,-1.0459595,0.4225464,1.328125,31.109375,-8.859375
630,1695742100580,-0.04638672,-0.75128174,0.3649292,14.875,11.703125,-26.15625
631,1695742100619,-0.35986328,-0.8796997,0.12591553,19.96875,21.5625,9.421875
632,1695742100637,0.03857422,-0.94537354,0.3258667,-16.359375,25.609375,31.546875
633,1695742100679,0.14379883,-1.367981,0.55755615,55.96875,-2.984375,18.1875
634,1695742100719,0.15576172,-0.7449341,-0.6589966,32.765625,35.34375,-19.515625
635,1695742100762,0.61035156,-0.5418091,0.28070068,-70.65625,61.671875,-14.921875
636,1695742100800,-0.14672852,-0.925354,0.03314209,16.765625,-7.75,-5.21875
637,1695742100841,-0.043945312,-0.9595337,-0.04937744,4.265625,-10.140625,11.453125
638,1695742100881,0.12719727,-0.98150635,0.050231934,-50.390625,12.0,11.234375
639,1695742100925,0.32202148,-1.1931763,0.6679077,8.71875,34.6875,-13.0625
640,1695742100959,0.09741211,-1.0845337,0.18255615,6.71875,6.09375,-7.9375
641,1695742101001,0.08178711,-0.8953247,0.012878418,-23.25,16.21875,-6.546875
642,1695742101042,0.34838867,-0.8933716,0.32904053,-29.15625,45.546875,10.4375
643,1695742101080,0.32055664,-0.90875244,0.47528076,-1.6875,-10.09375,-3.765625
644,1695742101120,0.04272461,-1.097229,0.2531128,18.015625,8.59375,-14.703125
645,1695742101161,-0.0053710938,-0.9258423,0.14202881,2.40625,8.109375,1.265625
646,1695742101201,0.10644531,-0.7185669,0.17279053,-6.625,-1.0625,14.859375
647,1695742101239,0.23852539,-1.1052856,0.2982788,-17.21875,25.640625,6.78125
648,1695742101278,0.23339844,-1.0715942,0.41033936,4.3125,-5.109375,-8.109375
649,1695742101321,0.1508789,-0.83258057,0.26287842,8.875,-11.484375,-1.34375
650,1695742101360,0.12866211,-0.9089966,0.18719482,2.921875,3.359375,10.046875
651,1695742101400,0.20947266,-0.9536743,0.2741089,-11.546875,4.390625,-1.375
652,1695742101438,0.18945312,-0.91192627,0.38226318,2.46875,3.28125,-2.828125
653,1695742101481,0.21704102,-0.9529419,0.27288818,19.953125,-5.65625,1.46875
654,1695742101520,0.26660156,-0.97662354,0.19134521,-1.640625,-11.8125,-6.234375
655,1695742101563,0.13891602,-0.9434204,0.2831421,-6.90625,14.859375,-7.375
656,1695742101600,0.13623047,-1.0252075,0.3143921,0.5625,-10.6875,-6.984375
657,1695742101640,-0.0068359375,-1.053772,0.25701904,15.421875,-3.546875,2.984375
658,1695742101680,0.034423828,-0.87628174,0.1774292,6.21875,5.109375,7.90625
659,1695742101726,0.024169922,-0.9085083,0.16229248,4.578125,-8.734375,0.109375
660,1695742101760,0.21704102,-0.9529419,0.15570068,-11.203125,5.5,-0.171875
661,1695742101806,0.32958984,-1.0567017,0.34051514,-1.1875,-7.890625,-4.09375
662,1695742101844,0.123046875,-0.9951782,0.11883545,7.96875,-16.78125,-12.53125
663,1695742101864,-0.076416016,-0.9036255,0.04510498,7.15625,-1.21875,-9.625
664,1695742101904,0.0036621094,-0.9602661,0.10418701,-12.296875,10.71875,-1.953125
665,1695742101943,0.16967773,-1.0054321,0.22625732,-5.828125,4.0,-5.75
666,1695742101982,0.18701172,-0.98687744,0.14910889,14.484375,-0.34375,-6.4375
667,1695742102022,-0.028808594,-1.0232544,-0.0335083,17.84375,16.8125,6.53125
668,1695742102062,0.28735352,-0.9204712,0.30462646,-24.390625,35.625,3.125
669,1695742102107,0.0087890625,-1.0715942,0.22332764,12.15625,-23.46875,-16.0
670,1695742102138,-0.09350586,-0.98638916,0.0289917,20.28125,-1.234375,-16.25
671,1695742102180,0.026123047,-1.0046997,0.026794434,6.484375,12.96875,9.921875
672,1695742102218,0.14868164,-0.86846924,0.06390381,3.296875,-9.046875,-1.921875
673,1695742102260,0.08569336,-1.0105591,0.04949951,0.609375,6.5,-7.515625
674,1695742102300,-0.046875,-1.0418091,0.13690186,-10.4375,5.078125,-7.421875
675,1695742102339,-0.03955078,-1.0071411,0.117126465,-8.78125,-12.5625,-2.796875
676,1695742102381,0.026855469,-1.0078735,0.034851074,-10.5,-0.71875,2.078125
677,1695742102420,0.091308594,-1.0476685,0.16229248,1.15625,12.171875,1.6875
678,1695742102460,0.05834961,-0.92388916,0.13201904,20.671875,-2.171875,-8.171875
679,1695742102501,-0.08300781,-0.9348755,-0.05206299,19.5,2.625,-6.15625
680,1695742102541,-0.040771484,-0.99176025,-0.054748535,-12.484375,16.359375,0.140625
681,1695742102580,0.076416016,-1.065979,0.09222412,-3.40625,19.375,3.9375
682,1695742102621,0.064697266,-1.0095825,-0.045959473,25.765625,3.390625,6.078125
683,1695742102665,0.29956055,-0.9727173,0.1449585,-16.546875,32.796875,10.09375
684,1695742102701,-0.025878906,-0.8921509,0.23846436,7.703125,-8.71875,-24.34375
685,1695742102741,-0.19726562,-0.95440674,-0.028381348,31.359375,-9.921875,-13.984375
686,1695742102783,-0.13867188,-0.8699341,-0.07183838,-14.484375,18.25,30.75
687,1695742102820,0.2548828,-1.0994263,0.13421631,-20.421875,12.625,7.8125
688,1695742102863,0.10180664,-1.0588989,0.07684326,6.65625,-5.75,-12.5
689,1695742102902,0.013671875,-0.9968872,0.0018920898,-0.9375,2.09375,-1.296875
690,1695742102942,0.013183594,-0.9378052,0.105407715,-3.828125,-3.375,5.359375
691,1695742102982,0.033447266,-1.0440063,-0.0044555664,11.375,-4.59375,1.421875
692,1695742103021,0.0063476562,-1.0213013,-0.055725098,-6.390625,3.03125,-6.21875
693,1695742103081,0.020263672,-1.0027466,0.061462402,-14.421875,5.0,-0.015625
694,1695742103102,-0.012939453,-0.9763794,0.036315918,-1.796875,1.46875,-0.671875
695,1695742103121,0.046875,-0.9873657,0.01776123,-9.046875,1.515625,2.96875
696,1695742103164,0.027832031,-1.0254517,0.04119873,3.53125,-5.3125,4.90625
697,1695742103199,0.022705078,-1.0808716,0.10662842,-25.984375,14.609375,8.078125
698,1695742103242,0.060791016,-0.94537354,0.24359131,-19.015625,-10.546875,-13.109375
699,1695742103277,0.0007324219,-0.9751587,0.15130615,9.484375,-11.71875,-18.296875
700,1695742103320,-0.068359375,-0.97735596,0.13641357,5.5625,1.390625,9.421875
701,1695742103360,-0.042236328,-0.9807739,0.06561279,0.53125,-15.84375,5.9375
702,1695742103401,0.061279297,-0.9998169,0.054138184,-9.640625,-6.203125,-14.484375
703,1695742103439,-0.041503906,-0.9624634,0.16497803,-6.921875,10.203125,2.390625
704,1695742103481,0.010009766,-0.92315674,0.22991943,-0.953125,-16.53125,6.0
705,1695742103523,0.09643555,-1.0298462,0.09613037,7.953125,-9.984375,2.625
706,1695742103560,0.0056152344,-1.0371704,0.06732178,1.375,3.203125,-4.0
707,1695742103600,-0.020019531,-0.9763794,0.1359253,4.953125,-8.3125,-1.484375
708,1695742103641,0.043701172,-1.0022583,0.109802246,0.46875,-4.28125,-0.109375
709,1695742103682,0.07861328,-0.9356079,0.1798706,-18.03125,9.15625,0.0625
710,1695742103718,0.07495117,-0.9710083,0.13543701,3.625,-4.015625,0.015625
711,1695742103760,0.014160156,-1.0188599,0.11907959,-1.703125,-1.296875,1.0
712,1695742103802,0.06689453,-0.9163208,0.17669678,-2.859375,-1.34375,-0.78125
713,1695742103841,0.05419922,-0.9837036,0.1864624,-0.125,-1.6875,-1.1875
714,1695742103885,0.033691406,-0.98394775,0.1774292,-1.65625,-4.0,1.328125
715,1695742103928,0.059570312,-0.9968872,0.14007568,-4.671875,-4.203125,-0.4375
716,1695742103963,0.02734375,-0.97857666,0.15447998,-1.109375,-0.828125,0.09375
717,1695742104004,0.111083984,-1.0093384,0.046081543,0.75,-7.0625,3.890625
718,1695742104048,0.09448242,-0.9109497,0.26971436,-34.09375,24.921875,6.453125
719,1695742104084,0.045166016,-1.0256958,0.25628662,8.140625,-13.625,-8.5
720,1695742104122,-0.03173828,-1.0994263,0.116882324,15.71875,11.015625,-0.109375
721,1695742104159,0.09790039,-0.87677,0.23626709,-0.046875,1.4375,5.265625
722,1695742104205,0.052001953,-0.9915161,0.1473999,2.765625,-9.515625,0.640625
723,1695742104240,0.14038086,-1.031311,0.15863037,8.96875,6.65625,-2.53125
724,1695742104280,0.06298828,-0.95806885,0.1642456,-7.28125,-2.109375,-1.90625
725,1695742104321,0.05908203,-0.96417236,0.15008545,-9.03125,-6.484375,2.234375
726,1695742104340,0.08642578,-0.9829712,0.19207764,-4.921875,-5.25,1.53125
727,1695742104380,0.103759766,-1.0003052,0.18426514,-5.375,-4.046875,1.5625
728,1695742104421,0.11230469,-0.96710205,0.14227295,-5.046875,-3.203125,2.296875
729,1695742104465,0.0390625,-1.0137329,0.18109131,-7.265625,-1.796875,6.859375
730,1695742104498,0.11328125,-0.9138794,0.16595459,-5.125,-3.796875,7.5
731,1695742104547,0.11010742,-1.0025024,0.32562256,-8.5625,-2.25,3.5625
732,1695742104583,0.103759766,-0.98443604,0.24725342,4.484375,-8.609375,-5.90625
733,1695742104621,0.01953125,-1.0491333,0.24310303,11.84375,8.109375,5.328125
734,1695742104664,0.05126953,-0.95684814,0.109313965,9.890625,-4.0,4.84375
735,1695742104706,0.091552734,-1.0308228,0.2333374,-3.453125,-9.84375,3.328125
736,1695742104749,0.1171875,-0.95147705,0.21160889,4.515625,1.96875,-2.453125
737,1695742104780,0.10888672,-0.9053345,0.22918701,-5.78125,-1.828125,-1.265625
738,1695742104821,0.071777344,-0.96881104,0.18963623,-14.59375,-5.421875,-0.78125
739,1695742104857,0.056640625,-1.0286255,0.22991943,-4.296875,-5.25,3.875
740,1695742104899,0.08935547,-1.008606,0.215271,-5.859375,-5.578125,1.59375
741,1695742104939,0.11816406,-0.9429321,0.22015381,-3.03125,-3.828125,-0.921875
742,1695742104982,0.099121094,-0.95098877,0.18353271,-3.234375,0.625,1.078125
743,1695742105021,0.05834961,-0.9883423,0.1984253,7.09375,-3.5625,3.328125
744,1695742105061,0.0925293,-0.9673462,0.18353271,3.328125,-5.21875,1.828125
745,1695742105102,0.04345703,-1.0371704,0.22698975,0.203125,-3.859375,4.578125
746,1695742105139,0.09106445,-0.8904419,0.23822021,-3.8125,-1.421875,5.171875
747,1695742105180,0.088378906,-0.97198486,0.246521,-9.140625,-2.734375,-1.265625
748,1695742105219,0.07861328,-1.0535278,0.27752686,2.890625,6.25,-5.0625
749,1695742105260,0.033447266,-1.0271606,0.2164917,17.328125,-5.109375,-4.28125
750,1695742105301,0.053710938,-0.93048096,0.1395874,-10.4375,-1.796875,3.125
751,1695742105340,0.1274414,-0.97906494,0.22991943,3.703125,0.953125,-2.59375
752,1695742105381,0.12963867,-0.93096924,0.230896,-2.578125,-2.96875,-2.828125
753,1695742105421,0.044677734,-0.97491455,0.22015381,-3.359375,-7.265625,-0.25
754,1695742105461,0.072021484,-1.015686,0.21575928,0.1875,-9.359375,-0.1875
755,1695742105502,0.029785156,-0.9468384,0.3217163,12.71875,1.109375,1.75
756,1695742105561,0.0036621094,-1.4695435,0.4081421,56.84375,30.765625,27.71875
757,1695742105565,0.4230957,-0.77593994,-0.17047119,-25.0,-20.890625,-8.203125
758,1695742105601,0.14355469,-0.5042114,0.06317139,8.109375,12.28125,-20.546875
759,1695742105640,0.016845703,-0.95635986,0.06829834,1.71875,-18.703125,1.3125
760,1695742105681,0.03955078,-0.97662354,0.047790527,-22.921875,-30.796875,5.421875
761,1695742105722,0.15673828,-0.9829712,0.12445068,-26.953125,-24.796875,1.15625
762,1695742105762,0.103759766,-1.093811,0.32611084,14.328125,3.234375,3.34375
763,1695742105798,0.0715332,-1.0881958,0.17474365,-10.75,-25.203125,4.90625
764,1695742105839,0.060791016,-0.9246216,0.25115967,-13.953125,-17.28125,3.28125
765,1695742105882,0.07128906,-0.8713989,0.17962646,6.984375,-8.640625,-1.453125
766,1695742105924,0.0871582,-0.93878174,0.16473389,-0.75,-14.75,6.46875
767,1695742105963,0.015136719,-1.1499634,0.15716553,-29.703125,6.46875,6.703125
768,1695742106000,0.16333008,-0.92852783,0.3529663,-8.84375,14.984375,-2.34375
769,1695742106045,0.16235352,-0.97662354,0.29608154,8.375,-12.140625,-11.71875
770,1695742106084,-0.0234375,-0.94903564,0.2020874,11.515625,7.484375,0.140625
771,1695742106119,0.11254883,-0.93707275,0.31048584,6.8125,-4.0,7.484375
772,1695742106162,0.09082031,-0.9336548,0.124938965,-2.578125,-23.03125,8.015625
773,1695742106200,0.19824219,-1.0032349,0.28875732,-6.171875,0.671875,-1.59375
774,1695742106241,0.049072266,-1.0418091,0.27850342,0.578125,-9.953125,-9.53125
775,1695742106281,0.020019531,-0.98687744,0.16644287,-8.0,-13.15625,-4.71875
776,1695742106321,0.107666016,-0.9104614,0.26116943,-8.359375,0.078125,1.96875
777,1695742106360,0.10424805,-0.9614868,0.24945068,-2.515625,-0.203125,-0.5
778,1695742106402,0.11425781,-0.98272705,0.2374878,-2.609375,-0.5625,-1.515625
779,1695742106443,0.111328125,-1.0247192,0.2694702,0.390625,-3.71875,1.90625
780,1695742106482,0.12695312,-0.8779907,0.23016357,1.859375,5.390625,1.1875
781,1695742106523,-0.005859375,-1.1629028,0.29925537,28.796875,20.984375,22.140625
782,1695742106560,0.65625,-1.034729,0.25164795,14.65625,-8.15625,-43.203125
783,1695742106602,-0.27270508,-0.49493408,0.09466553,48.96875,-17.546875,-10.796875
784,1695742106640,0.010498047,-0.7752075,-0.022033691,12.75,3.375,28.21875
785,1695742106680,-0.052246094,-1.1013794,0.14910889,-43.015625,-2.140625,30.609375
786,1695742106721,0.20678711,-1.4849243,0.29656982,-14.671875,-1.59375,-13.640625
787,1695742106761,0.2529297,-0.9085083,0.22113037,12.453125,9.15625,-11.78125
788,1695742106779,0.20141602,-0.77301025,0.1774292,-4.140625,-5.765625,-8.609375
789,1695742106818,0.096191406,-0.861145,0.168396,-4.453125,2.796875,4.203125
790,1695742106859,-0.014892578,-1.0584106,0.09100342,0.46875,8.625,8.421875
791,1695742106899,0.14990234,-1.1223755,0.22039795,-25.59375,8.65625,-0.25
792,1695742106941,0.25708008,-0.92559814,0.30975342,2.109375,12.53125,-8.34375
793,1695742106981,0.1496582,-0.9089966,0.21307373,0.953125,6.578125,-3.171875
794,1695742107041,0.048095703,-0.93536377,0.13934326,-1.0625,-1.890625,-0.625
795,1695742107058,0.09423828,-1.0713501,0.14910889,-13.5625,17.90625,0.8125
796,1695742107100,0.08325195,-1.0234985,0.25506592,-10.859375,14.296875,-7.96875
797,1695742107144,-0.103027344,-1.1677856,0.3414917,-2.40625,46.03125,12.828125
798,1695742107182,0.71850586,-0.91485596,0.18597412,36.109375,7.84375,-60.84375
799,1695742107221,-0.34594727,-0.45562744,0.073913574,55.953125,10.0,-9.328125
800,1695742107265,0.03100586,-0.8435669,-0.08477783,5.890625,8.46875,40.484375
801,1695742107296,-0.09008789,-1.0689087,0.05218506,-67.015625,26.21875,28.25
802,1695742107336,0.43652344,-1.5300903,0.5114136,-35.140625,29.578125,2.53125
803,1695742107376,0.34350586,-0.8320923,0.24871826,28.734375,-10.296875,-29.234375
804,1695742107416,0.21484375,-0.75079346,0.1984253,22.8125,10.328125,-3.453125
805,1695742107457,0.08203125,-1.4666138,0.22454834,43.109375,10.109375,40.609375
806,1695742107496,0.061279297,-0.77349854,-0.14556885,24.375,-25.984375,-53.078125
807,1695742107537,0.03564453,-0.677063,-0.12628174,-25.40625,-10.421875,-9.796875
808,1695742107577,0.41796875,-0.9194946,0.124938965,-45.546875,2.6875,11.09375
809,1695742107616,0.28320312,-1.1238403,0.117614746,-21.9375,-35.40625,3.96875
810,1695742107656,0.115722656,-0.96832275,0.11590576,-27.4375,-26.859375,-19.625
811,1695742107696,-0.14941406,-1.093811,0.30340576,3.734375,-2.65625,2.1875
812,1695742107739,0.05444336,-0.9385376,0.14447021,-0.75,-31.96875,-1.203125
813,1695742107778,0.11767578,-0.8731079,0.08343506,-11.375,-10.671875,5.859375
814,1695742107818,0.2109375,-0.8845825,0.27459717,-5.78125,-14.34375,8.015625
815,1695742107857,0.20458984,-1.005188,0.26068115,3.90625,-17.046875,8.265625
816,1695742107896,0.095214844,-1.081604,0.2243042,10.609375,-21.9375,5.796875
817,1695742107936,-0.00390625,-0.972229,0.1449585,6.875,-28.21875,-2.765625
818,1695742107976,0.12060547,-0.8623657,0.17889404,-6.359375,-12.40625,7.4375
819,1695742108017,0.12158203,-1.0081177,0.26190186,3.15625,-14.65625,9.046875
820,1695742108036,0.12084961,-1.0918579,0.23431396,1.84375,-18.6875,2.0
821,1695742108076,-0.072021484,-1.12677,0.3180542,20.109375,-1.609375,8.390625
822,1695742108118,0.6125488,-1.1177368,0.22479248,13.859375,-0.015625,-35.859375
823,1695742108158,-0.2541504,-0.42608643,0.10687256,47.5,-15.125,-34.140625
824,1695742108197,-0.11206055,-0.83599854,-0.09283447,20.015625,-3.90625,36.5
825,1695742108240,0.099853516,-1.0449829,0.12176514,-94.921875,19.609375,30.90625
826,1695742108288,0.3996582,-1.210022,0.67181396,13.703125,5.203125,-12.203125
827,1695742108318,0.16552734,-0.8718872,0.10882568,57.53125,-22.859375,-26.0625
828,1695742108362,0.2055664,-0.84942627,0.002380371,-5.25,0.859375,-0.125
829,1695742108401,0.24487305,-0.9607544,0.20159912,-21.359375,3.578125,8.859375
830,1695742108442,0.16992188,-1.102356,0.17889404,23.359375,-6.234375,-1.6875
831,1695742108480,0.13330078,-1.0164185,0.019958496,9.828125,-11.90625,-11.625
832,1695742108520,0.22558594,-0.8694458,0.16644287,-25.0625,7.390625,6.71875
833,1695742108564,0.46069336,-0.97662354,0.28118896,5.0625,-15.9375,6.203125
834,1695742108604,0.26831055,-1.1333618,0.1486206,38.546875,-16.234375,-1.453125
835,1695742108642,0.07080078,-1.222229,0.07952881,5.78125,-1.796875,-0.9375
836,1695742108680,0.01977539,-0.803772,0.010437012,16.6875,-23.875,-48.015625
837,1695742108719,-0.27416992,-0.6255493,-0.15045166,75.390625,-23.359375,2.90625
838,1695742108759,0.17529297,-0.91534424,-0.22686768,-27.640625,-14.984375,46.390625
839,1695742108801,0.23950195,-1.1897583,0.19744873,-88.375,19.671875,27.046875
840,1695742108841,0.13745117,-1.1013794,0.34246826,40.90625,-12.6875,-26.421875
841,1695742108878,-0.06323242,-0.8045044,-0.05206299,51.296875,-36.203125,-33.421875
842,1695742108920,-0.08496094,-0.8479614,-0.16607666,-14.3125,-11.78125,6.234375
843,1695742108963,0.08642578,-1.1348267,-0.0044555664,-44.390625,2.90625,14.125
844,1695742109004,-0.009033203,-1.1560669,0.19378662,-6.71875,4.328125,-24.9375
845,1695742109040,-0.079833984,-0.9194946,0.0045776367,23.71875,-14.875,-22.84375
846,1695742109079,0.033935547,-0.81134033,-0.0803833,-10.875,-6.125,5.515625
847,1695742109120,0.056640625,-1.0647583,0.09051514,-26.078125,11.515625,3.796875
848,1695742109162,0.16455078,-1.1126099,0.2008667,-17.6875,-8.96875,-7.703125
849,1695742109198,-0.095214844,-1.0549927,0.09222412,30.453125,-18.0625,-34.28125
850,1695742109240,-0.026855469,-0.7022095,0.07977295,-24.375,-0.234375,-5.59375
851,1695742109259,-0.21386719,-0.958313,0.23284912,10.421875,-0.65625,5.40625
852,1695742109298,-0.23266602,-1.1394653,0.01776123,33.84375,-22.84375,5.296875
853,1695742109339,-0.06225586,-1.0623169,-0.1651001,8.359375,-2.984375,-6.171875
854,1695742109380,0.14404297,-0.960022,0.11981201,-43.734375,16.03125,0.28125
855,1695742109418,0.045898438,-0.8687134,0.2670288,10.78125,-11.25,-2.640625
856,1695742109459,-0.11694336,-1.0125122,-6.1035156e-05,20.703125,-25.1875,-0.71875
857,1695742109500,-0.05419922,-1.1082153,-0.0960083,1.03125,-4.875,3.484375
858,1695742109539,-0.07739258,-1.0073853,0.10272217,-15.890625,6.34375,1.09375
859,1695742109582,0.004638672,-0.9104614,0.11175537,2.015625,-6.1875,2.53125
860,1695742109620,0.08276367,-0.96710205,0.013122559,5.734375,-8.96875,0.53125
861,1695742109660,-0.040527344,-1.0755005,0.018981934,-6.453125,-0.484375,-3.484375
862,1695742109702,-0.10644531,-1.0029907,0.055114746,-5.953125,2.8125,5.234375
863,1695742109738,-0.08081055,-1.0576782,0.10662842,-12.640625,-1.75,12.578125
864,1695742109781,0.44628906,-1.0127563,0.10662842,20.53125,-6.703125,-23.953125
865,1695742109820,-0.24414062,-0.6663208,0.06707764,29.515625,-7.484375,-2.640625
866,1695742109861,-0.12133789,-0.92974854,-0.1572876,23.53125,-19.828125,26.5625
867,1695742109898,-0.17480469,-1.2276001,-0.13848877,-25.4375,13.8125,14.6875
868,1695742109941,-0.038330078,-0.9663696,0.010192871,-26.703125,20.875,-7.4375
869,1695742109986,0.20800781,-0.829895,0.13006592,-8.09375,13.265625,14.25
870,1695742110019,0.4489746,-1.0112915,0.19744873,-5.59375,10.328125,27.484375
871,1695742110061,0.35302734,-1.1135864,0.23822021,10.078125,-16.703125,5.234375
872,1695742110100,-0.08886719,-1.0090942,0.058288574,55.828125,-20.59375,-22.390625
873,1695742110140,-0.3125,-0.8201294,-0.2390747,53.8125,-9.9375,-19.4375
874,1695742110181,-0.16357422,-0.88067627,-0.29595947,-32.40625,8.1875,23.90625
875,1695742110222,0.40673828,-1.1548462,0.07342529,-106.921875,33.234375,32.5
876,1695742110256,0.36083984,-1.1113892,0.38739014,2.421875,-7.09375,-4.046875
