,timestamp,accel_x,accel_y,accel_z,gyro_x,gyro_y,gyro_z,ind
0,1695742322917,0.05053711,-1.0005493,0.018981934,-17.046875,1.6875,-1.5625,0
1,1695742322957,0.06298828,-0.9961548,0.03363037,0.265625,-2.046875,-1.75,1
2,1695742322997,0.05078125,-0.9890747,-0.057434082,-3.234375,0.515625,-4.625,2
3,1695742323037,0.011962891,-0.99786377,0.0021362305,-15.4375,1.75,-4.125,3
4,1695742323077,0.024169922,-0.9849243,0.07098389,-4.578125,-0.265625,-2.328125,4
5,1695742323117,0.024169922,-0.97784424,0.004333496,0.546875,-0.359375,-1.859375,5
6,1695742323157,0.030029297,-1.0042114,0.0067749023,-8.59375,1.0625,-1.953125,6
7,1695742323197,0.033203125,-0.9920044,0.070007324,-6.859375,1.765625,-2.140625,7
8,1695742323237,0.007080078,-0.99664307,0.028015137,4.484375,-0.09375,-0.5,8
9,1695742323277,0.029052734,-1.008606,0.010192871,-8.59375,-0.34375,-1.109375,9
10,1695742323317,0.034423828,-0.9758911,0.09197998,-7.84375,0.859375,-1.875,10
11,1695742323357,0.0043945312,-0.9885864,0.04901123,2.5625,-0.15625,-1.375,11
12,1695742323397,0.018554688,-0.9963989,0.034362793,-2.96875,0.34375,-0.109375,12
13,1695742323437,0.03857422,-0.98516846,0.074157715,-1.484375,1.390625,-1.46875,13
14,1695742323477,0.009521484,-1.0003052,0.06512451,2.765625,0.734375,-0.140625,14
15,1695742323517,0.015380859,-1.0007935,0.066833496,7.265625,2.0625,1.21875,15
16,1695742323557,0.0087890625,-0.9939575,0.0048217773,9.703125,-1.734375,1.171875,16
17,1695742323597,0.0087890625,-0.9817505,0.024353027,7.59375,2.046875,2.625,17
18,1695742323637,0.0026855469,-0.98150635,-0.0095825195,12.84375,-1.40625,2.265625,18
19,1695742323677,0.03491211,-0.9968872,-0.023498535,4.359375,1.21875,3.09375,19
20,1695742323717,0.03857422,-0.9883423,0.0053100586,6.828125,-0.09375,2.375,20
21,1695742323757,0.059570312,-0.9859009,-0.034240723,7.25,-0.265625,1.890625,21
22,1695742323797,0.052978516,-0.97735596,-0.041809082,5.015625,-0.96875,1.734375,22
23,1695742323837,0.048339844,-0.9846802,-0.04107666,2.5625,-0.03125,1.9375,23
24,1695742323877,0.042236328,-0.97784424,-0.032287598,5.625,0.03125,0.75,24
25,1695742323917,0.048095703,-0.98760986,-0.07672119,7.203125,-0.609375,1.390625,25
26,1695742323957,0.051757812,-0.9812622,-0.061828613,1.703125,0.78125,1.109375,26
27,1695742323997,0.05517578,-0.98101807,-0.0881958,4.21875,-1.171875,0.75,27
28,1695742324037,0.07519531,-0.97491455,-0.08843994,-0.90625,0.734375,2.296875,28
29,1695742324077,0.05419922,-0.9795532,-0.082092285,1.953125,-0.25,0.359375,29
30,1695742324117,0.052001953,-0.96343994,-0.09039307,-0.546875,-0.40625,0.046875,30
31,1695742324157,0.05859375,-0.9541626,-0.09210205,-4.0,-1.46875,0.109375,31
32,1695742324197,0.09863281,-0.95562744,-0.08502197,-11.78125,-0.390625,-1.03125,32
33,1695742324237,0.07763672,-0.9776001,-0.03253174,-18.078125,1.265625,-2.75,33
34,1695742324277,0.0625,-1.022522,-0.002746582,-9.65625,-1.125,-1.34375,34
35,1695742324317,0.05883789,-0.99835205,-0.03741455,-6.375,-0.71875,-3.828125,35
36,1695742324357,0.047851562,-0.9915161,-0.018615723,-10.265625,0.90625,-5.515625,36
37,1695742324397,0.016113281,-0.9915161,-0.027160645,-10.078125,-0.234375,-5.703125,37
38,1695742324437,0.028564453,-0.987854,0.028503418,-14.875,1.515625,-4.15625,38
39,1695742324477,0.029296875,-0.9678345,0.07220459,-4.25,0.609375,-3.78125,39
40,1695742324517,0.02709961,-1.0083618,0.015563965,-4.34375,0.140625,-3.234375,40
41,1695742324557,0.030029297,-1.0005493,0.051452637,-11.46875,2.515625,-4.59375,41
42,1695742324597,0.0126953125,-0.9729614,0.082214355,-3.359375,1.125,-4.546875,42
43,1695742324637,-0.005859375,-0.9932251,0.03656006,-1.203125,0.296875,-2.75,43
44,1695742324677,-0.006591797,-0.9841919,0.078063965,-5.359375,1.109375,-2.203125,44
45,1695742324717,-0.013183594,-0.9915161,0.07733154,-3.421875,0.171875,-0.171875,45
46,1695742324757,-0.0014648438,-0.9871216,0.074401855,-0.265625,-0.46875,0.625,46
47,1695742324797,0.0063476562,-0.9837036,0.09051514,-1.453125,1.21875,-0.65625,47
48,1695742324837,-0.009765625,-1.005188,0.11273193,8.328125,2.5625,1.359375,48
49,1695742324877,-0.0068359375,-0.991272,0.03778076,16.34375,-1.15625,1.875,49
50,1695742324917,0.0126953125,-0.98760986,-0.0256958,11.25,-0.875,2.78125,50
51,1695742324957,0.0073242188,-0.9915161,0.031433105,0.6875,3.921875,2.796875,51
52,1695742324997,0.011230469,-0.9937134,0.015563965,17.71875,-1.078125,2.71875,52
53,1695742325037,0.032470703,-0.99664307,-0.069885254,5.40625,0.015625,2.640625,53
54,1695742325077,0.041748047,-0.9817505,0.018249512,-4.03125,0.640625,0.796875,54
55,1695742325117,0.030029297,-0.9920044,0.0048217773,11.125,-1.203125,2.171875,55
56,1695742325157,0.03491211,-0.9968872,-0.05303955,9.828125,0.25,1.484375,56
57,1695742325197,0.016357422,-0.9885864,-0.059143066,5.265625,-0.953125,0.9375,57
58,1695742325237,0.030517578,-0.97076416,-0.0647583,1.59375,-0.078125,1.421875,58
59,1695742325277,0.041259766,-0.98760986,-0.039855957,5.734375,-0.171875,2.578125,59
60,1695742325317,0.02368164,-0.98809814,-0.105285645,10.21875,-1.328125,0.453125,60
61,1695742325357,0.05419922,-0.9758911,-0.11383057,-5.09375,-0.453125,1.734375,61
62,1695742325397,0.06518555,-0.95928955,-0.016906738,-4.703125,0.609375,0.9375,62
63,1695742325437,0.036132812,-0.9795532,-0.066711426,10.265625,-1.953125,0.703125,63
64,1695742325477,0.06738281,-0.97442627,-0.13970947,-4.296875,-1.953125,1.34375,64
65,1695742325517,0.061523438,-0.9690552,-0.04473877,-9.21875,1.0625,-0.5,65
66,1695742325557,0.049316406,-0.956604,-0.08428955,-2.453125,-0.890625,-2.171875,66
67,1695742325597,0.051757812,-0.98150635,-0.08404541,-10.9375,-0.578125,-0.453125,67
68,1695742325637,0.051757812,-1.0061646,-0.04058838,-15.671875,0.5,-2.046875,68
69,1695742325677,0.06591797,-0.9956665,-0.0020141602,-12.34375,1.09375,-3.1875,69
70,1695742325717,0.03930664,-1.0032349,-0.022766113,-3.234375,0.6875,-4.03125,70
71,1695742325757,0.017089844,-0.987854,-0.035949707,-12.328125,1.15625,-5.515625,71
72,1695742325797,0.0056152344,-0.97906494,0.042419434,-13.4375,1.890625,-3.296875,72
73,1695742325837,0.0234375,-1.0061646,0.031188965,-4.0625,-0.625,-2.96875,73
74,1695742325877,0.025878906,-0.9944458,0.026794434,-8.484375,0.828125,-3.8125,74
75,1695742325917,0.0063476562,-0.9651489,0.08538818,-4.21875,0.921875,-3.25,75
76,1695742325957,-0.0068359375,-1.0029907,0.018737793,0.78125,-1.265625,-1.828125,76
77,1695742325997,0.013916016,-0.99591064,0.058288574,-5.515625,-0.203125,-2.671875,77
78,1695742326037,0.00048828125,-1.0015259,0.054626465,0.359375,0.3125,-1.796875,78
79,1695742326077,-0.0053710938,-0.9849243,0.041931152,-2.609375,0.15625,-0.84375,79
80,1695742326117,-0.0061035156,-0.98687744,0.055603027,-2.71875,-0.21875,-0.140625,80
81,1695742326157,0.0068359375,-0.9985962,0.050231934,-0.6875,0.109375,0.046875,81
82,1695742326197,0.0087890625,-0.9885864,0.05267334,-1.734375,1.328125,-0.796875,82
83,1695742326237,-0.017333984,-1.006897,0.08807373,1.6875,3.96875,1.484375,83
84,1695742326277,0.0075683594,-0.9824829,0.03778076,10.078125,-1.828125,1.3125,84
85,1695742326317,0.016601562,-0.9932251,-0.01763916,4.140625,0.890625,1.9375,85
86,1695742326357,0.013427734,-0.99542236,0.08001709,-1.375,1.421875,1.34375,86
87,1695742326397,-0.008544922,-0.99420166,0.015563965,15.5,-0.421875,1.296875,87
88,1695742326437,0.026367188,-0.9956665,-0.011291504,4.71875,-0.796875,2.6875,88
89,1695742326477,0.025146484,-0.99053955,0.01776123,6.03125,1.1875,1.921875,89
90,1695742326517,0.0234375,-0.9841919,-0.022521973,11.609375,-2.171875,2.46875,90
91,1695742326557,0.031982422,-0.9939575,-0.05670166,4.734375,-0.625,1.8125,91
92,1695742326597,0.033691406,-0.9859009,-0.028381348,0.5,0.046875,0.5,92
93,1695742326637,0.01171875,-0.98565674,-0.015197754,4.75,-0.203125,1.5625,93
94,1695742326677,0.029541016,-0.99591064,-0.07330322,6.25,-1.96875,0.609375,94
95,1695742326717,0.034423828,-0.9834595,-0.055725098,-6.078125,0.484375,1.171875,95
96,1695742326757,0.034179688,-0.97979736,-0.02130127,-0.890625,-1.65625,-0.4375,96
97,1695742326797,0.05102539,-0.9631958,-0.06793213,-1.46875,-0.46875,0.375,97
98,1695742326837,0.042236328,-0.9927368,-0.023254395,-0.578125,-1.0,0.421875,98
99,1695742326877,0.043701172,-0.956604,-0.066467285,-5.21875,-0.359375,-0.15625,99
100,1695742326917,0.057373047,-1.0032349,0.009460449,-0.859375,-0.125,0.96875,100
101,1695742326957,0.064697266,-0.96417236,-0.097473145,-0.6875,-1.109375,-3.0,101
102,1695742326997,0.05859375,-0.9751587,-0.06890869,-18.1875,1.390625,-2.28125,102
103,1695742327037,0.025390625,-0.9834595,0.055114746,-16.546875,2.515625,-1.78125,103
104,1695742327077,0.028564453,-1.0127563,0.023132324,1.578125,-0.859375,-1.71875,104
105,1695742327117,0.01586914,-1.0064087,-0.03277588,-4.25,1.125,-3.515625,105
106,1695742327157,0.025390625,-0.99176025,0.0026245117,-11.875,0.578125,-4.53125,106
107,1695742327197,0.013671875,-0.9932251,0.046569824,-7.03125,1.625,-3.25,107
108,1695742327237,0.010009766,-0.9963989,0.039001465,-2.796875,0.203125,-2.796875,108
109,1695742327277,0.00024414062,-0.9915161,0.043151855,-5.375,0.34375,-3.25,109
110,1695742327317,0.0031738281,-0.99884033,0.06048584,-3.5,1.0,-2.765625,110
111,1695742327357,-0.0087890625,-1.0066528,0.04534912,-5.09375,0.1875,-1.359375,111
112,1695742327397,0.0063476562,-0.98883057,0.06365967,-2.78125,0.203125,-0.96875,112
113,1695742327437,0.0,-0.98443604,0.050964355,-2.8125,0.546875,-2.0,113
114,1695742327477,-0.008544922,-0.99346924,0.070007324,-3.765625,1.078125,-1.28125,114
115,1695742327517,-0.008300781,-0.9961548,0.06341553,1.3125,0.46875,-0.34375,115
116,1695742327557,0.00024414062,-0.99713135,0.06829834,-2.9375,0.609375,-1.28125,116
117,1695742327597,-0.0041503906,-0.9927368,0.07562256,-1.171875,1.953125,-0.875,117
118,1695742327637,-0.018310547,-0.9976196,0.0836792,1.265625,1.609375,0.703125,118
119,1695742327677,-0.0024414062,-0.9985962,0.081726074,9.828125,-0.171875,2.453125,119
120,1695742327717,-0.00048828125,-0.99176025,-0.008850098,12.4375,-1.53125,2.015625,120
121,1695742327757,0.0068359375,-0.98760986,0.022644043,-0.953125,1.3125,2.328125,121
122,1695742327797,0.020019531,-0.9837036,0.078063965,8.890625,-0.796875,3.3125,122
123,1695742327837,0.026367188,-0.98809814,-0.01763916,11.703125,0.265625,1.4375,123
124,1695742327877,0.018798828,-0.9973755,-0.0115356445,4.03125,0.140625,1.9375,124
125,1695742327917,0.01928711,-0.99468994,0.0053100586,4.9375,-0.109375,1.953125,125
126,1695742327957,0.018554688,-0.9817505,-0.014709473,8.328125,-0.671875,2.15625,126
127,1695742327997,0.02734375,-0.99542236,-0.04888916,7.203125,-0.828125,1.765625,127
128,1695742328037,0.026611328,-0.98565674,-0.046203613,0.65625,0.46875,1.03125,128
129,1695742328077,0.01977539,-0.98321533,-0.03326416,6.8125,-0.40625,1.921875,129
130,1695742328117,0.03857422,-0.99053955,-0.07598877,3.21875,-0.359375,1.03125,130
131,1695742328157,0.024169922,-0.99786377,-0.046936035,-0.171875,-0.296875,0.78125,131
132,1695742328197,0.040039062,-0.9663696,-0.055725098,0.125,0.65625,0.296875,132
133,1695742328237,0.04345703,-0.98443604,-0.040100098,2.40625,-0.765625,1.640625,133
134,1695742328277,0.056884766,-0.9607544,-0.089660645,-2.34375,-1.453125,0.390625,134
135,1695742328317,0.053222656,-0.9854126,-0.030578613,-6.171875,-0.28125,0.890625,135
136,1695742328357,0.053466797,-0.9805298,-0.061340332,-3.375,-0.90625,-1.28125,136
137,1695742328397,0.06225586,-0.9685669,-0.08892822,-12.296875,0.015625,-2.109375,137
138,1695742328437,0.048339844,-0.99835205,0.005554199,-15.515625,1.46875,-1.921875,138
139,1695742328477,0.040527344,-0.9993286,-0.0044555664,-6.921875,0.03125,-3.9375,139
140,1695742328517,0.02758789,-0.99786377,-0.020568848,-7.75,0.96875,-4.1875,140
141,1695742328557,0.016845703,-0.9932251,0.01751709,-11.046875,1.203125,-3.984375,141
142,1695742328597,0.0043945312,-0.9968872,0.043884277,-8.828125,0.09375,-2.296875,142
143,1695742328637,0.022949219,-0.9981079,0.04486084,-5.453125,0.109375,-2.625,143
144,1695742328677,0.0146484375,-1.0015259,0.04559326,-4.890625,1.46875,-3.390625,144
145,1695742328717,-0.0075683594,-0.989563,0.04925537,-4.34375,1.359375,-2.875,145
146,1695742328757,0.0056152344,-0.9834595,0.06365967,-3.59375,0.609375,-2.65625,146
147,1695742328797,-0.0053710938,-0.9927368,0.04852295,-0.34375,-0.375,-0.84375,147
148,1695742328837,0.0053710938,-0.99786377,0.06756592,-4.53125,0.34375,-2.078125,148
149,1695742328877,-0.011962891,-0.9927368,0.07684326,-0.765625,0.765625,-1.6875,149
150,1695742328917,-0.0041503906,-0.99468994,0.05267334,0.515625,0.796875,-0.9375,150
151,1695742328957,-0.0036621094,-0.98931885,0.051452637,-2.140625,0.140625,-1.265625,151
152,1695742328997,-0.0048828125,-0.9902954,0.081970215,-1.328125,2.203125,-0.09375,152
153,1695742329037,-0.011230469,-1.0020142,0.07928467,6.515625,0.90625,2.203125,153
154,1695742329077,-0.009765625,-0.986145,0.00970459,9.546875,-1.28125,1.8125,154
155,1695742329117,-0.0031738281,-1.000061,0.0368042,2.71875,1.03125,2.71875,155
156,1695742329157,0.0036621094,-0.98443604,0.032165527,9.53125,-0.15625,3.125,156
157,1695742329197,0.0061035156,-0.99468994,0.0006713867,4.96875,-0.203125,2.625,157
158,1695742329237,0.020019531,-0.9907837,0.026306152,6.09375,0.078125,2.953125,158
159,1695742329277,0.032470703,-0.98931885,-0.0115356445,10.9375,-0.921875,1.8125,159
160,1695742329317,0.025634766,-0.99102783,-0.025939941,6.359375,-0.140625,1.65625,160
161,1695742329357,0.018554688,-0.987854,-0.023498535,5.4375,0.234375,1.90625,161
162,1695742329397,0.030517578,-0.98565674,-0.03741455,8.625,-1.015625,1.796875,162
163,1695742329437,0.03149414,-0.9915161,-0.10040283,3.34375,-1.375,0.390625,163
164,1695742329477,0.028808594,-0.99224854,-0.054748535,-9.21875,-0.671875,-0.109375,164
165,1695742329517,0.056884766,-0.9692993,-0.015197754,-3.21875,0.0625,-0.203125,165
166,1695742329557,0.011474609,-0.9976196,-0.046691895,4.109375,-0.078125,-0.6875,166
167,1695742329597,0.021484375,-0.98223877,-0.06011963,-3.671875,-0.375,1.96875,167
168,1695742329637,0.05126953,-0.989563,-0.016174316,-0.5,-0.921875,1.5625,168
169,1695742329677,0.057128906,-0.9595337,-0.06402588,0.109375,-1.203125,0.625,169
170,1695742329717,0.055419922,-0.9841919,-0.02520752,-4.375,0.828125,1.28125,170
171,1695742329757,0.059814453,-0.9631958,-0.059387207,-1.453125,-1.046875,-0.625,171
172,1695742329797,0.06958008,-0.9639282,-0.06304932,-14.984375,0.734375,-1.6875,172
173,1695742329837,0.040283203,-0.9956665,0.073913574,-14.28125,2.84375,-0.65625,173
174,1695742329877,0.039794922,-1.0181274,-0.0032348633,5.3125,-2.984375,-2.109375,174
175,1695742329917,0.033935547,-0.9968872,-0.074523926,-9.234375,1.828125,-4.390625,175
176,1695742329957,0.009033203,-0.98687744,0.058776855,-15.671875,2.40625,-3.1875,176
177,1695742329997,0.0056152344,-0.989563,0.038269043,1.40625,-0.65625,-2.046875,177
178,1695742330037,0.0234375,-0.9998169,-0.013000488,-5.5625,0.640625,-1.65625,178
179,1695742330077,0.01977539,-0.98931885,0.06317139,-9.375,1.328125,-1.640625,179
180,1695742330117,0.025146484,-0.9924927,0.06463623,-0.15625,-0.109375,-1.171875,180
181,1695742330157,0.030029297,-1.0027466,0.018493652,-3.265625,0.0625,-1.171875,181
182,1695742330197,0.028320312,-0.989563,0.062438965,-7.609375,0.84375,-3.046875,182
183,1695742330237,0.0014648438,-0.98516846,0.07733154,-3.640625,0.390625,-2.484375,183
184,1695742330277,0.0026855469,-0.9951782,0.047790527,-3.078125,-0.03125,-1.5625,184
185,1695742330317,0.007080078,-0.98687744,0.07562256,-3.6875,0.53125,-1.078125,185
186,1695742330357,0.013427734,-0.9963989,0.06121826,-0.890625,-0.390625,-0.703125,186
187,1695742330397,0.0048828125,-0.99102783,0.06951904,-2.859375,1.078125,-1.4375,187
188,1695742330437,-0.00024414062,-1.0005493,0.089538574,2.15625,1.984375,-0.453125,188
189,1695742330477,0.0007324219,-0.99713135,0.07147217,5.796875,0.25,0.5,189
190,1695742330517,-0.009033203,-0.99346924,0.0119018555,5.125,-0.5,0.484375,190
191,1695742330557,0.004638672,-0.9859009,0.05682373,1.5625,1.328125,2.171875,191
192,1695742330597,0.0043945312,-0.99664307,0.06341553,5.375,-0.28125,2.140625,192
193,1695742330637,0.015136719,-0.9993286,0.018493652,7.390625,0.375,1.921875,193
194,1695742330677,0.025146484,-0.98883057,0.02142334,7.3125,0.0,1.890625,194
195,1695742330717,0.022705078,-0.9800415,0.005554199,4.453125,0.125,1.671875,195
196,1695742330757,0.020507812,-0.99005127,0.014099121,5.1875,0.078125,1.828125,196
197,1695742330797,0.025390625,-0.99176025,-0.008361816,6.109375,-0.734375,2.28125,197
198,1695742330837,0.026611328,-0.9981079,-0.008850098,5.046875,-0.03125,1.421875,198
199,1695742330877,0.03173828,-0.9951782,-0.022033691,5.359375,0.375,1.375,199
200,1695742330917,0.041015625,-0.987854,-0.028381348,6.25,0.34375,1.84375,200
201,1695742330957,0.056152344,-0.98883057,-0.061828613,6.84375,0.28125,-0.421875,201
202,1695742330997,0.03564453,-0.97076416,-0.058166504,-2.09375,3.46875,-0.21875,202
203,1695742331037,0.024902344,-0.97442627,-0.024230957,4.625,-0.53125,0.375,203
204,1695742331077,0.040283203,-0.97369385,-0.09527588,2.0,-1.0,0.265625,204
205,1695742331117,0.060791016,-0.98809814,-0.054748535,-8.5625,0.046875,-0.015625,205
206,1695742331157,0.055664062,-0.9771118,-0.046936035,-9.703125,0.25,-3.125,206
207,1695742331197,0.034423828,-0.99053955,-0.043518066,-14.265625,0.375,-2.5625,207
208,1695742331237,0.02758789,-0.98809814,0.024597168,-16.40625,0.390625,-2.15625,208
209,1695742331277,0.03466797,-1.0059204,0.046569824,-4.390625,-1.09375,-1.703125,209
210,1695742331317,0.026611328,-1.0059204,-0.0051879883,-6.078125,0.8125,-4.5625,210
211,1695742331357,0.0,-0.9932251,0.014831543,-9.96875,0.15625,-3.53125,211
212,1695742331397,0.010498047,-0.9795532,0.06097412,-5.0,0.15625,-2.5625,212
213,1695742331437,0.0146484375,-0.9937134,0.03338623,-4.109375,0.15625,-3.359375,213
214,1695742331477,0.008544922,-0.9898071,0.05267334,-7.546875,1.40625,-3.46875,214
215,1695742331517,0.0087890625,-1.0090942,0.05633545,-1.734375,-1.625,-2.546875,215
216,1695742331557,0.0024414062,-0.9907837,0.047790527,-4.0,1.640625,-2.734375,216
217,1695742331597,-0.028320312,-0.9783325,0.06976318,0.734375,0.8125,-2.328125,217
218,1695742331637,-0.028808594,-1.000061,0.046569824,-2.046875,-0.625,-2.03125,218
219,1695742331677,-0.0043945312,-0.9924927,0.07537842,-3.09375,0.25,-2.109375,219
220,1695742331717,-0.016113281,-0.9920044,0.058044434,-0.078125,1.015625,-0.953125,220
221,1695742331757,-0.027832031,-1.0012817,0.06732178,-1.78125,1.078125,0.125,221
222,1695742331797,-0.0068359375,-0.99420166,0.06976318,-2.03125,1.0,-0.734375,222
223,1695742331837,-0.010009766,-1.00177,0.08001709,-2.171875,2.171875,-0.59375,223
224,1695742331877,-0.01928711,-1.0037231,0.082458496,1.96875,-0.21875,0.703125,224
225,1695742331917,-0.022705078,-0.9846802,0.0038452148,1.546875,-1.390625,0.25,225
226,1695742331957,-0.004638672,-0.9949341,0.10443115,-4.34375,2.5,2.5,226
227,1695742331997,-0.009521484,-0.9976196,0.07562256,6.375,-1.171875,1.84375,227
228,1695742332037,-0.005126953,-0.9949341,0.03338623,5.640625,0.6875,2.296875,228
229,1695742332077,0.013671875,-0.9949341,0.058776855,2.484375,-0.34375,2.234375,229
230,1695742332117,0.011230469,-0.989563,0.04144287,6.78125,-0.734375,1.78125,230
231,1695742332157,0.020507812,-0.9990845,0.016784668,3.390625,-1.234375,1.640625,231
232,1695742332197,0.0007324219,-1.0007935,0.019714355,-0.1875,1.71875,-0.375,232
233,1695742332237,-0.01928711,-0.97198486,0.038024902,3.609375,0.359375,1.03125,233
234,1695742332277,0.02709961,-0.9981079,0.036071777,6.390625,-1.84375,3.453125,234
235,1695742332317,0.03955078,-0.99468994,-0.01373291,6.578125,-0.78125,1.015625,235
236,1695742332357,0.0073242188,-1.000061,-0.01373291,4.46875,-0.8125,1.015625,236
237,1695742332397,0.020507812,-0.9807739,-0.007385254,2.453125,-0.96875,1.625,237
238,1695742332437,0.032714844,-0.9846802,-0.027404785,4.28125,-1.453125,1.46875,238
239,1695742332477,0.03930664,-0.9656372,-0.034484863,-1.90625,-0.34375,0.453125,239
240,1695742332517,0.049072266,-0.97857666,-0.04547119,-7.25,-0.890625,-0.4375,240
241,1695742332557,0.05444336,-0.98394775,-0.011779785,-17.703125,2.140625,-2.28125,241
242,1695742332597,0.041503906,-0.99664307,0.06951904,-11.59375,1.28125,-1.6875,242
243,1695742332637,0.03955078,-1.0193481,0.022888184,-0.0625,-0.859375,-3.484375,243
244,1695742332677,0.012939453,-1.0066528,-0.0022583008,-11.90625,2.171875,-5.96875,244
245,1695742332717,-0.016357422,-0.9981079,0.1083374,-1.03125,-0.0625,-3.75,245
246,1695742332757,-0.006591797,-0.99176025,0.02923584,2.171875,-0.203125,-2.78125,246
247,1695742332797,0.0034179688,-0.99591064,0.04559326,-3.609375,0.84375,-2.75,247
248,1695742332837,-0.0078125,-0.99224854,0.058532715,-2.71875,0.96875,-2.890625,248
249,1695742332877,-0.0075683594,-0.9973755,0.06390381,-1.140625,1.6875,-1.84375,249
250,1695742332917,-0.010498047,-0.99346924,0.03729248,-5.328125,1.34375,-1.734375,250
251,1695742332957,-0.0056152344,-0.9890747,0.07757568,-3.9375,0.8125,-1.1875,251
252,1695742332997,-0.014160156,-0.9924927,0.06439209,-0.171875,0.84375,-2.609375,252
253,1695742333037,-0.045166016,-0.9932251,0.062194824,-0.03125,2.09375,-2.203125,253
254,1695742333077,-0.01928711,-1.0076294,0.055603027,-3.734375,-0.40625,0.0625,254
255,1695742333117,-0.008544922,-0.99468994,0.08685303,-3.234375,2.734375,1.390625,255
256,1695742333157,-0.010253906,-0.97906494,0.07196045,5.984375,-1.21875,0.390625,256
257,1695742333197,-0.046875,-0.9717407,0.06854248,10.15625,1.21875,4.421875,257
258,1695742333237,-0.001953125,-1.020813,0.04852295,11.640625,-3.59375,5.625,258
259,1695742333277,0.060546875,-1.0020142,-0.034973145,5.453125,-1.5,1.953125,259
260,1695742333317,0.0024414062,-0.98516846,0.039245605,1.84375,2.453125,1.671875,260
261,1695742333357,-0.0012207031,-0.991272,0.010437012,11.3125,-3.671875,2.9375,261
262,1695742333397,0.0234375,-0.9866333,-0.0256958,5.734375,-0.765625,3.421875,262
263,1695742333437,0.03149414,-1.003479,-0.0178833,5.46875,-1.421875,2.28125,263
264,1695742333477,0.024902344,-0.9866333,-0.027404785,1.328125,-0.03125,0.9375,264
265,1695742333517,0.0007324219,-0.98760986,-0.008361816,5.234375,0.359375,2.375,265
266,1695742333557,0.033447266,-0.99176025,-0.0635376,5.40625,-3.5,3.0,266
267,1695742333597,0.046142578,-0.9854126,-0.042541504,-3.03125,0.890625,2.171875,267
268,1695742333637,0.029541016,-0.9866333,0.0060424805,5.09375,-0.375,2.171875,268
269,1695742333677,0.034179688,-0.9949341,-0.07623291,12.640625,-2.640625,2.875,269
270,1695742333717,0.04638672,-0.9795532,-0.11505127,-2.328125,-0.46875,1.125,270
271,1695742333757,0.052246094,-0.9534302,-0.023986816,-7.546875,-0.28125,2.203125,271
272,1695742333797,0.071777344,-0.9734497,-0.066467285,5.21875,-2.015625,1.375,272
273,1695742333837,0.076660156,-0.9685669,-0.1116333,-11.046875,0.375,-0.015625,273
274,1695742333877,0.088378906,-0.9727173,-0.01739502,-20.296875,0.3125,-3.15625,274
275,1695742333917,0.050048828,-1.00177,0.015808105,-9.625,0.890625,-3.34375,275
276,1695742333957,0.040039062,-1.0071411,-0.0025024414,-5.078125,0.078125,-2.625,276
277,1695742333997,0.032470703,-1.0154419,-0.020812988,-8.703125,0.125,-3.75,277
278,1695742334037,0.016357422,-1.0005493,0.027770996,-12.4375,1.203125,-3.8125,278
279,1695742334077,0.03149414,-0.9690552,0.04168701,-4.875,-1.421875,-3.5,279
280,1695742334117,0.025390625,-0.98101807,0.044128418,-2.015625,1.34375,-3.3125,280
281,1695742334157,0.0087890625,-1.005188,0.035583496,-5.078125,1.40625,-3.796875,281
282,1695742334197,0.016601562,-0.991272,0.04534912,-3.328125,0.59375,-3.015625,282
283,1695742334237,0.0234375,-0.99884033,0.030456543,-0.890625,0.875,-2.46875,283
284,1695742334277,-0.0048828125,-0.99542236,0.04486084,-5.03125,1.078125,-1.875,284
285,1695742334317,0.014404297,-0.98443604,0.059509277,-3.515625,0.0,-2.71875,285
286,1695742334357,0.0034179688,-0.99053955,0.06561279,-4.53125,1.984375,-3.140625,286
287,1695742334397,-0.013916016,-0.99884033,0.08392334,-0.484375,0.65625,-1.890625,287
288,1695742334437,0.0048828125,-1.0020142,0.044128418,-0.53125,0.34375,-1.78125,288
289,1695742334477,-0.012939453,-0.9924927,0.06365967,-2.0,2.03125,-1.609375,289
290,1695742334517,-0.0056152344,-1.000061,0.074157715,4.890625,-0.375,0.828125,290
291,1695742334557,-0.0234375,-1.0081177,0.055603027,4.390625,0.921875,0.875,291
292,1695742334597,-0.010253906,-0.98565674,0.034118652,10.03125,-1.328125,3.375,292
293,1695742334637,0.016845703,-0.97979736,0.01727295,3.546875,0.203125,2.09375,293
294,1695742334677,0.019042969,-1.0027466,0.036071777,0.859375,-0.015625,1.96875,294
295,1695742334717,0.0012207031,-0.9871216,0.035339355,6.234375,0.734375,1.453125,295
296,1695742334757,-0.010498047,-1.0061646,0.0040893555,8.5,-0.96875,3.171875,296
297,1695742334797,0.04248047,-0.9890747,-0.0064086914,3.1875,-1.375,2.640625,297
298,1695742334837,0.042236328,-0.9776001,-0.0010375977,6.09375,0.421875,1.3125,298
299,1695742334877,0.012451172,-0.9976196,-0.012756348,7.21875,-0.578125,2.390625,299
300,1695742334917,0.016357422,-0.98883057,-0.0413208,7.234375,-1.28125,2.09375,300
301,1695742334957,0.041259766,-0.9898071,-0.046691895,1.90625,-0.1875,1.703125,301
302,1695742334997,0.03466797,-0.9951782,-0.023498535,4.0,-0.171875,0.96875,302
303,1695742335037,0.021484375,-0.9812622,-0.06744385,6.28125,-1.109375,1.125,303
304,1695742335077,0.03881836,-0.98565674,-0.06768799,-2.125,-0.6875,0.78125,304
305,1695742335117,0.05493164,-0.975647,-0.034484863,-1.21875,-0.640625,1.53125,305
306,1695742335157,0.056152344,-0.96954346,-0.078430176,2.375,-1.5,-0.1875,306
307,1695742335197,0.06567383,-0.9624634,-0.08087158,-13.734375,-0.0625,-0.671875,307
308,1695742335237,0.055908203,-0.97125244,-0.016174316,-19.21875,1.484375,-2.140625,308
309,1695742335277,0.0546875,-1.006897,0.036315918,-11.03125,0.84375,-1.890625,309
310,1695742335317,0.056640625,-1.0164185,-0.0017700195,-1.65625,-0.953125,-3.21875,310
311,1695742335357,0.024169922,-0.99713135,-0.030822754,-10.921875,1.5625,-6.40625,311
312,1695742335397,-0.009033203,-0.9829712,0.050231934,-12.640625,1.640625,-4.6875,312
313,1695742335437,0.0041503906,-0.9907837,0.046569824,-2.421875,-1.25,-2.40625,313
314,1695742335477,0.01953125,-0.9976196,0.028259277,-7.203125,0.75,-3.609375,314
315,1695742335517,0.014160156,-0.97784424,0.085632324,-5.109375,2.625,-4.21875,315
316,1695742335557,-0.018066406,-0.9993286,0.02532959,1.71875,-0.671875,-1.4375,316
317,1695742335597,0.014404297,-1.003479,0.059020996,-6.953125,0.640625,-1.921875,317
318,1695742335637,0.014404297,-0.9819946,0.070739746,-1.03125,0.359375,-3.390625,318
319,1695742335677,-0.021728516,-0.9907837,0.05657959,-0.984375,0.359375,-1.109375,319
320,1695742335717,-0.0126953125,-0.9976196,0.070739746,-2.984375,0.40625,-1.328125,320
321,1695742335757,-0.010009766,-0.99298096,0.058288574,-2.25,1.390625,-1.375,321
322,1695742335797,-0.021484375,-1.0061646,0.074645996,-2.296875,1.609375,-0.09375,322
323,1695742335837,-0.024169922,-0.9949341,0.09100342,2.765625,1.703125,1.78125,323
324,1695742335877,-0.012939453,-0.99713135,0.045837402,5.328125,-1.203125,3.109375,324
325,1695742335917,0.005859375,-0.99005127,0.023132324,1.296875,-0.75,2.84375,325
326,1695742335957,0.0078125,-0.9846802,0.086120605,1.78125,1.359375,3.03125,326
327,1695742335997,0.0061035156,-0.9973755,0.053649902,11.765625,-0.609375,3.4375,327
328,1695742336037,0.017089844,-0.987854,-0.009094238,12.625,-0.4375,2.5,328
329,1695742336077,0.028320312,-0.9956665,0.00970459,0.0,0.984375,2.3125,329
330,1695742336117,0.030029297,-0.9841919,0.038757324,7.296875,-1.25,2.484375,330
331,1695742336157,0.03173828,-0.99102783,-0.027648926,11.140625,-0.8125,2.40625,331
332,1695742336197,0.042236328,-1.0176392,-0.038879395,2.34375,-0.859375,1.578125,332
333,1695742336237,0.022705078,-0.9819946,-0.050354004,-0.796875,-0.015625,0.0625,333
334,1695742336277,0.013183594,-0.9768677,-0.008361816,-0.0625,0.125,1.734375,334
335,1695742336317,0.04321289,-0.97442627,-0.026428223,2.71875,-1.359375,0.765625,335
336,1695742336357,0.030761719,-0.9885864,-0.038635254,-0.5625,-0.15625,1.4375,336
337,1695742336397,0.04711914,-0.9854126,-0.0020141602,-0.359375,-0.984375,1.46875,337
338,1695742336437,0.06201172,-0.9661255,-0.06036377,0.578125,-1.15625,-0.28125,338
339,1695742336477,0.061523438,-0.9663696,-0.03277588,-12.171875,0.953125,-0.53125,339
340,1695742336517,0.059326172,-0.9734497,0.024353027,-12.515625,-0.078125,-1.859375,340
341,1695742336557,0.04321289,-0.9961548,-0.0044555664,-5.671875,-0.25,-1.984375,341
342,1695742336597,0.035888672,-1.0125122,0.0048217773,-9.78125,1.5,-2.375,342
343,1695742336637,0.021972656,-1.000061,0.035339355,-8.3125,0.75,-4.546875,343
344,1695742336677,0.015136719,-0.9854126,0.024597168,-5.25,0.765625,-3.5625,344
345,1695742336717,0.021240234,-1.0007935,0.04168701,-6.3125,-0.4375,-2.734375,345
346,1695742336757,0.019042969,-0.991272,0.059509277,-6.546875,0.859375,-2.875,346
347,1695742336797,0.008300781,-0.99713135,0.07733154,-1.40625,0.828125,-1.453125,347
348,1695742336837,0.010253906,-1.0088501,0.042419434,-0.96875,0.21875,-1.421875,348
349,1695742336877,0.012939453,-0.99005127,0.06585693,-2.171875,1.140625,-2.0625,349
350,1695742336917,0.009765625,-0.9968872,0.059509277,-0.96875,-0.34375,-1.375,350
351,1695742336957,0.0056152344,-0.9949341,0.06707764,-2.0,0.765625,-1.390625,351
352,1695742336997,0.0053710938,-0.9846802,0.059509277,-1.78125,-0.125,-0.78125,352
353,1695742337037,0.009765625,-1.0012817,0.062194824,-2.84375,0.1875,-1.03125,353
354,1695742337077,0.0,-0.9981079,0.07757568,-2.171875,1.09375,-0.984375,354
355,1695742337117,-0.005859375,-0.9915161,0.081970215,-0.859375,1.828125,0.34375,355
356,1695742337157,0.008056641,-1.0088501,0.06561279,1.484375,0.375,0.75,356
357,1695742337197,0.0075683594,-0.9812622,0.06781006,4.765625,0.625,1.078125,357
358,1695742337237,-0.0075683594,-0.9944458,0.047302246,7.109375,-0.25,2.5625,358
359,1695742337277,0.0126953125,-0.98687744,0.04144287,3.40625,-0.015625,3.0625,359
360,1695742337317,0.026611328,-1.0012817,0.03729248,4.953125,-0.359375,2.109375,360
361,1695742337357,0.032226562,-0.98101807,0.026550293,5.765625,0.109375,1.546875,361
362,1695742337397,0.01977539,-0.99298096,0.0289917,7.515625,0.265625,2.0625,362
363,1695742337437,0.022705078,-0.9939575,-0.0037231445,5.21875,-1.171875,1.71875,363
364,1695742337477,0.053466797,-0.9932251,0.0099487305,3.3125,-0.109375,1.640625,364
365,1695742337517,0.024902344,-0.98516846,0.012634277,6.90625,1.265625,0.78125,365
366,1695742337557,0.026611328,-1.0005493,-0.028625488,8.625,-2.328125,1.5,366
367,1695742337597,0.036376953,-0.98028564,-0.05596924,0.703125,-0.3125,0.828125,367
368,1695742337637,0.037597656,-0.98760986,-0.010314941,-3.765625,-0.40625,0.984375,368
369,1695742337677,0.03930664,-0.9841919,-0.034484863,-1.625,-2.21875,-1.21875,369
370,1695742337717,0.047851562,-0.973938,-0.04034424,-2.453125,-0.765625,1.0625,370
371,1695742337757,0.041259766,-0.96588135,0.0045776367,-7.171875,-0.046875,0.6875,371
372,1695742337797,0.04272461,-0.98150635,-6.1035156e-05,2.125,-0.578125,0.90625,372
373,1695742337837,0.072021484,-0.9993286,-0.051330566,-3.671875,-0.25,-0.640625,373
374,1695742337877,0.044433594,-0.975647,-0.00982666,-14.890625,1.296875,-2.3125,374
375,1695742337917,0.043701172,-0.987854,0.042663574,-8.234375,0.03125,-1.15625,375
376,1695742337957,0.039794922,-1.0056763,0.0026245117,-3.984375,-0.5,-2.765625,376
377,1695742337997,0.036376953,-1.0071411,0.010192871,-12.140625,1.375,-4.03125,377
378,1695742338037,0.009277344,-0.99176025,0.07489014,-6.59375,1.3125,-2.875,378
379,1695742338077,0.015380859,-0.9937134,0.04095459,-2.140625,-0.625,-2.703125,379
380,1695742338117,0.033203125,-0.9990845,0.051208496,-7.59375,0.921875,-3.359375,380
381,1695742338157,0.032714844,-1.0015259,0.09515381,-0.171875,0.75,-3.265625,381
382,1695742338197,0.014160156,-1.0005493,0.05706787,1.21875,0.453125,-3.078125,382
383,1695742338237,-0.007080078,-0.9849243,0.054870605,0.875,0.828125,-2.65625,383
384,1695742338277,-0.020263672,-0.9890747,0.038757324,-2.34375,-0.015625,-1.3125,384
385,1695742338317,-0.0031738281,-1.0010376,0.074645996,-5.03125,0.296875,-0.921875,385
386,1695742338357,-0.0014648438,-1.005188,0.07342529,-0.9375,1.15625,-0.1875,386
387,1695742338397,0.0,-0.9898071,0.055114746,-1.03125,0.3125,0.171875,387
388,1695742338437,0.008056641,-0.9949341,0.08319092,-4.703125,1.65625,-0.421875,388
389,1695742338477,-0.0029296875,-1.0012817,0.07904053,0.046875,0.78125,0.265625,389
390,1695742338517,-0.0053710938,-0.98443604,0.066101074,3.53125,1.265625,1.8125,390
391,1695742338557,0.01586914,-0.98883057,0.07366943,4.046875,-0.328125,2.5625,391
392,1695742338597,0.033691406,-0.9841919,0.05340576,7.6875,0.484375,2.265625,392
393,1695742338637,0.02734375,-0.99542236,0.051696777,10.15625,0.5625,2.109375,393
394,1695742338677,0.016845703,-0.9890747,0.00018310547,9.390625,-0.6875,1.59375,394
395,1695742338717,0.013427734,-0.99468994,0.027038574,1.65625,0.65625,1.9375,395
396,1695742338757,0.022949219,-0.9985962,0.024841309,9.296875,-0.671875,1.640625,396
397,1695742338797,0.02758789,-0.9932251,-0.043518066,8.1875,-0.40625,0.8125,397
398,1695742338837,0.018798828,-0.98760986,-0.0005493164,-0.921875,0.828125,1.328125,398
399,1695742338877,0.032470703,-0.99346924,0.010681152,10.421875,-1.515625,1.9375,399
400,1695742338917,0.03173828,-0.9956665,-0.081604004,4.890625,-0.90625,0.1875,400
401,1695742338957,0.044921875,-0.99102783,-0.012512207,-4.265625,0.4375,2.359375,401
402,1695742338997,0.052734375,-0.9627075,-0.018371582,3.78125,-0.953125,0.046875,402
403,1695742339037,0.043945312,-0.97906494,-0.054748535,3.25,-0.875,1.40625,403
404,1695742339077,0.048339844,-0.9800415,-0.034240723,-5.109375,1.171875,-0.328125,404
405,1695742339117,0.053955078,-0.9841919,-0.023010254,1.15625,-0.125,-0.359375,405
406,1695742339157,0.057373047,-0.97369385,-0.093322754,-3.375,-0.84375,-1.875,406
407,1695742339197,0.05517578,-0.97540283,-0.039855957,-21.171875,1.140625,-3.0,407
408,1695742339237,0.035888672,-0.98883057,0.062194824,-15.40625,1.34375,-1.96875,408
409,1695742339277,0.03149414,-1.022522,0.029968262,0.8125,-1.0625,-2.40625,409
410,1695742339317,0.017089844,-0.99591064,-0.045715332,-8.359375,0.3125,-5.203125,410
411,1695742339357,0.014160156,-0.98883057,0.055114746,-17.40625,1.96875,-3.640625,411
412,1695742339397,0.010009766,-0.98687744,0.09173584,-0.171875,-0.484375,-2.703125,412
413,1695742339437,0.0043945312,-1.006897,0.0119018555,-2.140625,-0.203125,-2.09375,413
414,1695742339477,0.0061035156,-0.98394775,0.06781006,-8.015625,1.765625,-2.40625,414
415,1695742339517,0.0078125,-0.9990845,0.06390381,0.9375,-0.0625,-1.375,415
416,1695742339557,0.011962891,-0.98809814,0.055114746,-3.640625,1.34375,-1.453125,416
417,1695742339597,0.0041503906,-0.99298096,0.070007324,-1.46875,0.40625,-1.21875,417
418,1695742339637,0.001953125,-0.99176025,0.06365967,0.15625,0.359375,-1.1875,418
419,1695742339677,0.0017089844,-0.9920044,0.06463623,-1.84375,0.5,-1.375,419
420,1695742339717,-0.010009766,-1.0012817,0.06365967,-2.5,0.421875,-0.65625,420
421,1695742339757,-0.0007324219,-0.9951782,0.08905029,-1.75,1.84375,0.171875,421
422,1695742339797,0.0017089844,-0.9973755,0.08319092,1.703125,1.578125,0.5625,422
423,1695742339837,0.0014648438,-0.9793091,0.05291748,5.953125,0.015625,0.6875,423
424,1695742339877,0.0034179688,-0.9883423,0.046081543,3.78125,2.1875,2.140625,424
425,1695742339917,0.008056641,-0.9963989,0.078063965,7.5625,-0.859375,3.234375,425
426,1695742339957,0.01928711,-1.0005493,0.027526855,14.5,0.109375,2.3125,426
427,1695742339997,0.017578125,-0.98931885,-0.008117676,8.171875,-0.140625,1.359375,427
428,1695742340037,0.022705078,-0.9944458,-0.008117676,5.703125,0.125,2.140625,428
429,1695742340077,0.023925781,-0.9824829,0.0065307617,8.109375,-0.46875,2.984375,429
430,1695742340117,0.025878906,-0.9961548,-0.035949707,12.390625,-0.890625,2.4375,430
431,1695742340157,0.029785156,-0.99542236,-0.07720947,4.75,-0.71875,0.890625,431
432,1695742340197,0.025390625,-0.97247314,-0.051330566,-0.953125,0.65625,2.046875,432
433,1695742340237,0.041992188,-0.9741821,-0.031066895,3.34375,-0.15625,1.40625,433
434,1695742340277,0.055908203,-0.99664307,-0.043029785,3.359375,0.078125,2.109375,434
435,1695742340317,0.037841797,-0.9829712,-0.062316895,3.71875,0.40625,0.671875,435
436,1695742340357,0.053466797,-0.97052,-0.05621338,-0.875,-0.109375,1.203125,436
437,1695742340397,0.056396484,-0.9834595,-0.06036377,3.96875,-1.28125,0.921875,437
438,1695742340437,0.06713867,-0.96832275,-0.108947754,-3.078125,-1.0,-0.4375,438
439,1695742340477,0.060058594,-0.9768677,-0.066711426,-14.3125,0.625,-2.109375,439
440,1695742340517,0.03540039,-0.9729614,-0.033996582,-14.234375,0.15625,-2.796875,440
441,1695742340557,0.05419922,-1.0022583,-0.012512207,-13.28125,-0.671875,-1.125,441
442,1695742340597,0.049804688,-1.0022583,0.01361084,-11.09375,1.625,-4.09375,442
443,1695742340637,0.025390625,-0.9956665,0.006286621,-5.421875,0.828125,-4.40625,443
444,1695742340677,0.01928711,-1.0010376,0.011169434,-8.421875,-0.34375,-3.40625,444
445,1695742340717,0.01977539,-0.98101807,0.039733887,-9.015625,1.375,-3.484375,445
446,1695742340757,0.018798828,-0.98883057,0.042419434,-4.84375,0.5625,-3.28125,446
447,1695742340797,0.0009765625,-0.989563,0.038757324,-3.953125,0.375,-2.671875,447
448,1695742340837,0.0073242188,-0.9890747,0.057556152,-2.765625,0.578125,-2.359375,448
449,1695742340877,0.0068359375,-0.9985962,0.04071045,-0.140625,0.015625,-2.765625,449
450,1695742340917,0.01171875,-0.9963989,0.04876709,-2.390625,0.71875,-3.5,450
451,1695742340957,-0.012207031,-0.98565674,0.05999756,-2.984375,0.609375,-2.140625,451
452,1695742340997,-0.021240234,-0.9932251,0.05682373,-3.96875,0.90625,-0.34375,452
453,1695742341037,0.0007324219,-0.99298096,0.061950684,-3.65625,-0.09375,-0.546875,453
454,1695742341077,0.0009765625,-0.99176025,0.07293701,-2.734375,1.21875,-0.53125,454
455,1695742341117,-0.0048828125,-1.0032349,0.07147217,0.578125,0.953125,0.390625,455
456,1695742341157,-0.0009765625,-0.9924927,0.04949951,2.15625,-0.296875,0.40625,456
457,1695742341197,-0.011474609,-0.9915161,0.06365967,2.78125,1.65625,1.53125,457
458,1695742341237,-0.011962891,-0.99346924,0.061706543,8.859375,-0.71875,3.28125,458
459,1695742341277,0.010009766,-0.99420166,0.0119018555,6.171875,-0.0625,2.421875,459
460,1695742341317,0.021240234,-0.989563,0.038024902,3.875,0.4375,2.625,460
461,1695742341357,0.024414062,-0.9932251,0.021911621,9.125,-0.640625,1.796875,461
462,1695742341397,0.01977539,-0.99957275,-0.012756348,4.125,0.53125,1.59375,462
463,1695742341437,0.01928711,-0.9885864,0.028259277,4.390625,0.359375,1.890625,463
464,1695742341477,0.028808594,-0.9915161,-0.014221191,9.3125,-0.890625,0.671875,464
465,1695742341517,0.026123047,-0.991272,-0.0178833,5.28125,1.375,1.375,465
466,1695742341557,0.022949219,-0.9907837,-0.02911377,7.515625,-0.28125,0.015625,466
467,1695742341597,0.020263672,-0.9734497,-0.042785645,5.03125,1.25,0.796875,467
468,1695742341637,0.027832031,-0.98223877,-0.054260254,6.375,-1.53125,0.5625,468
469,1695742341677,0.032470703,-0.9763794,-0.07525635,2.4375,-0.375,0.765625,469
470,1695742341717,0.04638672,-0.9795532,-0.04937744,-1.5,-0.8125,0.578125,470
471,1695742341757,0.032470703,-0.95977783,-0.07623291,1.875,-1.140625,0.234375,471
472,1695742341797,0.04711914,-0.9768677,-0.08526611,-5.421875,-0.71875,-0.015625,472
473,1695742341837,0.041748047,-0.9644165,-0.028381348,-12.15625,0.609375,-1.40625,473
474,1695742341877,0.047851562,-0.9849243,-0.04498291,-10.953125,-1.234375,-1.96875,474
475,1695742341917,0.049560547,-0.9993286,-0.020812988,-16.28125,0.671875,-2.53125,475
476,1695742341957,0.036621094,-0.9990845,0.031921387,-10.3125,0.5,-2.890625,476
477,1695742341997,0.015625,-0.9993286,0.0018920898,-5.6875,0.28125,-4.765625,477
478,1695742342037,0.0012207031,-0.9981079,0.020690918,-10.640625,1.3125,-4.234375,478
479,1695742342077,0.00024414062,-0.9907837,0.046081543,-6.734375,-0.359375,-2.84375,479
480,1695742342117,0.012207031,-0.98443604,0.061706543,-4.4375,0.140625,-2.84375,480
481,1695742342157,0.001953125,-1.0105591,0.028747559,-2.359375,-0.28125,-2.484375,481
482,1695742342197,-0.009765625,-1.0015259,0.055603027,-5.75,1.484375,-2.9375,482
483,1695742342237,-0.0087890625,-0.9985962,0.07928467,-6.953125,0.765625,-0.71875,483
484,1695742342277,0.0,-0.98687744,0.058044434,-1.859375,-0.703125,-0.578125,484
485,1695742342317,0.007080078,-0.99176025,0.073913574,-3.46875,0.46875,-0.375,485
486,1695742342357,0.00024414062,-0.99005127,0.07757568,-1.671875,0.578125,-1.703125,486
487,1695742342397,-0.0073242188,-0.9968872,0.06512451,2.34375,-0.328125,-1.09375,487
488,1695742342437,-0.0021972656,-0.9993286,0.073913574,-1.09375,1.0625,-0.65625,488
489,1695742342477,-0.011230469,-0.99664307,0.06976318,-0.65625,2.0625,0.59375,489
490,1695742342517,-0.009033203,-0.99542236,0.07489014,4.140625,-0.375,1.359375,490
491,1695742342557,-0.0146484375,-0.9956665,0.06732178,5.71875,0.625,2.09375,491
492,1695742342597,-0.01171875,-0.98687744,0.038513184,8.484375,-1.109375,3.171875,492
493,1695742342637,0.011962891,-0.99468994,0.022155762,5.59375,-0.0625,2.3125,493
494,1695742342677,0.0012207031,-0.9951782,0.018981934,3.5,0.328125,2.359375,494
495,1695742342717,0.03173828,-0.99346924,0.03314209,7.34375,-0.6875,3.109375,495
496,1695742342757,0.029785156,-0.986145,-0.0037231445,8.6875,-0.484375,1.8125,496
497,1695742342797,0.028808594,-1.0081177,-0.014221191,4.78125,-0.484375,2.375,497
498,1695742342837,0.018066406,-0.99005127,0.012145996,5.328125,1.1875,2.125,498
499,1695742342877,0.034423828,-0.9714966,-0.02960205,12.015625,-0.578125,2.015625,499
500,1695742342917,0.03540039,-0.99053955,-0.07086182,5.3125,0.0,1.21875,500
501,1695742342957,0.04345703,-0.97857666,-0.026672363,-0.21875,1.890625,1.71875,501
502,1695742342997,0.025878906,-0.98394775,-0.058166504,9.828125,-0.328125,1.28125,502
503,1695742343037,0.037841797,-0.97979736,-0.10601807,-0.078125,-0.0625,1.34375,503
504,1695742343077,0.060058594,-0.9817505,-0.031311035,-5.96875,0.453125,0.25,504
505,1695742343117,0.042236328,-0.9656372,-0.06549072,4.0625,-0.890625,-1.171875,505
506,1695742343157,0.05126953,-0.98272705,-0.105041504,-12.015625,-0.6875,-1.5,506
507,1695742343197,0.052001953,-0.9758911,-0.019592285,-23.234375,0.03125,-3.09375,507
508,1695742343237,0.038085938,-0.98809814,0.023132324,-12.375,-0.234375,-3.796875,508
509,1695742343277,0.026611328,-1.008606,0.016784668,-7.375,0.5,-3.421875,509
510,1695742343317,0.006591797,-1.0005493,0.007019043,-8.5625,0.4375,-4.09375,510
511,1695742343357,0.023925781,-0.99884033,0.03387451,-8.796875,-0.75,-3.203125,511
512,1695742343397,0.009277344,-0.9932251,0.04071045,-6.5,0.859375,-4.453125,512
513,1695742343437,-0.0126953125,-0.99224854,0.055603027,-6.859375,1.0625,-3.28125,513
514,1695742343477,-0.01977539,-0.9846802,0.05657959,0.421875,-1.28125,-1.5625,514
515,1695742343517,-0.0036621094,-0.98687744,0.050964355,-0.390625,0.375,0.3125,515
516,1695742343557,0.0017089844,-1.0022583,0.042663574,0.28125,-0.015625,0.453125,516
517,1695742343597,0.014892578,-1.0054321,0.039978027,-2.90625,-0.359375,0.234375,517
518,1695742343637,0.024414062,-0.9829712,0.07733154,-2.046875,0.09375,-0.59375,518
519,1695742343677,0.0034179688,-0.9885864,0.054626465,-0.515625,0.25,-0.828125,519
520,1695742343717,0.0009765625,-0.99176025,0.06097412,-0.953125,0.109375,-0.59375,520
521,1695742343757,0.0063476562,-0.99713135,0.06390381,-1.46875,0.6875,-1.484375,521
522,1695742343797,-0.0068359375,-1.0029907,0.050964355,0.578125,1.0625,-0.296875,522
523,1695742343837,-0.011230469,-0.99664307,0.057800293,0.21875,1.53125,0.8125,523
524,1695742343877,0.0009765625,-1.0037231,0.043640137,5.03125,-0.46875,1.578125,524
525,1695742343917,0.0063476562,-0.98443604,0.042663574,2.34375,1.265625,1.375,525
526,1695742343957,-0.0041503906,-0.99005127,0.05340576,6.625,-0.15625,2.90625,526
527,1695742343997,0.0075683594,-0.9890747,0.024353027,4.953125,1.53125,2.875,527
528,1695742344037,0.025634766,-1.000061,0.022155762,7.984375,0.0625,2.9375,528
529,1695742344077,0.030517578,-0.99102783,-0.034240723,7.828125,0.78125,0.765625,529
530,1695742344117,0.025878906,-0.98516846,0.01727295,1.828125,0.421875,2.640625,530
531,1695742344157,0.043701172,-0.98272705,-0.0056762695,9.671875,-0.296875,1.21875,531
532,1695742344197,0.03100586,-0.9846802,-0.042297363,5.453125,-0.046875,1.703125,532
533,1695742344237,0.030273438,-0.991272,-0.017150879,2.71875,-0.015625,2.03125,533
534,1695742344277,0.036376953,-0.98101807,-0.034729004,4.234375,-0.921875,1.5,534
535,1695742344317,0.044433594,-0.9973755,-0.043518066,6.78125,-1.3125,1.421875,535
536,1695742344357,0.04272461,-0.98101807,-0.06304932,1.484375,0.15625,0.078125,536
537,1695742344397,0.03857422,-0.9849243,-0.043273926,1.0,-0.640625,1.375,537
538,1695742344437,0.053466797,-0.9639282,-0.08721924,-0.0625,-1.3125,0.1875,538
539,1695742344477,0.064697266,-0.9668579,-0.07672119,-11.40625,-0.6875,-0.8125,539
540,1695742344517,0.05444336,-0.9883423,-0.02520752,-15.09375,0.921875,-2.75,540
541,1695742344557,0.05029297,-0.9944458,-0.031311035,-13.78125,-0.84375,-3.875,541
542,1695742344597,0.03125,-0.9927368,0.020202637,-15.015625,1.640625,-3.21875,542
543,1695742344637,0.029541016,-0.9937134,0.0524292,-6.0,-0.421875,-4.140625,543
544,1695742344677,0.03125,-1.0117798,0.0014038086,-8.6875,0.703125,-5.328125,544
545,1695742344717,0.007080078,-0.9788208,0.08099365,-10.359375,1.6875,-4.078125,545
546,1695742344757,-0.0073242188,-0.99346924,0.047546387,2.296875,-1.4375,-2.46875,546
547,1695742344797,0.004638672,-0.9854126,0.051452637,-7.4375,0.65625,-2.59375,547
548,1695742344837,-0.0063476562,-0.99835205,0.05633545,-1.5625,0.03125,-1.0,548
549,1695742344877,0.010498047,-1.0020142,0.046813965,-1.453125,-0.390625,-0.96875,549
550,1695742344917,0.008300781,-0.99102783,0.06951904,-2.921875,0.453125,-1.25,550
551,1695742344957,0.0007324219,-1.0003052,0.062194824,0.421875,0.5,-0.515625,551
552,1695742344997,0.0043945312,-0.99420166,0.05316162,-0.90625,-0.015625,-1.703125,552
553,1695742345037,0.0041503906,-0.99053955,0.06951904,-1.53125,0.65625,-0.484375,553
554,1695742345077,0.0009765625,-1.0012817,0.06317139,-0.15625,0.578125,-0.28125,554
555,1695742345117,-0.004638672,-0.9968872,0.049743652,-0.921875,1.859375,-0.171875,555
556,1695742345157,0.0012207031,-0.9968872,0.0848999,-1.390625,2.265625,-0.03125,556
557,1695742345197,-0.013916016,-0.9841919,0.042663574,7.671875,-1.140625,2.25,557
558,1695742345237,0.009521484,-0.9812622,0.031921387,2.265625,0.0625,2.71875,558
559,1695742345277,0.01953125,-1.0064087,0.0758667,2.734375,0.671875,1.6875,559
560,1695742345317,-0.0026855469,-0.9993286,0.02947998,9.734375,1.03125,1.859375,560
561,1695742345357,0.01977539,-0.98931885,0.018981934,7.09375,-0.640625,3.15625,561
562,1695742345397,0.03540039,-0.99102783,0.0040893555,7.265625,-0.15625,1.96875,562
563,1695742345437,0.024169922,-0.9854126,-0.0022583008,5.796875,-0.078125,1.359375,563
564,1695742345477,0.018066406,-0.9944458,-0.012756348,8.265625,-0.140625,1.578125,564
565,1695742345517,0.01953125,-0.9907837,-0.034973145,5.1875,-0.59375,1.34375,565
566,1695742345557,0.040527344,-0.98028564,-0.021057129,1.140625,0.796875,0.859375,566
567,1695742345597,0.029541016,-0.9937134,-0.026916504,7.984375,-1.515625,1.328125,567
568,1695742345637,0.04248047,-0.98028564,-0.08013916,0.578125,-0.421875,0.21875,568
569,1695742345677,0.041748047,-0.9776001,-0.022521973,-1.390625,-0.078125,0.734375,569
570,1695742345717,0.041992188,-0.97784424,-0.06402588,2.09375,-1.21875,0.140625,570
571,1695742345757,0.048828125,-0.9907837,-0.04083252,-2.5,0.28125,0.84375,571
572,1695742345797,0.04711914,-0.97198486,-0.07574463,-2.4375,-1.328125,-1.328125,572
573,1695742345837,0.064697266,-0.9673462,-0.07720947,-17.703125,-0.203125,-2.84375,573
574,1695742345877,0.042236328,-0.989563,0.028015137,-25.46875,2.234375,-3.265625,574
575,1695742345917,0.03100586,-1.0137329,0.082214355,-3.875,0.09375,-2.40625,575
576,1695742345957,0.02709961,-1.0061646,-0.027893066,-3.65625,-0.734375,-4.046875,576
577,1695742345997,0.017333984,-0.9956665,0.030212402,-16.359375,1.75,-4.9375,577
578,1695742346037,0.010009766,-0.9907837,0.073913574,-3.46875,-0.96875,-2.90625,578
579,1695742346077,0.0031738281,-0.98687744,0.049987793,-2.390625,0.765625,-2.203125,579
580,1695742346117,-0.00390625,-0.97784424,0.057556152,-3.0625,1.015625,-2.4375,580
581,1695742346157,-0.016601562,-0.9976196,0.0446167,-4.609375,0.265625,-1.1875,581
582,1695742346197,0.014160156,-1.0066528,0.078063965,-6.40625,0.8125,-1.34375,582
583,1695742346237,0.0078125,-0.9829712,0.07366943,-0.09375,-0.0625,-1.546875,583
584,1695742346277,0.0,-1.0059204,0.06585693,-2.984375,0.015625,-1.578125,584
585,1695742346317,-0.009521484,-0.98809814,0.101989746,-5.59375,1.40625,-1.578125,585
586,1695742346357,-0.011962891,-0.9981079,0.078552246,1.375,-0.171875,-0.078125,586
587,1695742346397,-0.0078125,-0.9902954,0.08514404,-1.03125,0.984375,0.671875,587
588,1695742346437,0.0031738281,-0.99542236,0.08270264,4.296875,0.765625,0.375,588
589,1695742346477,0.0041503906,-1.003479,0.047302246,4.53125,1.375,0.078125,589
590,1695742346517,-0.025146484,-0.9885864,0.06781006,1.734375,1.953125,0.671875,590
591,1695742346557,-0.0078125,-0.989563,0.05706787,8.15625,-0.640625,2.8125,591
592,1695742346597,0.024658203,-0.99786377,0.03387451,6.984375,0.3125,2.46875,592
593,1695742346637,0.01586914,-0.9961548,0.022399902,7.359375,0.421875,1.359375,593
594,1695742346677,0.014160156,-0.9776001,0.0289917,7.6875,-0.5,2.890625,594
595,1695742346717,0.010498047,-0.99005127,0.0016479492,7.84375,0.09375,1.75,595
596,1695742346757,0.047851562,-0.9949341,0.004333496,8.359375,0.515625,1.53125,596
597,1695742346797,0.0234375,-0.99224854,-0.047668457,11.1875,1.25,-0.125,597
598,1695742346837,0.012939453,-0.99176025,-0.024963379,1.1875,-0.5625,2.015625,598
599,1695742346877,0.017333984,-0.9771118,-0.03668213,4.53125,-0.640625,1.953125,599
600,1695742346917,0.037353516,-0.98321533,-0.0569458,3.015625,-1.109375,1.96875,600
601,1695742346957,0.043945312,-0.9898071,-0.05987549,-0.71875,-0.4375,0.78125,601
602,1695742346997,0.036132812,-0.97320557,-0.0491333,-0.640625,-0.296875,1.296875,602
603,1695742347037,0.053466797,-0.9800415,-0.043273926,-1.921875,-0.953125,-0.125,603
604,1695742347077,0.05517578,-0.9846802,-0.0791626,-7.671875,-0.765625,-1.234375,604
605,1695742347117,0.052001953,-0.98028564,-0.031066895,-18.046875,0.65625,-3.4375,605
606,1695742347157,0.037353516,-0.9841919,0.008972168,-17.5625,0.828125,-4.046875,606
607,1695742347197,0.020996094,-0.9973755,0.05267334,-11.78125,0.84375,-2.625,607
608,1695742347237,0.017333984,-1.0003052,0.047058105,-5.0625,-0.25,-3.84375,608
609,1695742347277,0.009765625,-1.0007935,0.024108887,-8.125,0.40625,-4.875,609
610,1695742347317,-0.0007324219,-0.98809814,0.06976318,-6.578125,1.390625,-3.609375,610
611,1695742347357,0.0009765625,-0.9890747,0.06121826,1.421875,-0.734375,-2.78125,611
612,1695742347397,-0.008544922,-0.98809814,0.04437256,-1.15625,1.15625,-2.40625,612
613,1695742347437,-0.017089844,-1.006897,0.047302246,-1.734375,-0.25,-1.203125,613
614,1695742347477,0.0053710938,-0.98443604,0.066101074,-3.40625,0.0625,-1.6875,614
615,1695742347517,-0.0053710938,-0.99884033,0.051452637,-1.84375,0.5,-0.4375,615
616,1695742347557,-0.0036621094,-0.9920044,0.06585693,-2.125,0.140625,-1.5,616
617,1695742347597,-0.01928711,-0.9973755,0.06854248,0.21875,0.640625,-0.75,617
618,1695742347637,-0.0061035156,-0.99420166,0.06365967,-0.203125,-0.390625,-0.84375,618
619,1695742347677,-0.00024414062,-0.9963989,0.05731201,-2.34375,1.421875,-0.75,619
620,1695742347717,-0.011962891,-1.0003052,0.07562256,-0.78125,2.125,-0.59375,620
621,1695742347757,-0.030029297,-0.991272,0.0692749,1.640625,2.25,1.40625,621
622,1695742347797,-0.0063476562,-0.986145,0.08026123,6.25,0.109375,2.640625,622
623,1695742347837,-0.011230469,-0.9898071,0.020935059,11.734375,-0.359375,2.578125,623
624,1695742347877,0.009033203,-0.9985962,0.019958496,1.984375,0.421875,2.921875,624
625,1695742347917,-0.007080078,-0.97662354,0.034362793,9.953125,-0.203125,2.828125,625
626,1695742347957,0.016113281,-0.9890747,-0.011779785,6.421875,-1.234375,3.53125,626
627,1695742347997,0.030761719,-0.9932251,0.022155762,1.65625,0.125,2.78125,627
628,1695742348037,0.03881836,-0.99298096,-0.008361816,9.890625,-1.6875,2.90625,628
629,1695742348077,0.041503906,-0.9924927,-0.014709473,3.78125,-0.015625,2.4375,629
630,1695742348117,0.029785156,-0.98321533,-0.034484863,6.59375,-0.71875,1.859375,630
631,1695742348157,0.036621094,-0.99420166,-0.043762207,1.03125,-0.6875,1.625,631
632,1695742348197,0.036376953,-0.98565674,-0.02545166,2.125,-0.125,1.265625,632
633,1695742348237,0.041748047,-0.97613525,-0.053771973,4.34375,-1.265625,0.765625,633
634,1695742348277,0.05078125,-0.9937134,-0.044006348,0.0,-0.625,1.328125,634
635,1695742348317,0.052734375,-0.97369385,-0.05670166,0.578125,0.3125,-0.875,635
636,1695742348357,0.045654297,-0.9956665,-0.047180176,0.234375,0.3125,0.25,636
637,1695742348397,0.05102539,-0.9819946,-0.06378174,0.5,-0.671875,-1.171875,637
638,1695742348437,0.048583984,-0.9768677,-0.08795166,-5.515625,-0.234375,-2.125,638
639,1695742348477,0.045166016,-0.9780884,-0.061828613,-18.84375,0.09375,-3.859375,639
640,1695742348517,0.044921875,-0.9805298,-0.003967285,-25.015625,0.921875,-5.25,640
641,1695742348557,0.03466797,-1.0044556,0.08099365,-14.078125,1.390625,-3.78125,641
642,1695742348597,0.0107421875,-1.003479,0.042663574,-1.1875,0.34375,-5.015625,642
643,1695742348637,-0.009277344,-1.0029907,0.01361084,-9.890625,1.03125,-5.421875,643
644,1695742348677,-0.006591797,-0.9920044,0.09320068,-7.421875,1.515625,-4.1875,644
645,1695742348717,-0.010253906,-0.99420166,0.04046631,0.21875,-0.203125,-2.96875,645
646,1695742348757,0.0021972656,-0.9824829,0.06414795,-3.53125,1.25,-2.734375,646
647,1695742348797,-0.030761719,-0.9993286,0.054138184,-0.984375,0.484375,-1.796875,647
648,1695742348837,-0.0078125,-0.9902954,0.062194824,-0.25,-0.546875,-1.828125,648
649,1695742348877,-0.007080078,-1.0039673,0.055358887,-1.875,0.296875,-2.375,649
650,1695742348917,-0.024414062,-0.99542236,0.07293701,-0.375,0.734375,-2.453125,650
651,1695742348957,-0.034179688,-0.99176025,0.04925537,-1.3125,-0.078125,-0.953125,651
652,1695742348997,-0.024658203,-0.9944458,0.066589355,-2.578125,0.453125,-0.125,652
653,1695742349037,-0.01953125,-0.9993286,0.058532715,-2.140625,0.5625,0.03125,653
654,1695742349077,-0.018798828,-1.0005493,0.09197998,-0.078125,3.3125,1.421875,654
655,1695742349117,-0.024902344,-1.000061,0.047546387,4.25,-0.859375,2.03125,655
656,1695742349157,-0.01171875,-0.9834595,0.039489746,0.703125,0.828125,1.546875,656
657,1695742349197,-0.0061035156,-0.9993286,0.09564209,3.765625,0.515625,3.21875,657
658,1695742349237,-0.009277344,-0.99884033,0.016784668,10.34375,-1.203125,3.078125,658
659,1695742349277,-0.0009765625,-0.99346924,0.028503418,4.03125,0.671875,3.5625,659
660,1695742349317,0.009521484,-0.98883057,0.031188965,10.8125,-1.3125,3.28125,660
661,1695742349357,0.016113281,-0.991272,-0.018371582,8.46875,-0.234375,2.03125,661
662,1695742349397,0.017822266,-0.9902954,0.0021362305,5.484375,0.515625,3.0,662
663,1695742349437,0.036865234,-0.9834595,-0.018127441,8.171875,-1.46875,1.96875,663
664,1695742349477,0.03125,-0.9788208,-0.036193848,5.078125,0.3125,1.53125,664
665,1695742349517,0.015625,-0.99468994,-0.010803223,4.96875,0.0625,0.953125,665
666,1695742349557,0.0146484375,-0.99176025,-0.04473877,7.96875,-0.8125,1.5625,666
667,1695742349597,0.030273438,-0.9866333,-0.082092285,3.65625,-0.484375,1.25,667
668,1695742349637,0.03955078,-0.975647,-0.066711426,-1.8125,0.125,0.671875,668
669,1695742349677,0.026611328,-0.9812622,-0.051574707,1.265625,-0.703125,0.65625,669
670,1695742349717,0.045410156,-0.9793091,-0.09234619,-1.5,-1.75,-0.28125,670
671,1695742349757,0.053466797,-0.9751587,-0.081848145,-15.9375,0.109375,-2.3125,671
672,1695742349797,0.049072266,-0.97491455,-0.015197754,-21.0625,1.078125,-3.703125,672
673,1695742349837,0.04248047,-0.99468994,0.01361084,-16.625,-0.5625,-3.4375,673
674,1695742349877,0.034423828,-0.9902954,0.06390381,-11.359375,1.34375,-3.53125,674
675,1695742349917,0.011474609,-0.9990845,0.049743652,-3.0625,0.09375,-4.34375,675
676,1695742349957,-0.013671875,-0.99957275,0.023132324,-6.40625,1.203125,-4.421875,676
677,1695742349997,-0.0146484375,-0.9902954,0.050964355,-5.140625,0.4375,-2.71875,677
678,1695742350037,0.004638672,-0.99102783,0.058532715,-1.1875,-0.203125,-2.09375,678
679,1695742350077,-0.010253906,-0.9993286,0.031433105,-1.125,0.578125,-2.0,679
680,1695742350117,-0.010253906,-0.9859009,0.058776855,-2.96875,0.359375,-2.203125,680
681,1695742350157,-0.018798828,-1.0054321,0.046813965,-0.0625,0.03125,-1.046875,681
682,1695742350197,0.0009765625,-0.99298096,0.032409668,-3.40625,0.265625,-0.921875,682
683,1695742350237,-0.0061035156,-0.9915161,0.06439209,-3.75,0.203125,-0.734375,683
684,1695742350277,-0.008544922,-0.98638916,0.07318115,-1.640625,0.765625,-0.109375,684
685,1695742350317,-0.01928711,-1.00177,0.04486084,-1.390625,0.21875,0.125,685
686,1695742350357,-0.0009765625,-0.9932251,0.0770874,-1.890625,1.515625,-0.5625,686
687,1695742350397,-0.005126953,-0.99713135,0.07366943,1.78125,1.328125,0.171875,687
688,1695742350437,-0.022460938,-0.9968872,0.041931152,4.609375,-0.421875,1.90625,688
689,1695742350477,-0.0031738281,-0.987854,0.058776855,3.46875,-0.09375,2.65625,689
690,1695742350517,0.0048828125,-0.9890747,0.05682373,5.9375,0.359375,2.234375,690
691,1695742350557,0.010253906,-1.0007935,0.02923584,9.390625,-0.71875,2.046875,691
692,1695742350597,-0.0075683594,-0.9768677,0.024597168,7.421875,1.5,1.8125,692
693,1695742350637,0.009521484,-0.9937134,0.007751465,10.125,-1.828125,3.0625,693
694,1695742350677,0.030029297,-0.9961548,-0.019348145,4.5625,0.46875,1.53125,694
695,1695742350717,0.019042969,-0.99786377,-0.010803223,6.609375,-0.09375,0.546875,695
696,1695742350757,-0.0034179688,-0.98272705,-0.02154541,7.171875,-0.140625,1.9375,696
697,1695742350797,0.021484375,-0.9915161,-0.055236816,5.578125,-1.46875,1.421875,697
698,1695742350837,0.032714844,-0.97198486,-0.035705566,-0.390625,1.15625,1.34375,698
699,1695742350877,0.02758789,-0.9976196,-0.042297363,9.375,-2.40625,1.109375,699
700,1695742350917,0.033447266,-0.9673462,-0.09893799,-0.703125,-0.265625,0.765625,700
701,1695742350957,0.047851562,-0.9866333,-0.04083252,-6.46875,-0.328125,0.46875,701
702,1695742350997,0.03466797,-0.97369385,-0.028625488,-0.640625,-0.171875,-0.34375,702
703,1695742351037,0.040527344,-0.9871216,-0.06842041,-0.03125,-0.9375,-0.1875,703
704,1695742351077,0.052246094,-0.98443604,-0.07354736,-12.375,-0.25,-2.53125,704
705,1695742351117,0.032226562,-0.97613525,-0.04058838,-20.65625,1.046875,-4.03125,705
706,1695742351157,0.025634766,-0.9883423,0.05657959,-14.703125,1.78125,-2.53125,706
707,1695742351197,0.011962891,-1.0056763,0.026550293,-1.796875,-0.703125,-3.234375,707
708,1695742351237,0.00048828125,-1.0059204,-0.00079345703,-8.984375,1.46875,-3.734375,708
709,1695742351277,-0.001953125,-0.987854,0.06097412,-7.015625,0.875,-3.859375,709
710,1695742351317,-0.00048828125,-1.003479,0.03338623,-1.921875,-0.515625,-2.40625,710
711,1695742351357,-0.009033203,-0.97613525,0.05609131,-5.21875,1.578125,-2.90625,711
712,1695742351397,-0.025390625,-1.0029907,0.03265381,-0.296875,-0.328125,-1.671875,712
713,1695742351437,0.0014648438,-0.9985962,0.053649902,-4.75,0.4375,-1.265625,713
714,1695742351477,-0.0078125,-0.99298096,0.03656006,-1.96875,0.0625,-0.796875,714
715,1695742351517,-0.00390625,-0.9951782,0.05731201,-1.90625,0.140625,-0.3125,715
716,1695742351557,-0.009033203,-1.0007935,0.061950684,-1.171875,0.28125,-0.59375,716
717,1695742351597,-0.013427734,-0.991272,0.050231934,-2.03125,0.703125,-1.5625,717
718,1695742351637,-0.019042969,-0.9973755,0.06976318,-0.53125,2.03125,-0.09375,718
719,1695742351677,-0.01953125,-1.0015259,0.07366943,1.0,0.703125,2.09375,719
720,1695742351717,-0.0146484375,-0.9807739,0.061706543,8.015625,-0.53125,2.1875,720
721,1695742351757,0.0021972656,-0.99957275,0.0138549805,8.4375,0.015625,2.71875,721
722,1695742351797,0.0026855469,-0.9841919,0.034851074,5.203125,0.5625,2.625,722
723,1695742351837,0.0063476562,-0.99346924,0.029724121,9.796875,0.0625,3.421875,723
724,1695742351877,0.016357422,-0.9932251,-0.0044555664,9.21875,-0.96875,2.703125,724
725,1695742351917,0.021240234,-1.0012817,-0.028381348,6.796875,-0.15625,2.078125,725
726,1695742351957,0.02734375,-0.986145,-0.010070801,4.0625,0.6875,1.75,726
727,1695742351997,0.020507812,-0.9846802,-0.039123535,9.859375,-1.484375,2.609375,727
728,1695742352037,0.037597656,-0.98394775,-0.049621582,1.796875,0.203125,1.671875,728
729,1695742352077,0.029296875,-0.9829712,-0.06036377,4.046875,-1.5,0.546875,729
730,1695742352117,0.03857422,-0.9783325,-0.054992676,-2.75,0.265625,1.1875,730
731,1695742352157,0.037353516,-0.98321533,-0.007873535,0.296875,0.15625,1.0,731
732,1695742352197,0.043945312,-0.98394775,-0.05645752,7.65625,-1.359375,0.328125,732
733,1695742352237,0.045898438,-0.9973755,-0.09991455,-0.84375,-0.5625,0.0,733
734,1695742352277,0.049316406,-0.9727173,-0.050598145,-8.90625,-0.078125,-0.59375,734
735,1695742352317,0.029785156,-0.97613525,-0.0413208,-1.59375,-0.5,-1.375,735
736,1695742352357,0.045166016,-0.99005127,-0.09625244,-7.734375,-1.078125,-1.828125,736
737,1695742352397,0.051757812,-0.9898071,-0.05987549,-23.75,0.890625,-4.6875,737
738,1695742352437,0.02734375,-0.98687744,0.04095459,-21.984375,2.1875,-4.546875,738
739,1695742352477,0.020996094,-0.9885864,0.06488037,-4.5,0.34375,-3.25,739
740,1695742352517,0.012451172,-1.0078735,0.0045776367,-5.0625,-0.015625,-4.078125,740
741,1695742352557,-0.0024414062,-0.9937134,0.050231934,-11.984375,2.03125,-5.71875,741
742,1695742352597,-0.024658203,-0.98565674,0.058532715,2.5625,-0.0625,-3.4375,742
743,1695742352637,-0.013916016,-0.99542236,0.039245605,-4.125,0.484375,-2.1875,743
744,1695742352677,0.0017089844,-0.9907837,0.059020996,-2.453125,0.0625,-2.21875,744
745,1695742352717,-0.010253906,-0.9937134,0.058044434,-1.65625,0.6875,-1.65625,745
746,1695742352757,-0.01586914,-0.9985962,0.055847168,0.21875,-0.1875,-0.828125,746
747,1695742352797,-0.005859375,-0.9846802,0.041931152,-2.34375,0.03125,-1.6875,747
748,1695742352837,-0.017578125,-0.9973755,0.066101074,-2.78125,0.390625,-1.328125,748
749,1695742352877,-0.022460938,-0.9944458,0.062194824,-0.375,0.484375,-0.34375,749
750,1695742352917,-0.02319336,-0.9937134,0.05340576,-1.078125,0.375,-0.0625,750
751,1695742352957,-0.0053710938,-0.9937134,0.07318115,-1.53125,1.9375,0.53125,751
752,1695742352997,-0.011230469,-0.9939575,0.062683105,0.15625,1.5,1.546875,752
753,1695742353037,-0.026855469,-0.98760986,0.051940918,6.03125,0.21875,2.15625,753
754,1695742353077,-0.007080078,-0.99224854,0.051208496,7.6875,0.1875,3.625,754
755,1695742353117,0.006591797,-0.98931885,0.040222168,9.359375,0.03125,2.765625,755
756,1695742353157,0.0021972656,-1.0064087,0.007019043,7.921875,0.921875,1.953125,756
757,1695742353197,0.009521484,-0.98883057,-0.0005493164,7.828125,-0.59375,2.921875,757
758,1695742353237,0.022949219,-0.98760986,-0.010070801,6.6875,0.171875,2.265625,758
759,1695742353277,0.017333984,-0.99005127,0.0079956055,4.75,-0.125,1.921875,759
