,timestamp,accel_x,accel_y,accel_z,gyro_x,gyro_y,gyro_z
0,1695774159483,-0.28125,-1.6924438,0.31951904,18.125,92.25,-10.03125
1,1695774159522,-0.68725586,-1.4373169,0.27093506,16.984375,95.265625,17.015625
2,1695774159562,-0.5986328,-0.89141846,0.06976318,-20.53125,13.421875,-12.3125
3,1695774159603,0.044189453,-1.0828247,0.27947998,-30.0625,-6.375,8.203125
4,1695774159642,0.09082031,-0.7180786,0.47332764,16.453125,40.96875,49.5
5,1695774159683,0.032470703,-0.035949707,-0.20123291,8.4375,-26.84375,46.6875
6,1695774159723,-0.15966797,0.2411499,0.012145996,-6.65625,-34.046875,4.109375
7,1695774159764,0.30932617,-0.06427002,-0.4138794,-50.25,-45.125,-4.09375
8,1695774159803,-0.39135742,-1.0171509,0.19720459,32.5625,23.734375,-23.953125
9,1695774159843,-0.38061523,-1.9871216,1.3656616,-12.25,-84.890625,44.578125
10,1695774159882,-0.33984375,-1.7774048,-0.3291626,-42.390625,-41.4375,23.296875
11,1695774159923,-0.71875,-0.94195557,0.2970581,30.875,-52.546875,7.609375
12,1695774159963,-0.23925781,-0.9849243,0.2736206,25.03125,-9.125,-58.234375
13,1695774160004,-0.040039062,-0.69659424,0.3287964,-20.78125,-69.890625,-28.125
14,1695774160043,0.053222656,-0.24517822,0.19744873,9.21875,41.328125,-22.03125
15,1695774160083,0.016601562,0.31170654,-0.19415283,1.8125,17.234375,-15.125
16,1695774160123,-0.38598633,0.6100464,-0.13555908,31.0,-7.9375,-8.109375
17,1695774160165,-0.31445312,-0.29473877,-0.2695923,-39.703125,55.546875,-33.859375
18,1695774160204,-2.0,-2.0,0.034606934,-207.34375,19.921875,7.0625
19,1695774160244,1.1489258,-2.0,0.5890503,73.859375,169.65625,5.703125
20,1695774160283,-0.9650879,-1.4265747,0.69158936,-25.125,85.671875,16.453125
21,1695774160343,-0.7512207,-0.8921509,0.0028686523,10.21875,-13.78125,29.640625
22,1695774160363,0.018798828,-1.458313,0.20477295,-34.421875,29.015625,-26.265625
23,1695774160383,0.18579102,-1.1348267,0.5582886,-2.21875,15.59375,41.390625
24,1695774160423,0.23461914,0.08050537,-0.2498169,37.6875,-13.921875,58.875
25,1695774160463,-0.27270508,0.3287964,-0.09063721,-5.53125,-32.109375,4.1875
26,1695774160504,-0.19873047,0.26312256,-0.05206299,-32.0625,-30.4375,-7.96875
27,1695774160544,0.06958008,-0.16339111,-0.29864502,-70.296875,-42.65625,-22.75
28,1695774160583,1.999939,-2.0,0.17449951,143.54688,-211.46875,-19.390625
29,1695774160623,0.41796875,-1.9102173,0.14471436,-6.1875,2.765625,7.21875
30,1695774160663,-0.7766113,-1.5918579,-0.10430908,-16.375,-49.078125,73.328125
31,1695774160703,-0.92163086,-0.4492798,0.9125366,61.390625,-47.46875,-26.6875
32,1695774160743,0.031982422,-1.7161255,0.14398193,-86.234375,-116.6875,-74.875
33,1695774160784,-0.5097656,-0.50567627,0.39422607,-26.0625,-7.859375,-38.828125
34,1695774160823,0.12402344,-0.2720337,0.022888184,26.515625,84.984375,-36.6875
35,1695774160864,0.1459961,0.48797607,-0.27764893,22.625,2.234375,-4.5625
36,1695774160904,-0.2241211,0.88690186,-0.144104,-8.421875,-17.03125,-5.046875
37,1695774160944,-0.26049805,-0.47833252,-0.10699463,-49.75,15.078125,-2.96875
38,1695774160984,-2.0,-2.0,0.75042725,-56.34375,30.359375,8.078125
39,1695774161023,0.2277832,-2.0,0.22601318,57.265625,114.421875,29.515625
40,1695774161064,-0.9904785,-1.5457153,0.98187256,25.859375,109.96875,21.34375
41,1695774161104,-0.60375977,-0.67193604,0.12713623,-6.984375,27.578125,3.75
42,1695774161144,0.09008789,-1.0691528,0.005554199,-50.875,-19.984375,-22.140625
43,1695774161183,0.23510742,-0.9649048,0.96551514,5.421875,-14.546875,47.46875
44,1695774161224,0.40185547,0.15618896,-0.7295532,24.1875,-47.28125,66.9375
45,1695774161265,-0.43603516,0.27703857,-0.18292236,5.890625,-38.25,-8.828125
46,1695774161304,-0.26635742,0.4179077,-0.3040161,-22.171875,-42.8125,-20.25
47,1695774161343,0.0061035156,-0.003967285,0.1227417,-40.109375,-35.078125,-36.859375
48,1695774161383,0.47631836,-2.0,1.999939,-42.328125,-276.73438,72.609375
49,1695774161423,0.09375,-2.0,0.0119018555,-33.171875,8.609375,34.375
50,1695774161463,-1.1088867,-1.1218872,0.31170654,22.109375,-125.90625,49.6875
51,1695774161504,-0.51953125,-1.0930786,0.36688232,28.90625,-5.640625,-86.171875
52,1695774161543,-0.27294922,-0.92388916,0.75286865,-28.15625,-93.515625,-31.84375
53,1695774161583,-0.27929688,-0.78912354,0.5162964,-10.8125,19.1875,-38.03125
54,1695774161604,-0.037841797,0.1618042,-0.3057251,4.34375,82.40625,3.25
55,1695774161645,-0.3203125,1.1488647,-0.7439575,40.59375,-39.609375,-9.140625
56,1695774161684,-0.14355469,-0.31134033,-0.31280518,-80.75,-14.25,-58.671875
57,1695774161724,0.10083008,-2.0,-0.7234497,-38.5,-6.578125,60.234375
58,1695774161763,0.099853516,-1.6853638,1.9291382,13.0,89.265625,48.140625
59,1695774161803,-1.1860352,-1.517395,0.016784668,-35.859375,62.375,16.59375
60,1695774161844,-0.6640625,-1.0442505,-0.059387207,19.484375,29.5625,-14.953125
61,1695774161883,-0.052978516,-1.3618774,-0.033996582,7.515625,41.046875,-21.40625
62,1695774161923,0.71972656,-1.519104,0.7106323,-5.09375,-4.9375,38.953125
63,1695774161964,0.22265625,-0.63116455,-0.13458252,10.984375,28.078125,81.125
64,1695774162004,-0.4609375,0.3270874,0.25286865,-3.78125,-85.546875,26.3125
65,1695774162043,-0.20825195,0.41644287,-0.17486572,4.015625,-33.75,-17.84375
66,1695774162083,0.030517578,0.2897339,-0.4019165,-65.171875,-25.640625,-32.828125
67,1695774162123,0.1262207,-1.4771118,0.17059326,11.671875,-27.015625,-27.578125
68,1695774162165,-0.71899414,-1.6399536,1.0297241,-28.6875,-118.25,95.546875
69,1695774162204,-0.32495117,-1.8584595,-0.13702393,-24.953125,23.453125,25.46875
70,1695774162243,-0.9008789,-0.73101807,0.42279053,17.640625,-77.203125,-29.84375
71,1695774162283,0.26513672,-2.0,0.046081543,-19.375,-37.921875,-66.515625
72,1695774162323,-0.30444336,-0.66778564,0.84124756,-38.578125,-24.140625,-23.40625
73,1695774162363,-0.12890625,-0.39263916,0.20941162,28.78125,65.4375,-8.375
74,1695774162402,-0.057373047,0.34173584,-0.5161743,16.203125,43.28125,-7.375
75,1695774162443,-0.14160156,1.043396,-0.22515869,19.75,-57.140625,-32.78125
76,1695774162483,-0.08520508,-0.7156372,-0.31329346,-21.28125,30.6875,-9.125
77,1695774162524,-0.7163086,-2.0,-1.3206177,-95.84375,10.265625,67.859375
78,1695774162563,0.23022461,-1.477356,1.7035522,52.296875,124.046875,50.09375
79,1695774162604,-0.7463379,-1.6436157,-0.03717041,-14.0,109.171875,21.046875
80,1695774162645,-0.6044922,-1.0420532,0.003112793,11.765625,-7.109375,9.078125
81,1695774162683,0.09814453,-1.538147,-0.06011963,-11.875,22.265625,-28.90625
82,1695774162723,0.47387695,-1.2839966,0.838562,-22.9375,2.21875,23.28125
83,1695774162764,0.4482422,-0.3579712,-0.10284424,24.4375,31.296875,71.53125
84,1695774162805,-0.48632812,0.5084839,0.019958496,-12.109375,-39.421875,0.90625
85,1695774162827,-0.32421875,0.42279053,-0.18927002,-10.515625,-47.265625,-27.5625
86,1695774162863,0.024902344,0.14324951,-0.31011963,-66.90625,-12.234375,-37.609375
87,1695774162903,-1.2329102,-2.0,0.7394409,-57.125,86.890625,-104.078125
88,1695774162944,-0.5358887,-1.147522,1.2389526,4.59375,33.40625,37.328125
89,1695774162984,-0.6064453,-1.8269653,-0.023986816,-39.671875,-49.234375,26.21875
90,1695774163023,-0.7114258,-0.7632446,0.6508179,53.3125,-8.78125,-66.328125
91,1695774163064,0.12524414,-1.7166138,0.3390503,-65.234375,-133.82812,-41.171875
92,1695774163103,-0.41088867,-0.5198364,0.5704956,-23.921875,33.46875,-23.5625
93,1695774163143,0.030273438,-0.16070557,-0.0051879883,17.78125,60.171875,-10.875
94,1695774163183,-0.099365234,0.45550537,-0.4817505,21.875,15.859375,-8.875
95,1695774163223,-0.092041016,0.9279175,-0.24615479,20.75,7.015625,-45.984375
96,1695774163263,0.013183594,-0.75201416,-0.116760254,-21.5,13.53125,0.421875
97,1695774163304,-0.60009766,-2.0,0.5739136,316.95312,-204.39062,116.78125
98,1695774163344,-0.43139648,-2.0,-0.3015747,3.640625,171.75,28.28125
99,1695774163383,-0.7973633,-1.0552368,0.3932495,49.234375,73.28125,15.625
100,1695774163424,-0.33862305,-1.1643677,0.07220459,-2.375,38.078125,-40.296875
101,1695774163464,0.053955078,-0.87384033,0.39959717,-45.6875,-40.71875,-0.515625
102,1695774163503,0.30908203,-1.0562134,0.51116943,40.984375,97.65625,34.421875
103,1695774163543,0.1772461,0.16986084,-0.6055298,-5.109375,-33.453125,60.03125
104,1695774163584,-0.43554688,0.4393921,0.03753662,-6.8125,-45.296875,-13.28125
105,1695774163623,-0.052490234,0.43084717,-0.12188721,-15.390625,-11.671875,-24.859375
106,1695774163663,0.009765625,-0.08770752,-0.23638916,-27.0,-2.859375,-53.359375
107,1695774163703,1.999939,-2.0,0.18865967,113.21875,-294.35938,75.234375
108,1695774163743,0.052978516,-2.0,0.22918701,-4.6875,51.359375,25.203125
109,1695774163783,-0.67211914,-1.4060669,0.31707764,11.671875,-79.78125,37.8125
110,1695774163825,-0.3852539,-1.1543579,0.3378296,27.984375,-6.453125,-65.390625
111,1695774163864,-0.29370117,-1.2520142,0.40594482,-48.125,-102.5,-28.859375
112,1695774163903,-0.6220703,-0.39752197,0.5297241,0.5,59.703125,-34.484375
113,1695774163944,0.09399414,0.19671631,-0.36065674,39.640625,75.515625,-16.296875
114,1695774163983,0.10522461,0.95111084,-0.5664673,23.25,-3.90625,-6.40625
115,1695774164023,0.1940918,-0.1638794,-0.3670044,-50.421875,-18.78125,-51.421875
116,1695774164043,-0.10424805,-1.0320435,-0.3838501,-4.203125,-6.0,28.921875
117,1695774164083,-0.47802734,-2.0,1.999939,31.515625,-150.48438,68.1875
118,1695774164123,-0.8405762,-1.7879028,0.030944824,5.671875,123.125,-6.859375
119,1695774164164,-0.34472656,-1.4439087,-0.12188721,21.203125,60.546875,13.5
120,1695774164204,-0.59521484,-1.1192017,0.059509277,-26.71875,-20.28125,-23.96875
121,1695774164245,0.12890625,-1.1851196,0.3793335,-24.53125,-3.546875,-4.140625
122,1695774164284,0.28979492,-0.8128052,0.447937,48.34375,81.0,43.421875
123,1695774164331,0.24072266,0.13934326,-0.34454346,-10.03125,-21.640625,46.96875
124,1695774164363,-0.42138672,0.44622803,-0.058166504,-34.25,-68.0625,-7.921875
125,1695774164403,0.028076172,0.27166748,-0.33624268,-25.40625,-22.796875,-11.515625
126,1695774164443,0.006591797,-0.20025635,0.3258667,-8.84375,-10.3125,-28.640625
127,1695774164483,0.5505371,-2.0,0.545105,-39.640625,-275.25,90.59375
128,1695774164523,-0.19238281,-2.0,0.3546753,-14.90625,39.109375,8.03125
129,1695774164564,-1.1669922,-1.0122681,0.31732178,8.890625,-72.25,30.953125
130,1695774164603,-0.32861328,-0.89508057,0.21746826,67.734375,-2.109375,-76.9375
131,1695774164643,-0.24584961,-0.79644775,0.6642456,-66.546875,-120.421875,-38.828125
132,1695774164684,-0.17578125,-0.37139893,0.45892334,0.796875,27.34375,-28.40625
133,1695774164723,0.030273438,0.07659912,-0.24346924,1.359375,45.640625,-9.671875
134,1695774164764,0.14575195,0.7650757,-0.64556885,25.984375,-26.65625,-17.015625
135,1695774164803,-0.25,-0.14581299,-0.22711182,-7.109375,11.40625,-19.890625
136,1695774164844,-1.5739746,-2.0,-1.4951782,-137.4375,-9.390625,56.390625
137,1695774164887,0.19311523,-1.555481,1.3231812,12.21875,135.17188,-1.171875
138,1695774164924,-1.1281738,-1.5076294,0.59661865,-22.21875,94.75,6.78125
139,1695774164963,-0.38476562,-1.256897,-0.113342285,-1.46875,-10.578125,-2.5625
140,1695774165003,-0.2277832,-1.1506958,0.2843628,-6.703125,9.953125,-1.515625
141,1695774165043,0.42260742,-0.9819946,0.4569702,-10.0625,20.453125,38.75
142,1695774165083,0.2319336,-0.21929932,-0.105285645,17.265625,-6.0,50.65625
143,1695774165125,-0.18017578,0.016052246,0.054626465,4.890625,-39.203125,13.859375
144,1695774165164,-0.15820312,0.21307373,-0.13922119,-6.5,-51.8125,-1.796875
145,1695774165205,0.03955078,-0.04156494,-0.24346924,-41.125,-37.53125,-16.34375
146,1695774165244,-0.2475586,-2.0,0.46185303,18.09375,20.984375,-64.5
147,1695774165263,-0.33203125,-1.5769653,1.0546265,9.78125,-62.765625,46.21875
148,1695774165304,-0.24365234,-1.8452759,-0.1326294,-47.046875,-31.75,37.03125
149,1695774165344,-0.40063477,-1.038147,0.5565796,43.734375,-69.140625,-14.515625
150,1695774165383,-0.10253906,-1.2544556,0.3685913,0.046875,-85.0625,-57.4375
151,1695774165423,-0.41967773,-0.63653564,0.7050171,-7.703125,-46.390625,-17.828125
152,1695774165464,-0.12866211,-0.27056885,0.03265381,-5.375,14.734375,-10.015625
153,1695774165503,-0.045654297,0.28948975,-0.21734619,7.734375,24.734375,-13.65625
154,1695774165543,-0.21875,0.9008179,-0.42071533,27.8125,-43.453125,-31.828125
155,1695774165584,-0.0026855469,-0.65753174,-0.2300415,-36.6875,-8.296875,-33.6875
156,1695774165623,-0.8652344,-2.0,-1.2822876,-135.73438,-43.5,58.828125
157,1695774165665,-0.33007812,-1.5786743,1.4118042,-7.5625,68.640625,44.203125
158,1695774165704,-0.69799805,-1.5935669,-0.0015258789,-27.0625,76.328125,7.71875
159,1695774165744,-0.4272461,-1.3369751,-0.05279541,10.671875,-31.9375,6.984375
160,1695774165783,-0.1730957,-0.8977661,0.40374756,-6.890625,16.390625,-22.46875
161,1695774165824,0.39819336,-0.7078247,0.4874878,-11.140625,-10.6875,50.84375
162,1695774165863,0.11621094,-0.07647705,-0.5918579,-4.96875,-34.0,52.859375
163,1695774165904,-0.02709961,-0.009094238,-0.024475098,16.1875,-38.25,22.28125
164,1695774165943,0.018798828,0.05340576,0.029968262,3.84375,-58.875,3.328125
165,1695774165984,0.14526367,-0.20318604,-0.222229,-86.90625,-55.59375,-30.640625
166,1695774166024,0.15917969,-2.0,0.7103882,73.546875,55.53125,-114.8125
167,1695774166064,-0.3894043,-1.6160278,1.2443237,20.109375,-64.0,20.9375
168,1695774166104,-0.45922852,-1.6587524,-0.17681885,-50.65625,-64.0625,38.390625
169,1695774166143,-0.5998535,-0.85284424,0.57562256,75.765625,-63.640625,-16.21875
170,1695774166183,-0.17871094,-0.99957275,0.4274292,-37.375,-86.96875,-60.484375
171,1695774166224,-0.20483398,-0.49884033,0.6178589,7.3125,-39.53125,-25.9375
172,1695774166264,0.1665039,-0.11920166,-0.11138916,-15.671875,22.515625,-8.0
173,1695774166304,-0.06958008,0.33221436,-0.30670166,-4.34375,24.8125,9.15625
174,1695774166344,-0.3791504,0.7728882,-0.16802979,28.46875,-27.28125,-30.453125
175,1695774166383,-0.078125,-0.6921997,-0.21759033,-65.46875,-31.234375,-15.671875
176,1695774166424,-2.0,-2.0,0.8410034,198.54688,-119.046875,91.265625
177,1695774166483,0.13085938,-1.9592896,0.37713623,0.578125,93.1875,56.5
178,1695774166485,-0.8828125,-1.3513794,0.20404053,28.734375,52.65625,29.96875
179,1695774166523,-0.69873047,-1.0161743,0.1071167,-0.1875,2.34375,-17.125
180,1695774166563,-0.22583008,-0.73687744,0.22039795,-35.78125,-18.296875,-16.046875
181,1695774166604,0.31079102,-0.9680786,0.3493042,-1.6875,54.75,18.328125
182,1695774166644,0.31713867,-0.20196533,-0.2263794,14.40625,0.546875,51.8125
183,1695774166684,-0.26049805,0.21746826,-0.011047363,-1.140625,-47.78125,17.703125
184,1695774166724,-0.01977539,0.24041748,-0.105041504,-16.75,-48.296875,-4.09375
185,1695774166765,-0.13647461,-0.058654785,0.097595215,-66.8125,-30.046875,-32.421875
186,1695774166804,1.999939,-2.0,0.11981201,124.03125,-61.390625,-105.75
187,1695774166843,-0.14355469,-1.6060181,1.1491089,15.546875,-6.484375,18.859375
188,1695774166883,-0.76782227,-1.6218872,-0.13092041,-47.6875,-62.09375,32.140625
189,1695774166924,-0.63378906,-0.8196411,0.49505615,66.515625,-18.359375,-44.75
190,1695774166964,-0.140625,-1.3460083,0.30218506,-57.765625,-111.46875,-45.28125
191,1695774167003,-0.28710938,-0.56451416,0.63983154,8.265625,12.59375,-23.125
192,1695774167043,-0.061767578,-0.09576416,-0.0256958,23.46875,54.21875,-14.40625
193,1695774167083,-0.061279297,0.4118042,-0.394104,12.390625,21.0,-11.5
194,1695774167125,-0.0146484375,0.7514038,-0.31671143,1.828125,-0.578125,-48.75
195,1695774167163,0.050048828,-0.94537354,-0.08868408,-46.421875,-21.125,-1.5625
196,1695774167204,-2.0,-2.0,1.2272339,254.39062,-118.859375,111.96875
197,1695774167243,-0.68359375,-1.8013306,0.7015991,27.578125,158.20312,36.203125
198,1695774167283,-0.8027344,-1.1072388,-0.14923096,48.421875,60.375,21.59375
199,1695774167324,-0.61938477,-1.2549438,0.101501465,-17.390625,0.84375,-21.390625
200,1695774167363,-0.06982422,-1.3150024,0.42767334,0.03125,-24.953125,4.15625
201,1695774167403,0.22729492,-0.9451294,0.27825928,28.125,79.125,51.703125
202,1695774167443,0.15356445,-0.2852173,0.07171631,21.515625,21.734375,78.1875
203,1695774167483,-0.42114258,0.23260498,-0.14215088,-64.03125,-93.296875,17.53125
204,1695774167525,-0.09472656,0.355896,-0.44976807,-32.53125,-30.015625,-16.78125
205,1695774167565,-0.14477539,-0.17608643,0.10418701,-3.046875,33.78125,-48.4375
206,1695774167603,1.999939,-2.0,1.1222534,-5.5,-66.34375,-69.625
207,1695774167643,-0.67211914,-1.3582153,1.0790405,0.984375,9.921875,26.578125
208,1695774167683,-0.59277344,-1.3674927,-0.18218994,-9.875,-38.65625,15.734375
209,1695774167703,-0.45703125,-1.0852661,0.4550171,50.65625,-8.046875,-61.65625
210,1695774167743,0.10986328,-1.0679321,0.7189331,-11.421875,-85.515625,-32.015625
211,1695774167783,-0.25097656,-0.395813,0.33026123,17.578125,28.84375,-12.5
212,1695774167824,-0.15429688,0.29803467,-0.13702393,27.03125,85.359375,3.734375
213,1695774167864,-0.26342773,0.8829956,-0.56817627,-12.328125,-2.640625,-22.765625
214,1695774167903,0.17333984,-0.02545166,-0.43951416,-50.890625,-15.6875,-88.234375
215,1695774167943,-0.1459961,-1.7224731,-1.1668091,-28.921875,10.703125,62.5
216,1695774167983,-0.103759766,-1.623352,1.999939,25.234375,126.484375,72.5
217,1695774168024,-0.9904785,-1.3899536,-0.53790283,-31.0625,67.46875,-2.640625
218,1695774168064,-0.6088867,-1.2976685,-0.37408447,-7.0625,29.71875,-32.09375
219,1695774168104,-0.30517578,-1.2732544,0.09686279,-2.703125,5.1875,-12.40625
220,1695774168144,0.2861328,-1.1626587,0.54241943,-5.9375,47.90625,15.640625
221,1695774168183,0.34472656,-0.3274536,0.046081543,40.59375,68.765625,71.28125
222,1695774168224,-0.21679688,0.24798584,-0.06451416,-34.8125,-50.796875,28.140625
223,1695774168263,-0.06567383,0.26483154,-0.22833252,-31.765625,-53.03125,-3.15625
224,1695774168303,-0.08251953,-0.06060791,-0.21270752,-35.703125,-12.984375,-22.78125
225,1695774168344,-0.32128906,-2.0,0.113708496,-24.765625,55.265625,-93.796875
226,1695774168383,-0.30249023,-1.381897,1.4994507,18.65625,-43.78125,40.140625
227,1695774168423,-0.31835938,-1.7039185,-0.40509033,-40.9375,-14.296875,4.71875
228,1695774168464,-0.7141113,-0.98028564,0.5331421,30.4375,-41.859375,-31.859375
229,1695774168503,-0.30322266,-0.7424927,0.46136475,-25.484375,-70.890625,-36.40625
230,1695774168544,-0.37231445,-0.3760376,0.38861084,8.28125,21.0625,-27.421875
231,1695774168583,-0.08935547,0.081970215,-0.022766113,25.53125,61.921875,-14.015625
232,1695774168623,-0.12060547,0.635437,-0.35064697,20.125,35.859375,-20.078125
233,1695774168663,0.17504883,0.31072998,-0.28961182,-4.34375,-7.03125,-62.375
234,1695774168705,-0.1003418,-0.94537354,-0.5261841,-35.5,4.34375,26.296875
235,1695774168745,-0.2626953,-2.0,1.999939,53.453125,-105.5625,42.4375
236,1695774168783,-0.33544922,-1.7263794,-0.17071533,-31.96875,83.828125,31.296875
237,1695774168824,-0.94677734,-1.232727,-0.16119385,27.84375,31.890625,22.359375
238,1695774168863,-0.7297363,-1.0125122,0.019226074,-18.75,43.984375,-42.90625
239,1695774168924,-0.1328125,-0.7761841,0.55511475,-30.84375,12.265625,-25.625
240,1695774168944,0.8347168,-1.0579224,0.1383667,42.03125,56.71875,50.203125
241,1695774168964,0.17236328,0.1461792,-0.24346924,8.1875,3.3125,82.6875
242,1695774169005,-0.27490234,0.46453857,0.0006713867,-34.765625,-76.953125,16.578125
243,1695774169043,-0.0769043,0.23406982,-0.33477783,-23.765625,-48.84375,-9.9375
244,1695774169084,-0.2536621,-0.26837158,0.12225342,-30.0625,8.703125,-49.671875
245,1695774169123,-0.5637207,-2.0,1.999939,-68.75,-190.5625,14.78125
246,1695774169163,0.07006836,-2.0,0.034606934,-32.390625,23.734375,5.84375
247,1695774169203,-1.0043945,-1.2747192,0.3336792,36.484375,-55.546875,27.25
248,1695774169245,-0.32226562,-1.0820923,0.35321045,35.015625,-15.625,-59.984375
249,1695774169283,-0.32080078,-0.7373657,0.5685425,-22.8125,-59.3125,-35.484375
250,1695774169324,-0.23632812,-0.28082275,0.2999878,18.546875,42.78125,-28.09375
251,1695774169366,-0.09790039,0.21795654,-0.33135986,30.9375,72.546875,-13.296875
252,1695774169403,0.111328125,0.8517456,-0.5015259,16.359375,29.203125,-26.34375
253,1695774169443,0.17407227,0.11126709,0.05682373,-3.046875,-7.0625,-32.71875
254,1695774169483,-0.26831055,-1.0803833,-0.4805298,-52.0625,0.25,33.90625
255,1695774169523,0.22314453,-2.0,1.999939,55.453125,27.5,26.25
256,1695774169564,-0.8095703,-1.7442017,0.3312378,-57.328125,95.046875,-2.765625
257,1695774169603,-0.8684082,-1.227356,-0.20684814,34.15625,40.171875,20.859375
258,1695774169643,-0.52490234,-0.92852783,-0.101623535,-28.265625,-6.046875,-31.90625
259,1695774169684,0.4086914,-1.5906372,0.7260132,-15.390625,29.34375,16.53125
260,1695774169724,0.6574707,-0.82818604,0.10809326,30.328125,50.015625,66.171875
261,1695774169763,-0.27441406,0.24969482,0.33026123,18.0625,-31.375,40.671875
262,1695774169805,-0.36450195,0.2477417,-0.12213135,-11.734375,-38.796875,-8.375
263,1695774169843,-0.13793945,0.054870605,-0.3513794,-50.640625,-26.828125,-21.875
264,1695774169883,-0.17993164,-1.0012817,-0.12823486,1.4375,22.265625,-39.125
265,1695774169926,-0.44213867,-2.0,1.9349976,14.59375,-39.375,40.859375
266,1695774169965,-0.28759766,-2.0,-0.29693604,-59.984375,-29.0,33.46875
267,1695774170003,-0.90185547,-0.7359009,0.6637573,44.578125,-40.453125,-0.28125
268,1695774170044,-0.1899414,-1.1760864,0.19940186,-32.09375,-83.484375,-64.328125
269,1695774170087,-0.2902832,-0.53302,0.6017456,4.671875,-17.28125,-21.1875
270,1695774170127,-0.014404297,-0.2966919,0.19720459,6.921875,21.6875,-17.71875
271,1695774170167,-0.02758789,0.22528076,-0.17095947,10.796875,41.484375,-18.515625
272,1695774170187,-0.1430664,0.49261475,-0.3880005,32.296875,-20.15625,-32.0625
273,1695774170226,-0.104003906,-0.3616333,-0.5684204,-30.390625,23.609375,-23.53125
274,1695774170266,-2.0,-2.0,1.0275269,-151.10938,51.0625,97.59375
275,1695774170306,-0.0625,-1.9876099,0.75164795,-6.15625,195.14062,3.59375
276,1695774170347,-1.1972656,-1.373352,0.24749756,19.609375,102.5625,11.625
277,1695774170388,-0.6203613,-1.1331177,0.06903076,-3.8125,0.390625,-8.59375
278,1695774170424,-0.14379883,-0.9612427,0.022399902,-17.796875,21.453125,-7.671875
279,1695774170466,0.5263672,-0.8850708,0.48797607,15.875,43.40625,38.53125
280,1695774170507,0.2927246,-0.2781372,-0.04937744,44.859375,36.84375,68.265625
281,1695774170547,-0.25561523,0.15740967,0.04876709,-16.65625,-67.609375,23.390625
282,1695774170587,-0.053955078,0.1593628,-0.3718872,-17.546875,-42.484375,-15.078125
283,1695774170628,-0.26293945,-0.28546143,0.04925537,-14.4375,20.21875,-54.234375
284,1695774170668,1.999939,-2.0,0.4833374,25.0625,-203.75,25.15625
285,1695774170708,-0.11352539,-1.8479614,0.6845093,6.609375,13.53125,20.4375
286,1695774170747,-0.82836914,-1.1912231,0.11932373,2.34375,-74.40625,31.015625
287,1695774170787,-0.4885254,-0.93170166,0.014343262,36.046875,-18.71875,-61.625
288,1695774170826,-0.05859375,-0.75982666,0.463562,-16.34375,-58.6875,-55.453125
289,1695774170867,-0.34765625,-0.4649048,0.4232788,22.046875,-7.453125,-26.734375
290,1695774170906,0.09399414,0.086120605,-0.23101807,16.65625,70.59375,-13.34375
291,1695774170959,0.23095703,0.5285034,-0.12164307,16.40625,10.015625,-5.59375
292,1695774170987,-0.23583984,0.0836792,-0.5967407,-35.328125,-14.59375,-10.703125
293,1695774171027,-1.6862793,-2.0,-2.0,-144.3125,65.609375,70.1875
294,1695774171066,0.41918945,-2.0,1.6239624,21.359375,151.53125,-0.8125
295,1695774171105,-0.8574219,-1.456604,0.2609253,-20.046875,130.98438,10.875
296,1695774171144,-0.73168945,-1.175354,-0.24395752,-5.84375,-24.46875,17.109375
297,1695774171184,-0.28637695,-0.8731079,0.02923584,-20.46875,43.25,-30.3125
298,1695774171223,0.43847656,-1.076477,0.5216675,-16.65625,7.71875,19.796875
299,1695774171265,0.21582031,-0.42437744,0.00018310547,58.0625,64.8125,69.875
300,1695774171303,-0.1184082,0.06707764,0.1395874,-13.28125,-53.328125,36.828125
301,1695774171343,-0.30249023,0.3475952,-0.2420044,-20.53125,-63.578125,-2.796875
302,1695774171383,0.017333984,0.06976318,-0.48565674,-41.71875,-11.671875,-37.40625
303,1695774171407,-0.9169922,-2.0,0.55584717,-2.046875,113.140625,-83.921875
304,1695774171443,-0.25756836,-1.4627075,1.0480347,-18.203125,-1.921875,12.234375
305,1695774171484,-0.33276367,-1.5750122,-0.05230713,-49.9375,-17.34375,47.0625
306,1695774171524,-0.60424805,-0.9429321,0.543396,50.6875,-72.875,-6.15625
307,1695774171563,-0.2006836,-1.3970337,0.26483154,-31.109375,-43.46875,-58.625
308,1695774171604,-0.44921875,-0.59820557,0.39569092,-31.46875,-49.609375,-15.78125
309,1695774171644,-0.10229492,-0.38555908,0.18304443,6.078125,36.296875,-21.09375
310,1695774171683,0.036132812,0.058288574,-0.12945557,45.25,36.125,-14.0625
311,1695774171725,-0.12084961,0.3102417,-0.08917236,8.1875,5.125,-25.109375
312,1695774171765,-0.2614746,0.08074951,-0.61846924,-63.953125,28.5625,-44.15625
313,1695774171803,-1.8762207,-2.0,-1.310852,-165.46875,35.28125,66.78125
314,1695774171843,0.36865234,-1.8562622,0.96014404,21.578125,168.70312,7.515625
315,1695774171883,-1.0900879,-1.3848267,0.32684326,14.875,87.265625,18.96875
316,1695774171923,-0.73583984,-1.0635376,0.168396,-3.578125,31.171875,19.75
317,1695774171964,-0.44018555,-0.9985962,0.08416748,-19.578125,5.28125,-0.109375
318,1695774172003,0.015136719,-1.0476685,0.48968506,-20.328125,55.140625,14.203125
319,1695774172044,0.41381836,-0.53131104,0.0072631836,17.40625,51.0625,56.5625
320,1695774172083,-0.11767578,0.051452637,0.12689209,-9.25,-22.75,24.875
321,1695774172123,-0.2097168,0.32025146,-0.1375122,-12.515625,-18.453125,-0.84375
322,1695774172163,0.009277344,0.20916748,-0.2630005,-23.53125,3.953125,-11.625
323,1695774172203,-0.77978516,-1.611145,-0.16046143,-36.953125,35.65625,-46.53125
324,1695774172244,-0.5739746,-2.0,1.999939,-30.171875,10.46875,-29.015625
325,1695774172283,-0.19921875,-1.8084106,-0.2432251,-39.6875,14.203125,15.015625
326,1695774172323,-0.8791504,-0.97979736,0.66326904,40.921875,-27.46875,25.546875
327,1695774172363,-0.28857422,-1.2793579,0.30999756,-25.125,-66.234375,-48.140625
328,1695774172403,-0.64331055,-1.1109009,0.6244507,-34.0625,-27.734375,-34.640625
329,1695774172444,-0.49853516,-0.4631958,-0.038391113,2.59375,76.328125,-39.921875
330,1695774172484,0.20581055,-0.11016846,-0.11236572,94.484375,49.28125,-24.859375
331,1695774172523,-0.07104492,0.19158936,0.017028809,33.1875,34.796875,-28.328125
332,1695774172564,0.033447266,-0.03668213,-0.4631958,-35.046875,68.578125,-10.015625
333,1695774172603,-0.39526367,-1.2549438,-1.1758423,-24.578125,3.390625,60.0625
334,1695774172623,-1.0002441,-2.0,1.999939,16.453125,83.125,20.546875
335,1695774172663,-0.626709,-1.8308716,0.044128418,15.65625,87.03125,6.671875
336,1695774172706,-0.95825195,-1.1018677,-0.10845947,-2.859375,73.921875,16.609375
337,1695774172744,-0.6328125,-0.7234497,-0.11383057,9.046875,57.59375,-19.234375
338,1695774172784,0.20898438,-0.7739868,0.2140503,-21.203125,58.265625,-10.6875
339,1695774172823,0.3203125,-0.70147705,0.28729248,37.03125,80.421875,18.3125
340,1695774172864,0.12548828,0.044128418,-0.13018799,1.28125,57.671875,52.1875
341,1695774172903,0.008056641,0.61883545,-0.458313,-33.65625,-52.515625,29.0
342,1695774172944,-0.2541504,-0.094055176,0.035827637,9.3125,0.15625,-24.421875
343,1695774172983,1.0292969,-2.0,1.0192261,109.59375,-117.546875,-85.328125
344,1695774173024,-0.7133789,-1.3167114,0.67840576,-1.546875,110.171875,-17.796875
345,1695774173063,-0.6796875,-1.2097778,-0.09161377,10.828125,29.046875,-5.171875
346,1695774173103,-0.18823242,-1.1992798,0.39471436,48.25,-37.3125,-31.125
347,1695774173144,-0.53686523,-0.99102783,0.6503296,-3.6875,0.953125,-16.796875
348,1695774173183,-0.5415039,-0.33062744,0.013122559,10.3125,93.09375,-27.859375
349,1695774173224,-0.22363281,0.49749756,-0.6992798,19.140625,97.078125,-31.234375
350,1695774173264,0.2932129,1.1762085,-0.4758911,32.9375,39.421875,-84.21875
351,1695774173303,0.38500977,-0.24737549,0.10223389,17.5,50.953125,-1.828125
352,1695774173343,-0.3227539,-0.9780884,-0.97979736,-18.265625,76.390625,46.3125
353,1695774173383,-0.5241699,-2.0,1.999939,28.140625,24.109375,-9.078125
354,1695774173423,-0.642334,-2.0,-0.0178833,-30.515625,82.359375,2.625
355,1695774173464,-0.75634766,-1.6118774,-0.5432739,42.359375,65.34375,52.953125
356,1695774173504,-0.94970703,-1.0274048,0.37786865,-29.0625,28.703125,-25.109375
357,1695774173544,-0.15649414,-1.5874634,0.5055542,5.34375,36.84375,-14.671875
358,1695774173583,0.7402344,-1.0020142,0.034118652,57.171875,102.171875,71.671875
359,1695774173624,0.23217773,0.32025146,-0.2288208,9.15625,-30.953125,63.390625
360,1695774173664,-0.1665039,0.50115967,-0.32159424,-10.75,-65.984375,16.90625
361,1695774173703,-0.10522461,0.29437256,-0.40533447,-8.640625,-39.90625,8.9375
362,1695774173743,0.118896484,-0.1296997,-0.06695557,-28.5625,-6.125,-43.609375
363,1695774173783,1.999939,-2.0,-0.84991455,127.84375,-223.10938,101.421875
364,1695774173824,-0.10620117,-1.885315,0.10296631,-4.140625,87.109375,-9.890625
365,1695774173843,-0.22680664,-1.5027466,-0.0029907227,-4.71875,-40.71875,-28.578125
366,1695774173884,0.15722656,-1.4002075,0.2929077,56.609375,-86.0,-65.265625
367,1695774173923,-0.23583984,-0.7481079,0.5372925,-41.21875,-45.578125,-13.96875
368,1695774173964,-0.1237793,-0.1795044,0.081970215,-12.671875,15.96875,-26.859375
369,1695774174003,-0.25976562,0.24603271,-0.1663208,14.5625,23.890625,-21.8125
370,1695774174044,-0.24047852,1.3366089,-0.5249634,-14.75,-34.3125,-52.96875
371,1695774174083,0.17871094,-0.65631104,-0.32598877,-74.3125,-8.21875,-50.71875
372,1695774174126,0.009033203,-1.5427856,-0.32867432,-17.90625,-12.015625,4.234375
373,1695774174163,-0.1772461,-1.4138794,1.680603,-1.125,33.546875,38.28125
374,1695774174204,-0.52856445,-1.7214966,-0.0803833,-53.71875,79.140625,24.953125
375,1695774174243,-0.40063477,-1.0286255,-0.24029541,8.296875,-17.390625,16.75
376,1695774174283,-0.15820312,-0.7402954,0.262146,14.515625,-2.46875,-41.40625
377,1695774174323,0.26123047,-1.2297974,0.668396,-24.71875,-64.421875,12.734375
378,1695774174363,0.1381836,-0.5408325,0.15765381,7.671875,43.953125,63.59375
379,1695774174405,-0.111572266,0.09979248,-0.6433716,-63.09375,-151.26562,35.75
380,1695774174444,0.095703125,0.4442749,0.14910889,27.40625,-76.375,-8.21875
381,1695774174484,-0.049072266,0.33172607,-0.7136841,-29.34375,-43.984375,-50.21875
382,1695774174524,0.7939453,-2.0,0.062683105,-97.421875,-5.640625,-114.671875
383,1695774174563,-1.6066895,-0.9924927,0.77459717,-17.453125,-90.875,94.703125
384,1695774174604,-0.37231445,-1.3513794,0.009216309,-22.046875,-39.703125,8.25
385,1695774174643,-0.05834961,-0.69610596,0.23431396,34.96875,-131.46875,-49.609375
386,1695774174683,0.04345703,-2.0,0.8510132,-83.625,-151.85938,-33.703125
387,1695774174723,-0.5126953,-0.70880127,0.24627686,-63.859375,-59.640625,2.84375
388,1695774174763,-0.110839844,-0.28155518,0.008483887,-0.90625,3.734375,-6.65625
389,1695774174804,0.0012207031,0.96307373,-0.725647,30.140625,-46.4375,-25.46875
390,1695774174844,-0.22924805,0.902771,-0.15704346,-11.765625,-13.65625,-43.375
391,1695774174883,0.08544922,-0.84869385,-0.022766113,-43.859375,-66.046875,-34.6875
392,1695774174924,0.51123047,-2.0,1.999939,32.796875,-188.96875,90.59375
393,1695774174963,-0.38012695,-1.1626587,0.24139404,-27.90625,13.78125,29.078125
394,1695774175003,-1.2263184,-1.6062622,0.49969482,30.921875,-53.953125,40.046875
395,1695774175044,-0.5744629,-0.7007446,-0.13189697,-44.046875,-84.578125,-57.0
396,1695774175064,0.45117188,-1.7901001,0.6781616,-9.078125,-59.984375,10.0625
397,1695774175104,0.6113281,-0.7119751,-0.036193848,23.6875,1.625,87.078125
398,1695774175143,-0.16333008,-0.06109619,-0.32086182,-31.171875,-128.35938,56.515625
399,1695774175183,-0.025878906,0.08416748,-0.078186035,19.203125,-104.125,14.359375
400,1695774175223,-0.027832031,0.25872803,-0.28277588,12.546875,-95.515625,-20.421875
401,1695774175263,-0.39379883,0.14422607,0.034362793,-67.984375,-44.984375,-50.421875
402,1695774175304,1.4606934,-2.0,1.3703003,227.53125,-198.10938,-45.640625
403,1695774175344,0.09350586,-1.8013306,0.93255615,3.640625,29.234375,10.0
404,1695774175383,-0.6218262,-1.2676392,-0.0022583008,-9.71875,-58.234375,38.8125
405,1695774175424,-0.4399414,-0.8982544,0.04168701,47.921875,-119.125,-52.4375
406,1695774175465,-0.3256836,-1.0869751,0.67230225,1.859375,-68.34375,-41.90625
407,1695774175503,-0.17797852,-0.7998657,0.4935913,-22.25,-42.046875,-20.28125
408,1695774175543,-0.03930664,-0.33062744,-0.19293213,39.109375,34.1875,0.453125
409,1695774175584,-0.20776367,0.19403076,-0.20635986,38.0625,33.90625,-4.046875
410,1695774175623,-0.39453125,0.55218506,-0.2942505,-11.40625,9.015625,-49.484375
411,1695774175664,0.18823242,-0.74542236,-0.21514893,-37.828125,-6.96875,-26.921875
412,1695774175703,-2.0,-2.0,1.6427612,-25.59375,-66.078125,-4.34375
413,1695774175744,-0.6586914,-1.269104,0.5072632,58.59375,138.64062,79.390625
414,1695774175784,-0.62939453,-1.6785278,0.010192871,17.15625,-14.15625,46.140625
415,1695774175824,-0.72875977,-0.8062134,-0.06109619,-2.28125,-0.765625,-8.515625
416,1695774175864,0.26757812,-0.84698486,0.034362793,-18.390625,-10.765625,-13.671875
417,1695774175903,0.31201172,-1.0073853,0.33099365,-3.515625,-23.609375,29.546875
418,1695774175944,0.3408203,0.039733887,-0.26885986,8.609375,-38.90625,82.03125
419,1695774175983,-0.28100586,0.27801514,0.04901123,10.140625,-73.546875,18.875
420,1695774176024,-0.296875,0.17230225,-0.38653564,-12.21875,-69.421875,-27.09375
421,1695774176063,-0.36132812,0.1984253,-0.12506104,-52.9375,-24.8125,-83.4375
422,1695774176104,-0.6508789,-2.0,0.055603027,-46.171875,83.328125,-121.53125
423,1695774176144,0.43359375,-1.9561157,0.6244507,15.234375,-24.46875,48.453125
424,1695774176183,-0.41430664,-1.7991333,-0.74224854,-51.34375,-30.9375,4.046875
425,1695774176224,-0.6513672,-1.2297974,0.3685913,36.484375,-96.421875,-44.09375
426,1695774176264,-0.22485352,-1.3855591,0.557312,-20.109375,-118.546875,-49.640625
427,1695774176283,-0.53393555,-0.6253052,0.30975342,-16.84375,2.578125,-45.125
428,1695774176324,0.046142578,-0.1885376,0.0289917,14.59375,37.59375,-27.25
429,1695774176363,0.033447266,0.47650146,-0.17388916,-23.40625,-9.078125,-34.515625
430,1695774176405,0.18481445,1.1720581,-0.12310791,-26.0,8.078125,-23.375
431,1695774176444,-0.10131836,-0.44244385,-0.07696533,-12.3125,11.40625,-15.4375
432,1695774176483,-0.34033203,-0.8098755,-0.39019775,-75.25,-12.171875,27.984375
433,1695774176524,0.119384766,-2.0,1.999939,35.109375,-57.15625,-20.703125
434,1695774176563,-0.3137207,-1.7781372,0.34588623,-25.546875,48.953125,21.59375
435,1695774176604,-0.5131836,-1.5825806,-0.12652588,63.4375,53.546875,64.71875
436,1695774176644,-0.9536133,-1.3665161,0.42596436,-14.890625,-45.1875,-10.171875
437,1695774176683,-0.09399414,-1.2896118,0.113708496,-19.46875,1.53125,-6.34375
438,1695774176726,0.50341797,-1.0747681,0.32269287,30.46875,27.65625,33.53125
439,1695774176763,0.24853516,-0.3196411,0.24822998,-3.921875,-25.5625,58.15625
440,1695774176807,-0.28051758,0.3053589,-0.089660645,-45.703125,-106.34375,11.984375
441,1695774176842,-0.26171875,0.35906982,-0.3098755,-5.34375,-73.953125,-5.59375
442,1695774176882,-0.12182617,0.39813232,-0.081848145,-21.640625,-14.28125,-14.890625
443,1695774176922,0.30737305,-0.28009033,-0.22418213,-6.71875,-55.53125,-32.390625
444,1695774176963,1.0085449,-2.0,0.8739624,10.0625,-269.01562,74.046875
445,1695774177003,-0.27734375,-2.0,-0.12188721,-27.171875,-31.390625,25.4375
446,1695774177042,-0.48583984,-1.227356,0.23919678,-2.65625,-71.0625,-9.625
447,1695774177082,0.084472656,-1.2442017,0.28485107,42.140625,-115.375,-36.4375
448,1695774177122,-0.21044922,-0.69000244,0.48919678,-23.6875,-45.5,-13.046875
449,1695774177162,-0.18481445,-0.33966064,0.109558105,-14.15625,-25.015625,-8.34375
450,1695774177202,-0.048828125,0.03778076,-0.08868408,1.453125,10.4375,4.953125
451,1695774177243,-0.25512695,0.3529663,-0.22467041,27.171875,-2.484375,-17.3125
452,1695774177283,-0.2692871,0.4545288,-0.30841064,-22.046875,-9.6875,-49.1875
453,1695774177323,0.01586914,-0.8740845,0.010925293,-24.140625,-29.359375,0.828125
454,1695774177363,0.68066406,-2.0,1.999939,59.53125,-270.64062,79.578125
455,1695774177403,-0.6706543,-1.7278442,0.16278076,-48.5,93.703125,21.125
456,1695774177442,-0.6726074,-1.3357544,-0.2468872,39.84375,15.25,23.359375
457,1695774177503,-0.37036133,-0.81573486,0.1005249,4.375,17.734375,-41.84375
458,1695774177522,0.20874023,-1.0588989,0.48114014,-30.1875,-17.71875,-6.265625
459,1695774177543,0.16088867,-0.76690674,0.49310303,-10.390625,39.234375,32.765625
460,1695774177583,0.14453125,-0.109436035,-0.2991333,5.75,-17.09375,45.515625
461,1695774177623,-0.3322754,0.22869873,-0.032043457,-6.296875,-45.5625,-0.46875
462,1695774177663,-0.06542969,0.10272217,-0.19342041,-50.75,-45.234375,-32.25
463,1695774177704,0.22924805,-1.015686,0.1876831,2.859375,25.59375,-45.671875
464,1695774177743,-0.6452637,-2.0,0.6288452,-39.53125,-217.48438,91.515625
465,1695774177783,-0.3154297,-1.8015747,0.25775146,-28.65625,26.0625,11.703125
466,1695774177823,-0.6804199,-1.1646118,0.15106201,23.421875,-75.765625,-5.5625
467,1695774177864,-0.30249023,-0.928772,0.21820068,73.03125,-32.0,-46.90625
468,1695774177903,-0.3347168,-0.8442993,0.7470093,-28.703125,-64.03125,-25.53125
469,1695774177943,-0.30029297,-0.56036377,0.27972412,-16.984375,4.96875,-23.046875
470,1695774177983,-0.10961914,-0.042053223,-0.16021729,21.28125,62.359375,-15.234375
471,1695774178025,-0.11669922,0.21795654,-0.32232666,-12.546875,10.328125,-26.640625
472,1695774178064,-0.013427734,-0.10455322,-0.5154419,-39.375,5.6875,-28.609375
473,1695774178104,-2.0,-2.0,-0.71221924,-135.57812,46.953125,71.671875
474,1695774178143,-0.5214844,-1.2276001,1.1002808,7.859375,124.53125,5.84375
475,1695774178183,-0.79052734,-1.2825317,0.20526123,2.484375,69.953125,2.46875
476,1695774178223,-0.29638672,-0.87286377,-0.0134887695,18.453125,0.859375,4.3125
477,1695774178263,-0.3293457,-0.88116455,0.24871826,-0.96875,-30.328125,16.546875
478,1695774178304,0.010253906,-0.9282837,0.59368896,-15.671875,10.5,23.4375
479,1695774178344,0.16186523,-0.45758057,0.02142334,22.09375,44.25,41.78125
480,1695774178383,-0.15576172,0.07269287,-0.105773926,-10.375,-32.1875,19.09375
481,1695774178423,0.04321289,0.22064209,-0.4463501,-44.1875,-53.34375,-13.6875
482,1695774178463,-0.1628418,-0.6543579,0.014587402,-7.734375,-8.265625,-43.5
483,1695774178504,-0.49609375,-2.0,1.999939,-73.578125,-224.09375,62.09375
484,1695774178544,0.13330078,-1.9299927,0.051452637,-55.28125,-40.0,15.40625
485,1695774178583,-0.8239746,-0.9458618,-0.10430908,38.828125,-39.28125,26.25
486,1695774178623,-0.40185547,-0.62677,0.1281128,40.203125,-45.828125,-24.421875
487,1695774178665,-0.54833984,-0.3303833,0.49945068,21.703125,-36.8125,-26.046875
488,1695774178703,-0.17358398,-0.5005493,0.12982178,-8.125,13.3125,-30.765625
489,1695774178743,-0.13720703,0.19232178,-0.19586182,11.65625,66.234375,-22.515625
490,1695774178763,-0.12011719,0.28704834,-0.7788696,-51.640625,44.0,-41.265625
491,1695774178803,0.25146484,-0.8467407,-1.1392212,4.59375,-26.828125,1.796875
492,1695774178843,0.5234375,-2.0,1.999939,154.46875,-127.34375,95.65625
493,1695774178884,-0.9929199,-2.0,-0.6121216,-25.3125,43.90625,45.28125
494,1695774178923,-0.8195801,-0.741272,-0.19024658,25.3125,49.9375,13.890625
495,1695774178964,-0.3786621,-1.3167114,-0.16558838,32.90625,-6.515625,-19.8125
496,1695774179003,-0.12231445,-1.0701294,0.63983154,-21.453125,8.609375,-4.859375
497,1695774179043,0.19506836,-0.7034302,0.41131592,25.8125,87.46875,24.578125
498,1695774179083,0.022705078,-0.24615479,-0.22418213,-8.8125,30.1875,41.515625
499,1695774179125,-0.080322266,0.42694092,-0.18463135,-46.265625,-70.15625,14.421875
500,1695774179163,0.038330078,0.32196045,-0.24908447,-50.453125,-48.703125,-5.203125
501,1695774179203,-0.011962891,-0.5059204,-0.019592285,13.25,32.390625,-33.3125
502,1695774179243,-0.5397949,-2.0,1.4127808,-33.078125,-258.90625,87.53125
503,1695774179283,-0.2854004,-1.9761353,0.08416748,13.03125,44.59375,-7.71875
504,1695774179323,-0.8989258,-0.98687744,0.05706787,29.578125,-63.75,-8.140625
505,1695774179366,-0.36987305,-0.5462036,0.112976074,34.90625,-47.828125,-74.671875
506,1695774179405,-0.6401367,-0.9924927,0.6359253,-27.1875,-12.625,-8.5
507,1695774179445,-0.22436523,-0.3772583,0.1552124,10.875,50.875,-24.109375
508,1695774179483,0.103271484,0.09979248,-0.19342041,14.78125,38.796875,-24.796875
509,1695774179523,0.25341797,0.4694214,-0.07305908,27.25,9.5625,-11.765625
510,1695774179565,0.22290039,0.1473999,-0.10650635,7.015625,38.953125,3.828125
511,1695774179607,-0.12426758,-0.90948486,-0.45880127,-36.828125,21.15625,29.234375
512,1695774179643,-1.1699219,-2.0,1.999939,-11.4375,-87.515625,19.28125
513,1695774179686,-0.47973633,-1.9976196,0.44989014,2.59375,125.046875,-0.59375
514,1695774179722,-0.33422852,-1.6621704,-0.27642822,40.15625,9.875,56.25
515,1695774179763,-0.3852539,-1.0261841,0.25897217,-5.59375,-13.203125,13.921875
516,1695774179804,0.079833984,-1.1907349,0.51605225,-41.140625,1.71875,4.09375
517,1695774179842,0.28686523,-0.54473877,0.047546387,-1.46875,27.671875,38.265625
518,1695774179882,-0.016601562,0.1852417,0.03729248,-5.84375,-24.546875,30.46875
519,1695774179923,-0.09326172,0.2921753,-0.03643799,-3.453125,-30.1875,4.1875
520,1695774179962,0.013916016,0.0758667,-0.45513916,-22.5625,-40.234375,-8.625
521,1695774179982,-0.19580078,-0.45440674,0.13543701,8.375,-21.5625,-25.859375
522,1695774180023,-0.02709961,-2.0,0.5336304,-90.140625,-247.10938,45.140625
523,1695774180062,-0.03564453,-2.0,0.18231201,-17.421875,42.1875,-5.59375
524,1695774180102,-0.73339844,-1.317688,0.43328857,26.65625,-46.625,1.046875
525,1695774180142,-0.2902832,-1.0059204,0.2645874,22.375,-63.765625,-53.125
526,1695774180182,-0.4729004,-0.61016846,0.5861206,-25.15625,-38.546875,-25.203125
527,1695774180222,0.14013672,-0.008117676,-0.013977051,-3.53125,34.671875,-31.484375
528,1695774180263,0.09277344,0.29022217,-0.12237549,-10.03125,24.78125,-13.140625
529,1695774180302,0.12915039,0.43695068,-0.34918213,22.765625,10.234375,-16.703125
530,1695774180342,-0.021728516,-0.13409424,-0.2835083,-15.015625,27.03125,-5.0625
531,1695774180382,-1.1469727,-2.0,-1.602356,-110.546875,-15.6875,63.84375
532,1695774180423,0.46240234,-2.0,1.5853882,12.265625,134.6875,-10.515625
533,1695774180462,-1.1728516,-1.6638794,0.60736084,-25.625,80.921875,28.140625
534,1695774180503,-0.61743164,-1.1404419,-0.030090332,14.03125,20.90625,22.453125
535,1695774180546,-0.36157227,-1.0632935,0.04925537,-16.96875,4.1875,2.0
536,1695774180583,0.36254883,-0.7817993,0.43328857,-17.140625,30.484375,22.96875
537,1695774180623,0.47216797,-0.41827393,-0.02154541,4.9375,32.03125,48.015625
538,1695774180663,-0.06738281,0.14666748,0.070495605,-2.75,-26.0625,19.09375
539,1695774180703,-0.11987305,0.3600464,-0.12701416,-0.046875,-39.890625,-10.9375
540,1695774180743,-0.10961914,0.23504639,-0.3796997,-36.75,-39.140625,-25.4375
541,1695774180783,-0.103271484,-0.6213989,0.20550537,8.5,13.4375,-49.84375
542,1695774180824,-0.67163086,-2.0,1.999939,-28.09375,-111.6875,28.25
543,1695774180864,-0.26000977,-2.0,-0.2144165,-51.546875,18.078125,8.46875
544,1695774180904,-0.57299805,-1.1404419,0.4882202,46.296875,-46.265625,-5.78125
545,1695774180944,-0.14819336,-1.3474731,0.41986084,-20.28125,-90.578125,-67.859375
546,1695774180982,-0.6022949,-0.4763794,0.44818115,-34.703125,-38.453125,-19.796875
547,1695774181023,-0.16210938,-0.21051025,0.13348389,8.34375,42.34375,-35.4375
548,1695774181064,0.14550781,0.24456787,-0.108947754,9.453125,11.265625,-27.125
549,1695774181103,0.14428711,0.63494873,-0.030822754,21.1875,-6.875,-18.859375
550,1695774181143,0.12109375,-0.08892822,-0.070129395,-9.390625,10.421875,-10.59375
551,1695774181184,-0.42895508,-1.383606,-0.8804321,-76.453125,-11.828125,47.25
552,1695774181203,-0.28051758,-1.8599243,1.999939,-10.6875,3.203125,-10.546875
553,1695774181242,-0.92333984,-1.5808716,0.32537842,-16.734375,99.203125,0.03125
554,1695774181283,-0.47094727,-1.3843384,-0.31915283,24.625,13.984375,28.953125
555,1695774181324,-0.42382812,-1.2442017,0.0138549805,-11.4375,17.328125,-10.734375
556,1695774181364,-0.068603516,-1.1543579,0.7374878,-25.453125,-5.578125,0.53125
557,1695774181403,0.32788086,-0.8045044,0.10784912,27.09375,72.640625,39.75
558,1695774181444,0.18603516,-0.12506104,-0.13092041,10.09375,-12.984375,61.765625
559,1695774181482,-0.3071289,0.46990967,-0.014221191,-17.109375,-78.796875,11.28125
560,1695774181523,-0.14453125,0.34613037,-0.46099854,-14.25,-23.5,-26.78125
561,1695774181565,-0.27783203,-0.6826782,0.02947998,-19.078125,39.546875,-63.015625
562,1695774181603,1.3388672,-2.0,0.074645996,32.46875,-288.84375,28.15625
563,1695774181644,-0.15917969,-1.8582153,0.15081787,-24.921875,73.90625,4.78125
564,1695774181683,-0.43286133,-1.1538696,-0.10479736,36.203125,-30.03125,24.96875
565,1695774181723,-0.41015625,-0.69000244,0.3361206,19.0625,-87.53125,-73.859375
566,1695774181765,-0.5007324,-1.1011353,0.6884155,-48.5,-93.125,-17.875
567,1695774181803,-0.32299805,-0.472229,0.21160889,-14.484375,-3.40625,-19.3125
568,1695774181843,-0.030761719,-0.16485596,0.050231934,29.5625,38.53125,-14.78125
569,1695774181883,0.114746094,0.3361206,-0.066711426,11.453125,-9.390625,-5.0625
570,1695774181924,-0.08496094,0.25628662,-0.51763916,-29.3125,22.203125,-11.84375
571,1695774181963,-0.009521484,-1.1218872,-0.706604,-21.046875,-11.484375,13.78125
572,1695774182005,-0.5336914,-2.0,1.999939,21.953125,-4.890625,24.53125
573,1695774182043,-0.55810547,-1.6172485,-0.13800049,-21.0625,50.125,13.1875
574,1695774182084,-0.4033203,-1.0029907,-0.0134887695,42.0,23.703125,22.40625
575,1695774182124,-0.41601562,-1.3247681,0.3619995,-2.03125,-28.484375,-6.75
576,1695774182166,-0.19384766,-0.8220825,0.41326904,-15.46875,6.359375,17.625
577,1695774182205,0.033691406,-0.69366455,0.15765381,-9.40625,47.78125,32.53125
578,1695774182243,-0.08911133,-0.19122314,-0.07330322,-7.3125,-2.125,20.25
579,1695774182283,-0.023925781,0.0993042,-0.31280518,-24.703125,-43.6875,-1.671875
580,1695774182323,-0.020996094,-0.13092041,0.1876831,-10.828125,-12.6875,-11.390625
581,1695774182364,0.7233887,-1.2319946,0.45306396,16.65625,-5.6875,-50.125
582,1695774182424,-1.2490234,-1.6223755,0.9003296,-26.734375,-183.21875,73.53125
583,1695774182427,-0.25561523,-1.692688,0.06707764,-6.265625,33.390625,0.9375
584,1695774182464,-0.58740234,-1.0029907,0.36834717,33.109375,-57.109375,-17.84375
585,1695774182503,-0.2055664,-1.425354,0.3842163,33.984375,-65.859375,-35.546875
586,1695774182544,-0.33129883,-0.6026001,0.3036499,6.65625,-32.9375,-18.421875
587,1695774182583,-0.041259766,-0.2703247,0.08416748,10.875,23.96875,-21.09375
588,1695774182623,-0.083740234,0.08880615,-0.1531372,13.15625,24.171875,-18.921875
589,1695774182665,-0.08129883,0.50335693,-0.21466064,2.359375,-0.828125,-26.109375
590,1695774182707,-0.013671875,-0.18414307,-0.33746338,-33.46875,30.359375,-19.296875
591,1695774182746,-0.30981445,-2.0,-0.9116821,-60.890625,-8.90625,58.78125
592,1695774182786,-0.61743164,-1.866272,1.66156,-16.921875,66.125,40.515625
593,1695774182827,-1.1748047,-1.385315,0.15985107,-34.3125,56.03125,11.265625
594,1695774182868,-0.39379883,-1.0247192,-0.36846924,25.65625,28.140625,-7.40625
595,1695774182905,-0.013916016,-1.3694458,0.3397827,7.203125,-6.78125,7.03125
596,1695774182945,0.2800293,-1.2515259,0.4381714,-16.46875,10.3125,39.1875
597,1695774182986,0.40551758,0.046325684,-0.09649658,17.0,31.875,76.8125
598,1695774183025,-0.38989258,0.46795654,0.005554199,0.0625,-47.125,8.09375
599,1695774183066,-0.28344727,0.50457764,-0.10430908,-17.640625,-40.390625,-14.3125
600,1695774183107,0.0715332,0.22528076,-0.43292236,-42.921875,-7.203125,-31.34375
601,1695774183147,-0.51831055,-1.3814087,0.015075684,20.84375,13.359375,-43.09375
602,1695774183188,-0.092041016,-2.0,1.6798706,-68.671875,-99.765625,-13.140625
603,1695774183223,-0.14550781,-1.951477,-0.2276001,-36.234375,3.796875,28.328125
604,1695774183262,-1.1464844,-1.1026001,0.36517334,71.46875,-101.015625,23.578125
605,1695774183303,-0.6020508,-0.8899536,0.33514404,-28.203125,-70.578125,-97.46875
606,1695774183342,-0.42358398,-0.6465454,0.60369873,-35.671875,-30.78125,-36.34375
607,1695774183383,-0.07495117,-0.31378174,0.06732178,8.359375,25.578125,-23.8125
608,1695774183423,0.048095703,0.4315796,-0.24395752,4.46875,47.140625,-8.328125
609,1695774183462,-0.012451172,0.8847046,-0.37652588,5.015625,18.921875,-8.234375
610,1695774183503,0.05444336,-0.26861572,-0.18560791,-21.109375,23.890625,-24.640625
611,1695774183544,-0.45751953,-1.8401489,-0.83477783,-75.890625,-13.046875,63.984375
612,1695774183583,0.12084961,-2.0,1.7138062,44.125,104.265625,29.546875
613,1695774183622,-1.5056152,-1.2664185,0.4911499,-13.765625,93.21875,9.375
614,1695774183642,-0.3972168,-1.2276001,-0.09625244,5.984375,25.84375,12.171875
615,1695774183684,-0.17211914,-0.90509033,0.3949585,-40.78125,-18.4375,4.3125
616,1695774183723,0.3708496,-0.767395,0.40252686,-12.96875,31.90625,38.984375
617,1695774183762,0.15576172,0.12176514,-0.2835083,13.359375,18.25,48.109375
618,1695774183816,-0.14013672,0.3925171,-0.04498291,1.40625,-38.609375,12.328125
619,1695774183844,0.057861328,0.23114014,-0.093566895,-23.75,-46.8125,0.84375
620,1695774183883,-0.0061035156,0.027526855,-0.2876587,-54.375,-36.40625,-27.34375
621,1695774183924,-0.20263672,-2.0,0.9291382,200.26562,48.34375,-104.8125
622,1695774183966,0.29956055,-2.0,1.116394,8.671875,48.421875,-8.265625
623,1695774184008,-0.6081543,-1.5811157,-0.17388916,-12.9375,-26.40625,30.875
624,1695774184048,-0.46044922,-1.6240845,0.23553467,40.109375,-33.484375,-39.46875
625,1695774184086,-0.5270996,-0.8049927,0.75286865,-20.515625,-60.6875,-47.515625
626,1695774184125,-0.106933594,-0.62384033,0.30096436,19.890625,5.953125,-45.234375
627,1695774184165,-0.026123047,0.2855835,-0.022521973,-1.15625,35.5625,-4.859375
628,1695774184207,-0.02368164,0.6901245,-0.47491455,-0.875,22.921875,1.828125
629,1695774184245,0.14282227,0.12347412,-0.13116455,22.609375,26.171875,-35.640625
630,1695774184288,0.072021484,-0.81329346,-0.40118408,-10.09375,-15.328125,25.078125
631,1695774184328,0.08984375,-2.0,1.999939,170.82812,-245.5,70.03125
632,1695774184367,-0.6767578,-1.975647,-0.14141846,-6.359375,132.10938,12.46875
633,1695774184408,-0.39697266,-1.5767212,-0.37530518,50.265625,47.78125,31.3125
634,1695774184446,-0.6098633,-1.0332642,0.2723999,-16.609375,14.34375,-3.3125
635,1695774184485,-0.004638672,-0.8171997,0.42547607,-32.90625,12.90625,9.875
636,1695774184527,0.5620117,-0.41119385,-0.17266846,16.65625,62.15625,56.109375
637,1695774184566,-0.14111328,0.39666748,0.055847168,-1.75,-15.484375,27.125
638,1695774184609,-0.01953125,0.31781006,-0.055236816,0.3125,-42.875,10.875
639,1695774184646,0.053222656,0.17840576,-0.3040161,-18.328125,-36.890625,1.984375
640,1695774184687,-0.21142578,-0.17120361,-0.066711426,2.140625,8.828125,-43.859375
641,1695774184726,1.999939,-2.0,-0.18634033,38.640625,-140.39062,55.0
642,1695774184766,-0.1274414,-2.0,0.2555542,3.265625,44.09375,-18.484375
643,1695774184807,-0.6660156,-1.5320435,0.31756592,10.90625,-57.171875,19.796875
644,1695774184848,-0.4296875,-1.0584106,0.41937256,3.484375,-70.0,-59.125
645,1695774184866,-0.2854004,-0.772522,0.70843506,-20.125,-41.28125,-38.46875
646,1695774184906,-0.10180664,-0.23077393,0.14056396,18.34375,12.140625,-18.15625
647,1695774184948,-0.032958984,0.46453857,-0.3665161,-0.53125,40.90625,-5.40625
648,1695774184987,-0.11816406,1.1671753,-0.5003052,11.03125,21.953125,-12.640625
649,1695774185027,0.16699219,-0.35968018,0.026062012,10.953125,3.125,-24.015625
650,1695774185067,-0.25732422,-1.1189575,-0.7227173,-37.890625,1.109375,47.453125
651,1695774185107,0.12036133,-2.0,1.999939,45.34375,66.671875,24.375
652,1695774185149,-1.1152344,-1.631897,0.35906982,-51.40625,83.484375,-10.265625
653,1695774185187,-0.19726562,-1.5591431,-0.56256104,27.5,25.328125,19.515625
654,1695774185226,-0.40014648,-0.5979614,0.43133545,-25.078125,9.0,-9.9375
655,1695774185267,0.3190918,-0.9819946,0.3949585,-26.578125,4.265625,26.53125
656,1695774185307,0.3918457,0.08709717,-0.23077393,10.265625,0.171875,63.234375
657,1695774185344,-0.13232422,0.29437256,-0.042541504,-1.4375,-23.84375,13.09375
658,1695774185386,-0.06274414,0.27093506,-0.078430176,-21.578125,-45.984375,-7.0
659,1695774185425,0.049560547,0.13153076,-0.40924072,-33.59375,-38.6875,-16.265625
660,1695774185467,-1.777832,-2.0,-0.2053833,-69.78125,155.07812,-93.5
661,1695774185507,0.04296875,-2.0,1.7836304,31.4375,13.078125,2.046875
662,1695774185546,-0.66674805,-1.7901001,-0.22833252,-49.078125,-71.8125,33.53125
663,1695774185587,-0.3984375,-1.7647095,0.28948975,66.734375,-14.265625,-14.203125
664,1695774185632,-0.7426758,-0.39190674,0.21234131,-25.03125,-62.875,-82.953125
665,1695774185666,0.12670898,-0.6069946,0.3270874,9.265625,-4.828125,-51.4375
666,1695774185708,-0.02734375,0.101989746,-0.018615723,-3.0,26.125,-5.5
667,1695774185749,-0.110839844,0.42303467,-0.286438,24.609375,27.734375,1.765625
668,1695774185787,-0.099853516,0.6412964,-0.2781372,32.75,24.6875,-34.28125
669,1695774185826,0.13623047,-0.7744751,-0.29473877,-36.015625,15.53125,-4.625
670,1695774185865,0.018310547,-2.0,1.5143433,342.42188,-260.98438,154.84375
671,1695774185908,-0.6533203,-2.0,-0.0015258789,-45.5,162.6875,27.15625
672,1695774185947,-0.8562012,-1.2197876,-0.21173096,50.25,61.625,26.859375
673,1695774185989,-0.4621582,-1.458313,0.15447998,11.296875,20.703125,-12.9375
674,1695774186027,0.028320312,-0.8245239,0.47991943,-50.984375,3.984375,-1.96875
675,1695774186088,0.6328125,-0.6995239,0.08880615,31.125,71.703125,52.953125
676,1695774186105,-0.010986328,0.25457764,-0.12652588,-2.625,-25.71875,48.09375
677,1695774186126,-0.25390625,0.3143921,-0.08331299,-22.921875,-53.53125,0.703125
678,1695774186166,0.07714844,0.20159912,-0.17120361,-14.0,-34.40625,-2.84375
679,1695774186207,0.09082031,0.043884277,-0.21392822,-25.375,-35.125,-34.78125
680,1695774186246,1.9135742,-2.0,1.0238647,129.5,11.28125,-81.46875
681,1695774186290,-0.4428711,-1.8008423,1.0304565,-6.59375,-17.203125,15.609375
682,1695774186327,-0.77734375,-1.5823364,0.20257568,-5.640625,-17.6875,16.4375
683,1695774186368,-0.23217773,-0.9678345,0.4244995,45.671875,-82.328125,-43.28125
684,1695774186408,-0.4477539,-1.0918579,0.76605225,-33.71875,-58.90625,-29.4375
685,1695774186448,-0.1796875,-0.55059814,0.29656982,17.8125,-6.1875,-20.65625
686,1695774186487,-0.11987305,0.2970581,-0.36309814,22.46875,41.109375,-16.890625
687,1695774186527,-0.30419922,0.7926636,-0.39996338,20.234375,30.96875,-19.46875
688,1695774186567,0.27075195,0.009216309,0.025817871,26.65625,30.34375,-38.109375
689,1695774186608,0.04296875,-0.8777466,-0.38653564,-17.453125,8.828125,13.234375
690,1695774186646,0.8845215,-2.0,1.0787964,317.17188,-191.70312,145.95312
691,1695774186687,-1.0339355,-1.774231,0.3156128,-28.609375,160.71875,20.40625
692,1695774186728,-0.75561523,-1.4231567,-0.23565674,45.71875,80.28125,17.390625
693,1695774186769,-0.64160156,-0.8591919,0.10491943,9.703125,18.609375,-11.953125
694,1695774186806,-0.015136719,-1.0422974,0.7037964,-37.546875,18.234375,-13.578125
695,1695774186853,0.5810547,-0.6914673,0.050476074,0.46875,54.96875,54.578125
696,1695774186886,0.17626953,0.2020874,-0.30059814,-1.5,-34.71875,70.90625
697,1695774186927,-0.11035156,0.27630615,0.06512451,7.515625,-42.015625,19.765625
698,1695774186970,-0.07470703,0.14276123,-0.14141846,-1.703125,-52.390625,-1.03125
699,1695774187006,-0.115234375,-0.04156494,-0.27374268,-59.390625,-39.25,-33.734375
700,1695774187047,1.999939,-2.0,-1.015686,176.28125,-208.45312,9.953125
701,1695774187090,0.7631836,-2.0,0.3673706,-16.140625,49.453125,-26.171875
702,1695774187126,-1.0556641,-1.5205688,-0.00030517578,19.203125,-19.421875,68.5
703,1695774187167,-0.5175781,-1.0471802,0.52386475,75.03125,-68.09375,-30.703125
704,1695774187206,-0.40527344,-0.9265747,0.56585693,-58.828125,-71.96875,-54.484375
705,1695774187253,-0.15942383,-0.2942505,0.2723999,-10.59375,13.671875,-40.875
706,1695774187287,-0.010986328,0.21990967,-0.21734619,-1.625,29.609375,-19.296875
707,1695774187327,-0.08081055,0.78704834,-0.4763794,50.90625,-0.265625,-17.265625
708,1695774187345,0.13964844,-0.09649658,0.025817871,26.984375,28.46875,-18.390625
709,1695774187386,-0.044433594,-0.7337036,-0.21539307,-51.78125,21.609375,12.96875
710,1695774187426,0.623291,-2.0,1.999939,170.15625,-185.51562,62.6875
711,1695774187466,-0.78881836,-2.0,-0.09088135,-40.859375,104.78125,25.6875
712,1695774187509,-0.63964844,-1.34552,0.031188965,71.671875,93.265625,20.09375
713,1695774187548,-0.57958984,-1.2371216,0.16619873,-14.84375,33.203125,-8.015625
714,1695774187586,-0.14013672,-0.25836182,0.1918335,-46.03125,-1.828125,-2.78125
715,1695774187627,0.43774414,-0.7527466,0.039245605,16.421875,68.515625,25.71875
716,1695774187666,0.33740234,0.097839355,-0.061340332,25.4375,18.546875,42.390625
717,1695774187706,-0.050048828,0.25042725,0.005554199,6.109375,-41.40625,21.46875
718,1695774187747,-0.0036621094,0.022399902,-0.49761963,-23.734375,-41.625,-7.484375
719,1695774187787,-0.33154297,-0.519104,-0.049621582,-10.34375,-0.6875,-46.625
720,1695774187825,0.6999512,-2.0,1.1139526,-56.28125,-237.0625,64.625
721,1695774187865,-0.21142578,-1.9436646,0.26507568,-29.640625,48.375,-15.75
722,1695774187910,-0.6062012,-1.3401489,0.25531006,11.71875,-60.3125,-1.8125
723,1695774187947,-0.3947754,-1.076477,0.371521,-23.46875,-77.875,-40.8125
724,1695774187987,-0.40551758,-0.48394775,0.670105,-19.875,-41.375,-36.140625
725,1695774188028,-0.104003906,-0.3904419,0.18841553,16.015625,11.46875,-25.90625
726,1695774188065,-0.028564453,0.4220581,-0.2559204,16.5,22.5625,-14.171875
727,1695774188107,0.018554688,0.90838623,-0.23565674,24.828125,-8.6875,-21.0625
728,1695774188146,0.043701172,-0.42608643,-0.40045166,-31.71875,27.546875,-22.734375
729,1695774188186,-1.3591309,-2.0,-2.0,-207.5,55.328125,66.203125
730,1695774188225,-0.27197266,-1.4546509,1.7255249,72.0,147.89062,18.609375
731,1695774188267,-1.2434082,-1.3267212,0.2555542,-32.34375,84.625,19.359375
732,1695774188311,-0.638916,-1.2114868,-0.3838501,-7.984375,-4.953125,-9.578125
733,1695774188347,-0.49243164,-1.1675415,0.27508545,-5.15625,24.53125,-30.03125
734,1695774188387,0.35498047,-1.399231,0.557312,-10.25,47.140625,3.46875
735,1695774188426,0.3330078,-0.5442505,0.005554199,36.796875,60.15625,65.578125
736,1695774188465,0.009033203,0.08319092,-0.17144775,-17.34375,-12.765625,68.3125
737,1695774188505,-0.40161133,0.5453491,0.007507324,-15.171875,-76.90625,14.53125
738,1695774188547,-0.11303711,0.08856201,-0.3171997,-40.3125,-3.59375,-34.8125
739,1695774188566,0.09106445,-1.7610474,0.085632324,-5.4375,4.015625,-60.0625
740,1695774188607,-0.45947266,-1.6611938,1.446228,-25.109375,-81.390625,38.171875
741,1695774188647,-0.41333008,-1.7630005,-0.2991333,-6.453125,-1.703125,26.640625
742,1695774188685,-0.923584,-0.9595337,0.28338623,33.28125,-49.703125,-30.640625
743,1695774188727,-0.20532227,-1.0120239,0.24383545,-21.59375,-71.515625,-61.640625
744,1695774188765,-0.40185547,-0.63604736,0.6642456,28.609375,-7.421875,-22.15625
745,1695774188806,-0.052734375,-0.16534424,0.12884521,13.96875,37.46875,-19.6875
746,1695774188847,-0.11303711,0.42474365,-0.456604,-9.0,12.25,-12.953125
747,1695774188886,-0.08081055,1.109314,-0.1272583,-2.203125,15.1875,-27.53125
748,1695774188926,-0.08325195,-0.67633057,-0.16217041,-38.71875,30.0625,-5.703125
749,1695774188967,-2.0,-2.0,0.27215576,250.0,-112.09375,103.3125
750,1695774189009,-0.2709961,-1.8745728,0.4335327,-2.375,166.90625,37.421875
751,1695774189048,-1.1362305,-1.0779419,0.5014038,66.359375,44.796875,36.421875
752,1695774189086,-0.6867676,-1.0881958,-0.0869751,-5.515625,45.0,-25.46875
753,1695774189127,-0.32177734,-0.7070923,0.09490967,-43.28125,-24.296875,-22.140625
754,1695774189166,0.38793945,-1.12677,0.44500732,19.625,58.046875,30.0625
755,1695774189207,0.43969727,-0.28912354,0.022888184,36.859375,54.53125,76.953125
756,1695774189248,-0.20336914,0.2958374,-0.007873535,-37.03125,-72.1875,32.46875
757,1695774189286,-0.19165039,0.11541748,-0.57354736,-15.34375,-63.15625,-4.625
758,1695774189327,-0.36279297,-0.19903564,0.050231934,-4.34375,18.28125,-52.453125
759,1695774189367,1.999939,-2.0,0.7736206,47.875,-197.1875,20.640625
760,1695774189409,-0.34814453,-1.6826782,0.78948975,16.375,53.875,-0.25
761,1695774189444,-0.64746094,-1.3450317,-0.05718994,-22.015625,-63.0625,3.265625
762,1695774189486,-0.53515625,-0.93218994,0.43255615,52.578125,-52.484375,-57.25
763,1695774189533,-0.3083496,-0.69415283,0.7387085,-8.734375,-39.40625,-22.34375
764,1695774189568,-0.0715332,-0.15997314,0.23675537,20.953125,12.828125,-24.3125
765,1695774189608,-0.16040039,0.44622803,-0.4644165,8.9375,40.078125,-20.4375
766,1695774189649,-0.08325195,1.1417847,-0.4331665,-0.234375,-6.546875,-45.53125
767,1695774189687,0.08129883,-0.5039673,-0.35455322,-16.875,22.53125,-23.046875
768,1695774189725,-0.609375,-2.0,-1.1228638,-133.34375,-1.015625,62.46875
769,1695774189771,-0.64990234,-1.6082153,1.3510132,45.453125,110.875,29.921875
770,1695774189786,-0.81591797,-1.4082642,-0.2029419,-19.765625,63.96875,24.8125
771,1695774189826,-0.53393555,-1.1594849,-0.24420166,-0.109375,6.859375,-4.796875
772,1695774189865,-0.4638672,-1.1028442,0.7406616,-3.4375,18.0,-9.4375
773,1695774189908,0.25683594,-1.2717896,0.41522217,-10.828125,43.171875,25.625
774,1695774189948,0.28955078,-0.17730713,-0.077697754,30.578125,54.109375,69.328125
775,1695774189987,-0.014404297,0.54681396,-0.33966064,-33.671875,-63.859375,31.140625
776,1695774190026,-0.35498047,0.59954834,-0.078186035,-33.625,-53.375,-4.046875
777,1695774190065,-0.033935547,0.2592163,-0.31622314,-35.84375,4.0625,-56.953125
778,1695774190107,-2.0,-2.0,-0.19781494,-131.67188,130.625,-167.20312
779,1695774190148,-0.3972168,-1.5317993,0.82318115,12.609375,32.28125,10.53125
780,1695774190191,-0.5383301,-1.6316528,-0.08770752,-21.109375,-18.65625,22.03125
781,1695774190227,-0.79833984,-1.2376099,0.3727417,71.734375,-49.6875,-30.78125
782,1695774190268,-0.5529785,-1.3516235,0.46673584,-66.34375,-97.921875,-39.171875
783,1695774190308,-0.5102539,-0.36212158,0.15179443,4.734375,56.375,-32.453125
784,1695774190348,0.17822266,0.18792725,-0.2053833,47.203125,53.09375,-20.9375
785,1695774190387,0.2705078,0.7626343,-0.1921997,1.40625,25.578125,-18.5625
786,1695774190428,0.23901367,0.113220215,-0.6013794,-27.078125,65.390625,-1.125
787,1695774190465,-0.26367188,-0.98443604,-0.59820557,-0.390625,-33.859375,51.640625
788,1695774190506,-0.34545898,-2.0,1.999939,61.546875,35.1875,23.5625
789,1695774190548,-0.5710449,-1.9729614,-0.09112549,-29.859375,62.578125,22.625
790,1695774190587,-0.71484375,-1.1555786,-0.25079346,19.765625,43.40625,15.140625
791,1695774190626,-0.6164551,-1.102356,0.28240967,-3.328125,43.671875,-10.046875
792,1695774190667,0.19482422,-0.99542236,0.26556396,-13.40625,52.015625,17.78125
793,1695774190706,0.37280273,-0.6460571,0.19451904,18.296875,47.234375,57.390625
794,1695774190748,-0.11230469,0.31658936,0.16253662,-9.40625,-2.875,14.078125
795,1695774190788,-0.19311523,0.35003662,-0.333313,-22.390625,-43.171875,-10.21875
796,1695774190826,-0.020507812,0.1449585,-0.40655518,-34.703125,-12.171875,-12.890625
797,1695774190867,0.11303711,-0.82696533,0.30999756,8.921875,10.3125,-37.328125
798,1695774190909,-0.59643555,-2.0,0.5231323,-68.765625,-179.35938,64.984375
799,1695774190946,-0.25854492,-2.0,-0.030822754,-19.03125,25.484375,-16.546875
800,1695774191004,-0.7609863,-1.0855103,0.52996826,49.640625,-24.34375,-14.5625
801,1695774191007,-0.25024414,-1.2827759,0.34954834,-5.6875,-93.828125,-50.640625
802,1695774191046,-0.4777832,-0.5615845,0.5973511,-9.375,-1.59375,-30.125
803,1695774191085,-0.048095703,-0.30841064,-0.04473877,22.796875,33.359375,-15.828125
804,1695774191127,-0.049316406,0.30633545,-0.32598877,8.5625,58.609375,-17.28125
805,1695774191168,0.020751953,0.83221436,-0.24151611,16.390625,18.375,-28.671875
806,1695774191207,0.061279297,-0.28424072,-0.25933838,-13.53125,29.890625,-20.28125
807,1695774191247,-0.39990234,-1.2525024,-1.034729,-42.4375,18.359375,54.15625
808,1695774191286,-0.15795898,-2.0,1.999939,17.75,81.59375,13.0625
809,1695774191326,-1.0217285,-1.8670044,0.24359131,-39.9375,79.84375,19.28125
810,1695774191369,-0.8967285,-1.0576782,-0.26275635,7.1875,48.96875,5.515625
811,1695774191408,-0.1015625,-1.125061,-0.032287598,5.984375,52.875,-23.484375
812,1695774191446,0.5046387,-1.1130981,0.5253296,-46.609375,-9.265625,5.5
813,1695774191489,0.61279297,-0.4541626,-0.10406494,19.453125,70.140625,60.515625
814,1695774191527,-0.107177734,0.4130249,-0.11553955,-23.546875,-68.84375,47.875
815,1695774191568,-0.33666992,0.36175537,-0.09527588,4.375,-50.578125,1.828125
816,1695774191608,-0.57543945,0.23504639,-0.11090088,-32.203125,-15.546875,-25.6875
817,1695774191648,-0.703125,-2.0,-0.2564087,-25.796875,63.171875,-60.546875
818,1695774191687,0.32250977,-2.0,1.4259644,11.0625,-9.125,7.703125
819,1695774191725,-0.30322266,-1.6340942,-0.11260986,-27.53125,-6.4375,19.15625
820,1695774191767,-0.5637207,-1.364563,0.74212646,53.84375,-64.859375,-10.578125
821,1695774191811,-0.48535156,-1.3569946,0.3373413,-49.59375,-97.015625,-36.40625
822,1695774191847,-0.54833984,-0.5276489,0.43304443,-0.09375,10.265625,-24.578125
823,1695774191887,-0.42456055,-0.10992432,-0.24298096,18.6875,57.8125,-25.15625
824,1695774191927,0.027832031,0.58807373,-0.33428955,4.734375,49.015625,-39.546875
825,1695774191966,0.36401367,0.4274292,-0.3731079,9.8125,37.6875,-29.28125
826,1695774192007,0.07446289,-0.75201416,-0.59088135,10.34375,0.875,8.125
827,1695774192048,0.46240234,-2.0,1.5431519,306.54688,-150.46875,157.01562
828,1695774192087,-0.5654297,-1.6646118,-0.14556885,-12.046875,90.21875,30.59375
829,1695774192129,-1.1694336,-0.89971924,0.13909912,41.6875,41.96875,23.171875
830,1695774192165,-0.6694336,-1.1411743,-0.15997314,36.40625,28.328125,-14.453125
831,1695774192207,0.12646484,-1.0689087,0.27337646,-19.609375,28.984375,-11.546875
832,1695774192224,0.38916016,-1.0786743,0.28118896,-4.40625,48.71875,44.34375
833,1695774192266,0.1381836,-0.19268799,-0.01373291,14.671875,65.15625,57.015625
834,1695774192307,-0.1899414,0.36273193,-0.006164551,-21.9375,-57.078125,21.53125
835,1695774192347,0.032958984,0.42059326,-0.28741455,-20.015625,-41.296875,-9.6875
836,1695774192387,-0.35668945,0.02508545,0.11566162,-11.125,21.546875,-47.25
837,1695774192426,1.999939,-2.0,0.6403198,93.5,-217.23438,-18.140625
838,1695774192467,0.46899414,-2.0,0.121276855,-16.34375,53.375,-8.859375
839,1695774192507,-0.69970703,-1.2354126,-0.15118408,36.0625,-5.703125,39.125
840,1695774192547,-0.5864258,-0.83258057,0.40863037,12.703125,-43.9375,-38.75
841,1695774192591,-0.22583008,-0.9771118,0.48895264,-25.90625,-57.578125,-32.515625
842,1695774192626,-0.33520508,-0.6470337,0.25506592,30.515625,20.640625,-20.4375
843,1695774192668,-0.10888672,-0.12286377,-0.12921143,27.71875,53.453125,-22.40625
844,1695774192706,-0.021240234,0.4520874,-0.32598877,23.9375,22.953125,-34.890625
845,1695774192747,0.06713867,0.6088257,-0.37872314,-13.046875,35.96875,-36.40625
846,1695774192787,-0.004638672,-0.88848877,-0.47979736,-12.734375,20.96875,13.734375
847,1695774192828,0.88305664,-2.0,1.9655151,289.35938,-206.71875,159.8125
848,1695774192866,-1.0056152,-1.7940063,0.24481201,19.96875,152.0625,16.78125
849,1695774192907,-0.89990234,-1.2200317,-0.08355713,25.046875,74.390625,-13.03125
850,1695774192947,-0.27416992,-1.0269165,-0.12164307,43.65625,5.5625,8.8125
851,1695774192987,0.1574707,-0.91534424,0.42352295,-25.40625,26.8125,10.265625
852,1695774193031,0.31713867,-0.6758423,-6.1035156e-05,12.359375,65.40625,53.953125
853,1695774193067,0.080322266,0.19256592,0.0692749,20.46875,25.8125,41.109375
854,1695774193108,-0.07446289,0.4105835,-0.07672119,-9.703125,-63.4375,4.734375
855,1695774193145,0.14624023,0.2994995,-0.43170166,-25.9375,-31.265625,-10.1875
856,1695774193186,-0.19189453,-0.43023682,-0.14361572,-8.359375,19.78125,-52.578125
857,1695774193226,-0.7636719,-2.0,1.9281616,-68.96875,-169.09375,44.375
858,1695774193267,-0.48266602,-1.9824829,0.0289917,-15.078125,37.65625,20.953125
859,1695774193309,-1.2209473,-1.1296997,0.4598999,32.265625,-72.40625,-4.609375
860,1695774193347,0.045898438,-1.0403442,-0.17071533,17.140625,-56.953125,-97.6875
861,1695774193386,-0.06323242,-0.6860962,0.7345581,-29.390625,-29.703125,-29.5625
862,1695774193427,-0.068359375,-0.12677002,0.031188965,4.546875,46.1875,-6.9375
863,1695774193447,-0.037841797,0.60809326,-0.51446533,2.640625,59.21875,-2.203125
864,1695774193486,-0.026367188,1.0658569,-0.2859497,10.640625,-7.703125,-54.09375
865,1695774193526,0.029296875,-0.19903564,-0.1260376,0.28125,15.25,-13.65625
866,1695774193567,-0.7307129,-1.5183716,-0.75567627,-84.75,54.15625,36.046875
867,1695774193610,0.70947266,-2.0,1.999939,82.109375,5.8125,31.171875
868,1695774193648,-1.4367676,-1.7686157,0.31951904,-92.453125,62.0,50.4375
869,1695774193685,-1.0603027,-0.9692993,-0.11968994,34.453125,36.734375,1.25
870,1695774193726,-0.45336914,-1.0547485,0.32366943,-4.109375,26.859375,-27.6875
871,1695774193767,0.67456055,-1.1685181,0.49090576,-39.5625,40.875,22.0625
872,1695774193807,0.17529297,-0.5845337,-0.12237549,29.46875,11.59375,69.6875
873,1695774193848,-0.19067383,0.45404053,0.12860107,4.0625,-11.90625,23.734375
874,1695774193887,-0.14819336,0.46551514,-0.031555176,-6.78125,-24.53125,-3.125
875,1695774193926,-0.045410156,0.24359131,-0.44854736,-43.78125,-27.109375,-18.78125
876,1695774193967,-0.04296875,-0.49053955,-0.08087158,17.5,-17.328125,-48.015625
877,1695774194006,-0.7102051,-2.0,1.999939,-35.15625,-54.484375,27.25
878,1695774194047,0.06689453,-2.0,-0.30133057,-77.765625,-17.125,12.9375
879,1695774194092,-0.8330078,-1.0230103,0.7538452,65.578125,-75.203125,-0.125
880,1695774194128,-0.3552246,-0.9104614,0.03656006,-55.96875,-122.46875,-99.453125
881,1695774194168,-0.54833984,-0.17218018,0.53582764,-25.59375,-13.65625,-46.296875
882,1695774194205,0.104003906,-0.35308838,0.093444824,20.890625,8.0,-25.453125
883,1695774194247,0.021972656,0.43743896,-0.33673096,-0.703125,32.609375,-12.8125
884,1695774194287,0.07397461,1.2880249,-0.34014893,39.9375,17.6875,-13.609375
885,1695774194328,0.024414062,-0.14117432,0.046813965,-2.890625,-5.296875,-4.03125
886,1695774194367,-2.0,-2.0,-2.0,-337.89062,173.20312,62.84375
887,1695774194407,0.072021484,-2.0,1.3217163,34.25,128.51562,9.265625
888,1695774194447,-1.3059082,-1.2930298,0.6456909,5.421875,95.546875,35.859375
889,1695774194491,-0.4814453,-1.1260376,0.0119018555,0.796875,36.53125,10.421875
890,1695774194526,-0.31762695,-0.6453247,0.13665771,-31.203125,-21.78125,-21.484375
891,1695774194573,0.041503906,-0.5791626,0.5922241,-28.90625,8.515625,5.296875
892,1695774194606,0.6010742,-0.3633423,-0.34283447,15.1875,48.90625,44.015625
893,1695774194666,0.064941406,0.12591553,-0.1560669,5.328125,-55.828125,54.109375
894,1695774194687,-0.10107422,0.36346436,-0.124572754,2.6875,-58.828125,9.78125
895,1695774194716,-0.35131836,-0.05328369,0.13470459,-38.359375,-33.359375,-47.09375
896,1695774194747,1.999939,-2.0,1.0805054,-11.484375,-357.0625,27.671875
897,1695774194786,-0.19921875,-1.9275513,0.68499756,-9.125,51.265625,35.9375
898,1695774194827,-0.49829102,-1.135315,-0.08770752,1.921875,-56.390625,21.671875
899,1695774194867,-0.14501953,-0.80718994,0.48773193,8.8125,-117.5625,-73.375
900,1695774194906,-0.41430664,-0.8621216,0.68621826,-32.0625,-113.78125,-11.5
901,1695774194947,-0.47924805,-0.4993286,0.35028076,-33.578125,-17.578125,-30.96875
902,1695774194990,0.014160156,0.022644043,-0.1404419,5.375,-12.5,-22.6875
903,1695774195024,0.16137695,0.49139404,-0.22955322,7.46875,-32.875,-6.96875
904,1695774195067,-0.017822266,0.69525146,-0.18878174,-15.0625,-2.9375,-25.984375
905,1695774195107,-0.095703125,-0.79522705,-0.14337158,-46.0,-53.4375,-18.75
906,1695774195147,0.5439453,-2.0,1.999939,144.625,-183.9375,19.765625
907,1695774195187,-0.5085449,-2.0,0.3078003,-27.1875,70.5,40.875
908,1695774195228,-0.9470215,-0.98883057,0.13397217,47.5,45.140625,47.34375
909,1695774195266,-0.46020508,-0.58966064,0.101745605,-29.125,-74.296875,-21.71875
910,1695774195307,-0.08129883,-1.1223755,0.45794678,-22.875,-69.46875,-10.859375
911,1695774195348,0.12792969,-0.9221802,0.45013428,-37.484375,-18.03125,28.140625
912,1695774195386,0.30126953,-0.49884033,-0.09893799,10.1875,12.3125,68.1875
913,1695774195428,-0.043945312,0.17132568,-0.47491455,-11.515625,-90.796875,55.6875
914,1695774195467,-0.57910156,0.45843506,-0.21295166,-15.1875,-104.921875,-17.96875
915,1695774195507,-0.024658203,-0.25421143,0.48431396,-24.375,-38.5,-86.75
916,1695774195548,-0.545166,-2.0,0.9274292,-8.5,-216.5625,110.40625
917,1695774195588,0.38598633,-2.0,0.3270874,-60.203125,44.484375,34.390625
918,1695774195626,-0.53930664,-0.9651489,0.40325928,49.15625,-100.375,11.75
919,1695774195664,-0.35888672,-1.2214966,0.5944214,-0.296875,-102.453125,-22.09375
920,1695774195705,-0.3190918,-1.0183716,0.49822998,-35.609375,-62.375,0.40625
921,1695774195745,-0.14208984,-0.59991455,0.0770874,-42.046875,-38.578125,9.453125
922,1695774195788,0.17700195,-0.16314697,0.04046631,16.265625,-8.84375,12.359375
923,1695774195825,0.021240234,0.24212646,-0.15802002,14.53125,-32.453125,25.5625
924,1695774195863,-0.29296875,0.28875732,-0.45684814,-28.8125,-42.28125,-4.953125
925,1695774195904,-0.08935547,-0.7017212,-0.054504395,-23.890625,-65.84375,-6.640625
926,1695774195925,0.3503418,-2.0,1.999939,47.953125,-277.70312,44.203125
