,timestamp,accel_x,accel_y,accel_z,gyro_x,gyro_y,gyro_z
0,1695773812465,-0.09082031,-1.1221313,0.24554443,15.046875,22.6875,-5.3125
1,1695773812505,-0.23583984,-0.9343872,0.23822021,4.265625,8.515625,19.359375
2,1695773812544,-0.44628906,-0.96954346,0.24212646,10.734375,-16.125,21.609375
3,1695773812584,-0.6809082,-0.9258423,0.43743896,-4.890625,-15.71875,-16.8125
4,1695773812625,-0.40844727,-0.9734497,0.39276123,-4.328125,12.28125,-29.6875
5,1695773812664,-0.15478516,-0.7554321,0.23822021,4.875,16.546875,9.375
6,1695773812705,-0.11669922,-0.65875244,0.2892456,19.6875,0.921875,32.21875
7,1695773812744,-0.3400879,-0.772522,0.35491943,4.859375,-9.84375,23.71875
8,1695773812784,-0.45776367,-0.7608032,0.34490967,1.03125,-13.78125,9.25
9,1695773812825,-0.37036133,-0.74468994,0.32806396,0.953125,-5.765625,-1.28125
10,1695773812865,-0.35375977,-0.79351807,0.46380615,-1.5625,-4.0625,1.203125
11,1695773812904,-0.39086914,-0.9585571,0.32684326,-6.375,-7.1875,14.265625
12,1695773812945,-0.43408203,-0.94659424,0.4874878,-5.46875,-10.84375,18.234375
13,1695773812985,-0.29418945,-1.1582642,0.572937,-4.515625,-1.578125,14.390625
14,1695773813024,-0.45361328,-1.1785278,0.4159546,-8.578125,-23.21875,24.8125
15,1695773813065,-0.2512207,-1.1126099,0.18621826,-3.15625,-4.21875,1.75
16,1695773813107,-0.043945312,-1.0132446,0.25164795,-0.171875,1.25,-8.15625
17,1695773813147,0.096191406,-1.1939087,0.39886475,0.78125,2.96875,-6.453125
18,1695773813189,-0.21191406,-1.02594,0.2633667,-4.34375,-6.015625,2.671875
19,1695773813230,-0.24023438,-0.91290283,0.3768921,5.875,18.484375,-4.625
20,1695773813267,-0.09814453,-0.94415283,0.3776245,-5.96875,5.765625,-11.234375
21,1695773813308,-0.15917969,-0.76348877,0.26922607,-8.046875,-10.484375,-7.90625
22,1695773813348,-0.1940918,-0.677063,0.30511475,4.390625,6.3125,-7.390625
23,1695773813390,-0.22998047,-0.69488525,0.30438232,12.5,14.5625,-7.421875
24,1695773813429,-0.19360352,-0.72540283,0.35321045,13.8125,19.328125,-12.109375
25,1695773813449,-0.1616211,-0.82891846,0.43988037,1.875,6.59375,-8.234375
26,1695773813490,-0.19360352,-0.87213135,0.44354248,-3.1875,1.515625,-6.171875
27,1695773813529,-0.28515625,-0.9326782,0.43597412,0.1875,1.71875,-7.421875
28,1695773813572,-0.2211914,-0.9944458,0.58465576,-0.390625,-2.234375,-16.0625
29,1695773813606,-0.47314453,-1.0303345,0.5067749,-11.25,1.5625,-22.109375
30,1695773813649,-0.5900879,-1.2681274,0.28118896,-5.125,-8.625,-24.09375
31,1695773813688,-0.44604492,-1.010315,0.17889404,5.875,18.609375,-21.21875
32,1695773813732,-0.21459961,-1.1797485,0.090026855,-1.859375,38.46875,-16.765625
33,1695773813767,-0.15185547,-1.1213989,0.27947998,14.78125,12.203125,12.828125
34,1695773813807,-0.2253418,-0.88067627,0.3163452,24.015625,-0.0625,15.171875
35,1695773813848,-0.6086426,-0.8374634,0.27508545,-13.296875,-7.78125,-3.59375
36,1695773813886,-0.49145508,-0.7307739,0.2592163,-10.734375,10.109375,-13.625
37,1695773813930,-0.21264648,-0.7095337,0.18890381,7.984375,15.8125,7.40625
38,1695773813969,-0.12182617,-0.8748169,0.24822998,18.84375,4.03125,19.671875
39,1695773814008,-0.4338379,-0.88482666,0.38934326,9.546875,-8.53125,19.984375
40,1695773814047,-0.54663086,-0.73687744,0.32635498,0.078125,-1.265625,-0.703125
41,1695773814091,-0.4267578,-0.7317505,0.2514038,-12.9375,-1.734375,-2.140625
42,1695773814128,-0.32226562,-0.83599854,0.45233154,-14.328125,-7.140625,10.5625
43,1695773814171,-0.37939453,-0.9902954,0.34051514,-10.140625,-6.296875,22.078125
44,1695773814206,-0.39111328,-0.9307251,0.50213623,-5.140625,-3.6875,16.625
45,1695773814249,-0.38085938,-1.1055298,0.45770264,-12.859375,-1.796875,12.953125
46,1695773814288,-0.41015625,-1.0952759,0.41522217,-2.15625,-16.015625,13.421875
47,1695773814329,-0.22558594,-1.0405884,0.13665771,2.25,0.09375,1.4375
48,1695773814368,-0.041259766,-0.96954346,0.2218628,-4.671875,-0.515625,-10.765625
49,1695773814417,0.013183594,-1.2295532,0.43865967,5.203125,2.0625,-8.46875
50,1695773814450,-0.20629883,-1.0962524,0.38250732,5.203125,0.875,3.671875
51,1695773814488,-0.31884766,-0.9595337,0.3534546,3.578125,19.296875,-9.4375
52,1695773814529,-0.27905273,-0.86798096,0.35687256,-3.046875,5.265625,-19.515625
53,1695773814567,-0.17382812,-0.75006104,0.31121826,3.3125,0.734375,-14.078125
54,1695773814607,-0.12402344,-0.71173096,0.27386475,11.171875,9.03125,0.1875
55,1695773814649,-0.17285156,-0.72320557,0.31903076,9.765625,7.703125,-1.59375
56,1695773814667,-0.2121582,-0.81988525,0.38787842,1.359375,3.078125,-7.265625
57,1695773814707,-0.27026367,-0.80963135,0.387146,-2.9375,-4.609375,-7.859375
58,1695773814749,-0.24609375,-0.8735962,0.43743896,-2.828125,2.0625,-7.078125
59,1695773814788,-0.19482422,-0.96173096,0.44940186,0.234375,4.859375,-3.765625
60,1695773814830,-0.12890625,-1.0093384,0.5206909,-3.015625,-10.5,-6.40625
61,1695773814867,-0.37280273,-0.87994385,0.4418335,-17.8125,-15.90625,-9.140625
62,1695773814910,-0.7116699,-1.0708618,0.47283936,-5.15625,-11.796875,-20.3125
63,1695773814948,-0.5649414,-1.1419067,0.26849365,-13.078125,-18.796875,-28.6875
64,1695773814986,-0.19311523,-1.069397,0.2772827,14.6875,14.1875,-22.078125
65,1695773815026,-0.016113281,-1.0679321,0.21917725,-1.78125,19.65625,9.796875
66,1695773815066,-0.18823242,-0.8948364,0.21258545,-4.484375,-16.46875,24.453125
67,1695773815107,-0.58935547,-0.975647,0.27142334,-8.390625,-31.546875,10.765625
68,1695773815148,-0.62890625,-0.8665161,0.36810303,-14.03125,-11.703125,-19.796875
69,1695773815186,-0.21777344,-0.8491821,0.23260498,3.234375,8.734375,4.359375
70,1695773815226,-0.15039062,-0.7295532,0.20404053,13.3125,-8.546875,30.25
71,1695773815267,-0.3486328,-0.81622314,0.31072998,-1.40625,-26.9375,27.90625
72,1695773815305,-0.5209961,-0.74005127,0.338562,-5.390625,-21.5625,10.796875
73,1695773815346,-0.37475586,-0.77960205,0.2592163,-6.96875,-16.71875,5.46875
74,1695773815386,-0.3100586,-0.788147,0.33685303,-10.1875,-24.875,14.578125
75,1695773815426,-0.44384766,-0.87506104,0.38568115,-12.296875,-22.984375,21.046875
76,1695773815466,-0.52246094,-0.913147,0.37860107,-9.78125,-25.96875,19.671875
77,1695773815505,-0.3918457,-0.85113525,0.4052124,-20.015625,-23.796875,9.484375
78,1695773815566,-0.45776367,-1.2608032,0.32537842,-32.21875,-28.34375,14.53125
79,1695773815585,-0.2944336,-1.0830688,0.4401245,4.125,-32.953125,10.65625
80,1695773815625,0.23071289,-1.2324829,0.49920654,14.53125,7.5,-8.625
81,1695773815664,0.17138672,-1.1506958,0.29608154,-18.140625,-11.9375,27.84375
82,1695773815704,-0.2783203,-0.80352783,0.3649292,1.4375,-30.328125,15.453125
83,1695773815747,-0.23242188,-0.9614868,0.26922607,-9.921875,-24.96875,-22.65625
84,1695773815786,-0.13354492,-0.9697876,0.49017334,-16.34375,-36.953125,-19.46875
85,1695773815827,0.052246094,-0.9859009,0.43475342,4.734375,-8.234375,6.546875
86,1695773815888,-0.045166016,-0.7288208,0.2074585,-6.125,-28.515625,16.984375
87,1695773815911,-0.18945312,-0.64849854,0.3612671,2.71875,-34.453125,1.859375
88,1695773815929,-0.23022461,-0.864563,0.4755249,-16.875,-40.84375,-10.71875
89,1695773815967,-0.19628906,-0.8670044,0.4574585,-21.921875,-33.765625,-6.65625
90,1695773816009,-0.08911133,-0.8804321,0.44818115,-15.25,-25.109375,4.8125
91,1695773816047,-0.20483398,-0.8496704,0.3973999,-14.109375,-34.84375,7.34375
92,1695773816091,-0.46728516,-0.87091064,0.5170288,-22.671875,-46.734375,-0.28125
93,1695773816126,-0.62280273,-0.9187622,0.3373413,-16.9375,-32.09375,-19.546875
94,1695773816167,-0.4255371,-0.9573364,0.3283081,-26.21875,-2.765625,-26.0
95,1695773816208,0.011474609,-1.6484985,0.37298584,-21.65625,-35.375,8.8125
96,1695773816247,-0.009033203,-1.1035767,0.33026123,-0.296875,-26.828125,35.9375
97,1695773816289,-0.21484375,-0.9795532,0.33270264,-3.359375,-13.640625,40.890625
98,1695773816331,-0.4189453,-0.6790161,0.1762085,-27.25,-78.15625,32.015625
99,1695773816369,-0.203125,-0.8765259,0.324646,-21.203125,-66.296875,19.015625
100,1695773816406,-0.045166016,-1.0576782,0.3024292,-16.5,-58.953125,29.859375
101,1695773816446,-0.027832031,-0.9312134,0.19598389,-7.203125,-65.4375,47.171875
102,1695773816487,-0.33740234,-0.97052,0.2633667,-16.625,-89.1875,30.34375
103,1695773816527,-0.5292969,-0.88409424,0.39300537,-0.375,-64.671875,19.359375
104,1695773816567,-0.33447266,-0.8789673,0.28533936,-6.921875,-54.390625,19.90625
105,1695773816607,-0.16967773,-0.85357666,0.33050537,-7.609375,-57.03125,18.46875
106,1695773816646,-0.18798828,-0.9089966,0.37493896,-4.140625,-62.53125,22.015625
107,1695773816689,-0.26953125,-0.9121704,0.3764038,-4.796875,-53.296875,19.015625
108,1695773816727,-0.31396484,-0.82769775,0.25823975,-10.65625,-59.203125,11.953125
109,1695773816768,-0.33935547,-0.9277954,0.34197998,-17.765625,-57.828125,9.15625
110,1695773816807,-0.28295898,-1.071106,0.5360718,-14.390625,-43.5625,18.28125
111,1695773816849,-0.17944336,-1.1394653,0.38079834,-16.515625,-50.5625,30.375
112,1695773816888,-0.21142578,-1.1340942,0.35931396,-29.40625,-66.953125,22.125
113,1695773816926,-0.2475586,-0.97003174,0.28656006,-11.09375,-41.21875,16.125
114,1695773816966,-0.064453125,-0.9678345,0.20672607,-20.796875,-51.03125,12.609375
115,1695773817007,-0.14428711,-0.98394775,0.27703857,-14.140625,-42.203125,10.328125
116,1695773817049,0.045410156,-1.085022,0.30291748,-0.96875,-36.875,15.5
117,1695773817088,0.043945312,-1.0996704,0.37445068,-23.734375,-57.46875,21.125
118,1695773817129,-0.18408203,-0.9038696,0.33538818,-20.234375,-48.40625,18.3125
119,1695773817146,-0.16210938,-0.7720337,0.3007202,4.484375,-37.453125,15.234375
120,1695773817189,-0.080322266,-0.74468994,0.3283081,11.453125,-37.0625,13.484375
121,1695773817227,-0.13720703,-0.82403564,0.45941162,-10.484375,-36.78125,4.765625
122,1695773817271,-0.14672852,-0.83599854,0.43988037,-8.890625,-43.09375,2.96875
123,1695773817308,-0.30639648,-0.73223877,0.43914795,-12.75,-26.171875,-7.21875
124,1695773817349,-0.23876953,-0.75665283,0.45062256,-3.28125,-12.453125,-18.140625
125,1695773817386,-0.13476562,-0.8521118,0.5014038,-9.140625,-19.59375,-14.8125
126,1695773817431,-0.18432617,-0.9507446,0.63275146,-13.296875,-22.8125,-5.71875
127,1695773817467,-0.30249023,-1.1511841,0.559021,-21.484375,-11.171875,-11.109375
128,1695773817507,-0.47045898,-1.3411255,0.39300537,-13.796875,-30.421875,-6.921875
129,1695773817548,-0.2355957,-1.0542603,0.2765503,4.5,-2.234375,-17.0625
130,1695773817590,-0.23754883,-0.9175415,0.18792725,-8.296875,10.46875,4.90625
131,1695773817630,-0.2763672,-0.8687134,0.17913818,4.75,-7.984375,15.5
132,1695773817669,-0.4013672,-0.97857666,0.37493896,8.46875,-5.796875,5.640625
133,1695773817710,-0.42285156,-1.0278931,0.3805542,10.734375,12.328125,-3.71875
134,1695773817749,-0.20727539,-0.86602783,0.3114624,10.609375,7.953125,-2.171875
135,1695773817788,-0.18310547,-0.8076782,0.25701904,3.8125,-3.109375,10.4375
136,1695773817830,-0.30517578,-0.76348877,0.30267334,9.15625,-10.015625,18.765625
137,1695773817868,-0.35302734,-0.80596924,0.37738037,2.53125,-4.296875,11.125
138,1695773817909,-0.27270508,-0.7959595,0.24212646,0.875,0.765625,2.046875
139,1695773817950,-0.2512207,-0.8948364,0.3866577,-3.5,-14.15625,-0.59375
140,1695773817990,-0.30786133,-0.9536743,0.402771,-7.921875,-17.265625,11.53125
141,1695773818028,-0.4206543,-0.8596802,0.3222046,-8.65625,-13.84375,16.734375
142,1695773818067,-0.4362793,-0.9470825,0.43695068,-15.5,-13.390625,4.78125
143,1695773818109,-0.29760742,-1.1387329,0.5150757,-25.0625,-13.5625,6.875
144,1695773818149,-0.3395996,-1.1721802,0.46429443,-6.40625,-16.90625,14.671875
145,1695773818190,-0.19042969,-1.1084595,0.105407715,-8.75,-11.921875,-0.09375
146,1695773818229,-0.018066406,-0.92633057,0.3241577,3.546875,2.21875,-2.890625
147,1695773818268,0.16308594,-1.1633911,0.34661865,1.671875,2.34375,-6.703125
148,1695773818306,-0.2512207,-1.0593872,0.2489624,-1.65625,-21.5625,5.828125
149,1695773818347,-0.37158203,-0.85943604,0.4064331,13.9375,23.484375,-6.15625
150,1695773818368,-0.13378906,-0.8904419,0.27703857,-6.359375,8.265625,-19.0
151,1695773818408,-0.1027832,-0.81329346,0.35247803,-4.5,-4.0625,-9.171875
152,1695773818450,-0.16699219,-0.70196533,0.3348999,4.671875,-2.03125,-1.453125
153,1695773818489,-0.2680664,-0.71051025,0.31854248,4.453125,-0.6875,-6.484375
154,1695773818529,-0.26831055,-0.8213501,0.4442749,3.4375,8.5,-15.390625
155,1695773818568,-0.22070312,-0.9116821,0.5651245,-0.75,-1.296875,-8.859375
156,1695773818606,-0.1784668,-0.8670044,0.39300537,-7.125,6.1875,-2.84375
157,1695773818650,-0.20458984,-0.8496704,0.3168335,-2.78125,-5.015625,-3.015625
158,1695773818690,-0.17089844,-1.0593872,0.65618896,2.921875,1.765625,-12.703125
159,1695773818730,-0.47485352,-1.1101685,0.43841553,-15.625,-7.671875,-7.828125
160,1695773818768,-0.51342773,-1.342102,0.29388428,-8.359375,-20.703125,-8.4375
161,1695773818807,-0.30078125,-1.128479,0.29315186,8.03125,13.359375,-15.03125
162,1695773818848,-0.14550781,-0.89556885,0.16033936,8.578125,34.640625,8.546875
163,1695773818888,-0.19458008,-0.87457275,0.09222412,0.703125,-0.140625,16.8125
164,1695773818929,-0.4831543,-0.99835205,0.26922607,6.546875,-10.328125,8.21875
165,1695773818969,-0.6086426,-0.975647,0.3751831,5.734375,6.234375,-15.421875
166,1695773819007,-0.29858398,-0.8196411,0.24676514,-0.484375,25.359375,-12.84375
167,1695773819052,-0.14111328,-0.7136841,0.16009521,14.875,21.171875,7.96875
168,1695773819089,-0.21459961,-0.79693604,0.260437,12.765625,-4.921875,19.9375
169,1695773819128,-0.38623047,-0.76226807,0.36566162,-4.21875,-8.75,12.484375
170,1695773819168,-0.29760742,-0.7798462,0.23919678,-1.046875,2.09375,7.265625
171,1695773819211,-0.2849121,-0.8052368,0.36883545,-0.1875,-9.78125,12.375
172,1695773819250,-0.35742188,-0.9055786,0.4022827,-6.21875,-14.140625,9.796875
173,1695773819289,-0.43920898,-0.96539307,0.34295654,-13.34375,-16.515625,8.796875
174,1695773819327,-0.39453125,-0.9614868,0.524353,-15.625,-4.671875,8.34375
175,1695773819369,-0.28442383,-1.27594,0.49041748,-17.78125,-16.265625,9.90625
176,1695773819415,-0.35351562,-1.2788696,0.38909912,-2.390625,-20.015625,5.875
177,1695773819450,-0.119384766,-0.97320557,0.18988037,0.609375,0.40625,1.484375
178,1695773819488,0.045410156,-0.9234009,0.1408081,0.59375,-4.09375,-4.046875
179,1695773819528,-0.13134766,-1.0059204,0.34197998,-7.0625,-8.375,-7.671875
180,1695773819568,-0.24975586,-1.0357056,0.29071045,1.609375,-3.390625,-3.328125
181,1695773819588,-0.21508789,-0.9505005,0.4022827,-1.515625,12.046875,-5.421875
182,1695773819629,-0.19311523,-0.93292236,0.4088745,-12.75,7.5625,-12.125
183,1695773819669,-0.28955078,-0.68707275,0.28216553,-8.15625,3.765625,-12.03125
184,1695773819707,-0.2409668,-0.60821533,0.26727295,13.28125,6.84375,-9.53125
185,1695773819745,-0.2019043,-0.6934204,0.37957764,19.421875,18.78125,-7.3125
186,1695773819787,-0.18359375,-0.894104,0.45941162,-0.53125,10.578125,-9.015625
187,1695773819827,-0.20336914,-0.82598877,0.43377686,-3.953125,1.0625,-3.609375
188,1695773819870,-0.3005371,-0.8208618,0.42938232,4.578125,12.65625,-2.140625
189,1695773819909,-0.1665039,-1.0093384,0.48919678,3.203125,2.140625,-6.296875
190,1695773819950,-0.091796875,-1.1065063,0.6515503,1.75,-0.796875,-4.375
191,1695773819990,-0.5385742,-1.0945435,0.46917725,-11.390625,-6.09375,-4.75
192,1695773820027,-0.6147461,-1.0515747,0.33172607,-12.140625,-11.03125,-26.53125
193,1695773820067,-0.40429688,-0.9993286,0.19696045,3.3125,10.40625,-29.921875
194,1695773820106,-0.060058594,-1.0637817,0.2531128,15.671875,39.3125,-6.546875
195,1695773820145,-0.1015625,-1.0237427,0.22235107,-2.84375,6.9375,23.671875
196,1695773820185,-0.37280273,-1.0256958,0.2321167,8.65625,-14.671875,27.75
197,1695773820226,-0.7583008,-0.8809204,0.4923706,2.4375,-6.5625,-10.859375
198,1695773820265,-0.39575195,-0.87579346,0.3480835,-8.421875,15.75,-24.03125
199,1695773820307,-0.083984375,-0.6939087,0.18035889,16.046875,25.734375,9.21875
200,1695773820344,-0.11645508,-0.67315674,0.2819214,17.03125,-2.984375,30.640625
201,1695773820386,-0.37280273,-0.71173096,0.31243896,-0.265625,-19.9375,25.4375
202,1695773820428,-0.4086914,-0.7498169,0.31488037,4.28125,-7.875,2.6875
203,1695773820465,-0.32373047,-0.87384033,0.3600464,1.078125,0.984375,-3.046875
204,1695773820505,-0.29370117,-0.97369385,0.48529053,-1.203125,-5.65625,10.0625
205,1695773820546,-0.40527344,-0.99713135,0.3468628,-9.671875,-13.03125,13.796875
206,1695773820586,-0.43310547,-0.92755127,0.5790405,-13.875,-7.984375,10.65625
207,1695773820628,-0.33544922,-1.2776489,0.4262085,-18.28125,-18.84375,10.453125
208,1695773820667,-0.19702148,-1.2398071,0.324646,-0.328125,-10.71875,8.84375
209,1695773820708,0.022949219,-0.9817505,0.12640381,5.125,7.390625,2.875
210,1695773820748,0.1616211,-1.0562134,0.2987671,6.03125,-1.140625,-1.25
211,1695773820788,-0.22045898,-0.98687744,0.2477417,-0.296875,-22.140625,4.609375
212,1695773820807,-0.46655273,-0.8933716,0.34613037,2.046875,-3.203125,-8.265625
213,1695773820848,-0.16552734,-0.9751587,0.3793335,-7.984375,13.46875,-31.609375
214,1695773820886,-0.059570312,-1.036438,0.38909912,-4.3125,-1.1875,-8.53125
215,1695773820926,-0.17407227,-0.673645,0.25286865,-0.5625,-0.84375,8.546875
216,1695773820966,-0.26513672,-0.54937744,0.29364014,3.515625,-0.015625,-1.21875
217,1695773821007,-0.34521484,-0.69244385,0.40081787,5.453125,4.9375,-13.90625
218,1695773821046,-0.24658203,-0.90948486,0.47088623,-4.765625,2.6875,-15.640625
219,1695773821085,-0.19799805,-0.9077759,0.45135498,-2.796875,1.734375,-5.1875
220,1695773821124,-0.2578125,-0.8804321,0.38519287,-3.890625,10.4375,-6.0625
221,1695773821166,-0.18701172,-0.9534302,0.53533936,6.140625,-0.3125,-10.234375
222,1695773821207,-0.23535156,-1.0557251,0.5687866,-0.40625,-4.453125,-6.859375
223,1695773821246,-0.55444336,-1.1582642,0.447937,-16.46875,-7.71875,-15.4375
224,1695773821287,-0.5546875,-1.116272,0.15252686,-12.546875,-16.3125,-16.3125
225,1695773821326,-0.3713379,-0.9734497,0.15740967,3.125,29.421875,-12.546875
226,1695773821366,-0.14257812,-1.1140747,0.26556396,9.265625,23.3125,1.15625
227,1695773821406,-0.28051758,-0.94732666,0.3678589,16.703125,7.171875,18.625
228,1695773821449,-0.38256836,-0.90167236,0.22210693,3.25,-6.796875,6.40625
229,1695773821488,-0.4489746,-0.7984009,0.27825928,-15.53125,-5.546875,-10.484375
230,1695773821527,-0.30419922,-0.72003174,0.27557373,4.140625,10.25,0.609375
231,1695773821568,-0.18188477,-0.8233032,0.2267456,19.4375,6.296875,17.609375
232,1695773821608,-0.2849121,-0.77130127,0.2850952,12.609375,-5.09375,19.6875
233,1695773821645,-0.35424805,-0.7703247,0.35809326,4.984375,-5.828125,9.265625
234,1695773821690,-0.39208984,-0.81451416,0.322937,3.984375,-2.40625,2.78125
235,1695773821733,-0.30615234,-0.85601807,0.32977295,-1.78125,-5.796875,6.609375
236,1695773821767,-0.4411621,-1.0010376,0.29144287,-7.421875,-18.4375,17.25
237,1695773821808,-0.4736328,-0.973938,0.5687866,-6.703125,-8.453125,11.15625
238,1695773821847,-0.3552246,-1.21344,0.45281982,-18.75,2.3125,8.4375
239,1695773821888,-0.35253906,-1.1521606,0.34954834,-14.046875,-9.390625,12.421875
240,1695773821926,-0.17895508,-1.0542603,0.17840576,-12.140625,-11.0,-0.65625
241,1695773821971,0.015136719,-0.9573364,0.35101318,-3.0625,6.40625,-4.515625
242,1695773822010,0.09790039,-1.1062622,0.37249756,-9.203125,-0.796875,-0.796875
243,1695773822033,-0.29418945,-0.9570923,0.2345581,-0.28125,-17.71875,7.046875
244,1695773822067,-0.4177246,-0.7852173,0.4069214,7.03125,22.6875,-11.828125
245,1695773822107,-0.22192383,-0.86383057,0.2892456,-10.34375,9.625,-27.515625
246,1695773822147,-0.11450195,-0.7883911,0.32611084,2.03125,5.59375,-12.65625
247,1695773822184,-0.14233398,-0.7168579,0.35150146,12.96875,8.703125,-0.015625
248,1695773822225,-0.18237305,-0.8323364,0.42669678,8.0,6.578125,-1.84375
249,1695773822265,-0.2355957,-0.8850708,0.5097046,8.4375,9.5,-8.765625
250,1695773822307,-0.32348633,-0.829895,0.39764404,-7.390625,0.0625,-9.96875
251,1695773822344,-0.2763672,-0.7686157,0.38519287,-1.703125,5.609375,-10.609375
252,1695773822403,-0.20703125,-0.9890747,0.5165405,4.609375,1.65625,-7.421875
253,1695773822425,-0.19189453,-1.0532837,0.65911865,-0.25,3.984375,-8.9375
254,1695773822465,-0.40356445,-1.0181274,0.51068115,-12.546875,4.0,-9.84375
255,1695773822514,-0.58447266,-1.055481,0.18865967,-22.09375,-8.046875,-16.1875
256,1695773822546,-0.38500977,-1.0652466,0.21331787,7.46875,1.84375,-18.03125
257,1695773822592,-0.2409668,-1.12677,0.2838745,9.140625,26.03125,-2.9375
258,1695773822627,-0.23608398,-0.9976196,0.2526245,10.8125,23.890625,20.1875
259,1695773822669,-0.3408203,-0.8682251,0.20257568,19.9375,7.5625,19.734375
260,1695773822708,-0.5588379,-0.9187622,0.38494873,-3.546875,-7.59375,-6.546875
261,1695773822751,-0.37524414,-0.87750244,0.36590576,-9.703125,11.546875,-15.4375
262,1695773822788,-0.17138672,-0.75738525,0.20550537,4.03125,8.703125,12.515625
263,1695773822828,-0.09838867,-0.75665283,0.2633667,17.640625,1.859375,29.1875
264,1695773822868,-0.31323242,-0.8233032,0.37200928,7.171875,-11.234375,23.8125
265,1695773822908,-0.48779297,-0.7654419,0.25653076,4.1875,-17.640625,8.84375
266,1695773822948,-0.35473633,-0.76519775,0.32318115,-5.328125,-5.703125,0.8125
267,1695773822989,-0.29516602,-0.97198486,0.2982788,-12.0625,-7.953125,7.21875
268,1695773823028,-0.3947754,-1.0151978,0.47943115,-5.546875,-13.5625,12.359375
269,1695773823067,-0.36132812,-1.2029419,0.51116943,-10.140625,-1.34375,3.6875
270,1695773823110,-0.43579102,-1.173645,0.35687256,-17.375,-11.6875,5.375
271,1695773823147,-0.27368164,-1.0776978,0.3053589,-0.0625,-1.390625,-6.171875
272,1695773823189,-0.1328125,-0.8911743,0.27972412,0.03125,13.296875,-13.953125
273,1695773823236,0.123046875,-1.0100708,0.32147217,1.46875,13.875,-10.703125
274,1695773823248,0.033203125,-1.0845337,0.30023193,2.484375,-11.578125,8.359375
275,1695773823292,-0.2290039,-0.94244385,0.39178467,5.640625,-9.125,9.640625
276,1695773823328,-0.26391602,-0.89971924,0.37713623,-7.46875,-5.328125,-6.015625
277,1695773823368,-0.22680664,-0.84259033,0.39154053,-7.40625,-2.421875,-13.25
278,1695773823409,-0.16748047,-0.76348877,0.34735107,4.359375,2.15625,-1.390625
279,1695773823447,-0.1616211,-0.737854,0.27996826,10.140625,1.375,4.71875
280,1695773823490,-0.203125,-0.75616455,0.45135498,0.015625,3.9375,-3.203125
281,1695773823529,-0.26123047,-0.7227173,0.38885498,-7.625,-3.59375,-11.015625
282,1695773823575,-0.30810547,-0.815979,0.4208374,-3.421875,-1.6875,-11.125
283,1695773823605,-0.20654297,-0.9898071,0.49627686,3.546875,4.71875,-11.890625
284,1695773823647,-0.17871094,-1.0567017,0.5939331,1.78125,3.515625,-9.984375
285,1695773823689,-0.39770508,-0.8977661,0.5704956,-4.078125,5.96875,-13.125
286,1695773823728,-0.55371094,-0.9741821,0.52679443,-10.828125,-6.109375,-20.1875
287,1695773823768,-0.42138672,-1.1299438,0.18865967,-13.515625,-14.671875,-10.15625
288,1695773823807,-0.15551758,-1.177063,0.21551514,6.53125,28.3125,-11.1875
289,1695773823849,-0.091552734,-1.0847778,0.24285889,-6.09375,10.21875,3.40625
290,1695773823890,-0.32250977,-0.92315674,0.2772827,17.578125,6.21875,24.796875
291,1695773823928,-0.44091797,-0.8936157,0.31414795,18.8125,-2.328125,8.421875
292,1695773823969,-0.51220703,-0.8496704,0.35443115,-16.734375,2.8125,-18.3125
293,1695773824008,-0.24243164,-0.72076416,0.3295288,-11.75,15.96875,-6.203125
294,1695773824049,-0.12084961,-0.80255127,0.21551514,9.609375,-5.765625,21.8125
295,1695773824089,-0.21240234,-0.84991455,0.3986206,12.640625,-5.390625,22.4375
296,1695773824133,-0.3930664,-0.7334595,0.40618896,6.5,-9.859375,11.671875
297,1695773824169,-0.39526367,-0.6958618,0.28070068,-2.765625,-8.296875,1.828125
298,1695773824208,-0.31762695,-0.83551025,0.3583374,-3.375,-4.109375,-1.125
299,1695773824249,-0.39013672,-0.9771118,0.3944702,-4.65625,-13.140625,9.46875
300,1695773824289,-0.3725586,-1.0249634,0.47698975,-10.59375,-6.421875,10.875
301,1695773824331,-0.32299805,-1.1026001,0.5355835,-14.609375,-8.328125,9.796875
302,1695773824373,-0.4404297,-1.173645,0.4796753,-14.9375,-11.109375,7.421875
303,1695773824408,-0.28735352,-1.0735474,0.2687378,-9.921875,-5.15625,-6.84375
304,1695773824466,-0.071777344,-0.892395,0.322937,-8.28125,13.359375,-11.03125
305,1695773824485,0.10595703,-1.2007446,0.41815186,-1.03125,4.8125,-10.296875
306,1695773824507,-0.1459961,-0.987854,0.37615967,-4.828125,-23.671875,3.40625
307,1695773824549,-0.3486328,-0.8225708,0.4364624,-3.640625,7.796875,-4.421875
308,1695773824590,-0.2841797,-0.7752075,0.355896,-8.15625,9.546875,-11.765625
309,1695773824629,-0.19995117,-0.6670532,0.3517456,4.796875,-6.078125,-8.1875
310,1695773824669,-0.21069336,-0.62579346,0.322937,10.859375,0.109375,-4.734375
311,1695773824707,-0.17895508,-0.8147583,0.48016357,12.921875,8.6875,-4.359375
312,1695773824748,-0.27197266,-0.89801025,0.52508545,7.59375,5.34375,0.015625
313,1695773824789,-0.2800293,-0.82525635,0.51190186,3.078125,-0.546875,-4.34375
314,1695773824827,-0.23046875,-0.86676025,0.4772339,-3.109375,-3.859375,-4.25
315,1695773824868,-0.24584961,-0.848938,0.45111084,-2.640625,-9.890625,-3.265625
316,1695773824910,-0.14086914,-1.0618286,0.68304443,-0.109375,0.125,-0.390625
317,1695773824949,-0.43603516,-0.9993286,0.54193115,-12.671875,-7.703125,-2.140625
318,1695773824990,-0.6105957,-1.1724243,0.34783936,-14.859375,-21.890625,-19.0
319,1695773825029,-0.40893555,-1.036438,0.2753296,-5.515625,-4.703125,-19.859375
320,1695773825068,-0.08862305,-1.0547485,0.27020264,17.796875,32.6875,-7.140625
321,1695773825115,-0.19042969,-0.95196533,0.23406982,2.484375,12.6875,23.8125
322,1695773825148,-0.44628906,-0.88165283,0.27923584,15.875,-17.046875,24.140625
323,1695773825190,-0.5349121,-0.9246216,0.38275146,-0.140625,-8.171875,-11.828125
324,1695773825231,-0.3696289,-0.8838501,0.38275146,-13.21875,5.78125,-13.03125
325,1695773825268,-0.13647461,-0.81988525,0.22161865,17.265625,16.90625,13.84375
326,1695773825307,-0.1887207,-0.7149048,0.29437256,20.453125,-2.59375,27.078125
327,1695773825349,-0.38427734,-0.74957275,0.3078003,3.75,-11.765625,17.734375
328,1695773825389,-0.37231445,-0.7630005,0.3546753,5.234375,-3.15625,4.3125
329,1695773825430,-0.28564453,-0.91534424,0.3234253,3.5625,-4.453125,2.609375
330,1695773825467,-0.3413086,-0.97247314,0.42010498,0.9375,-12.34375,14.34375
331,1695773825506,-0.3947754,-0.8755493,0.40325928,-11.6875,-13.78125,15.234375
332,1695773825547,-0.43481445,-0.99053955,0.40081787,-19.171875,-15.625,10.90625
333,1695773825589,-0.26391602,-1.1987915,0.57147217,-22.171875,-12.203125,7.328125
334,1695773825631,-0.22216797,-1.1594849,0.3048706,-6.984375,-14.859375,5.953125
335,1695773825672,-0.15307617,-0.9343872,0.20819092,-0.1875,-14.171875,2.453125
336,1695773825710,-0.119628906,-0.8706665,0.26605225,-1.34375,-3.0,-2.671875
337,1695773825727,-0.033203125,-1.12677,0.42132568,-3.921875,-8.953125,-5.40625
338,1695773825768,-0.114990234,-1.1087036,0.40423584,0.5,-11.21875,7.046875
339,1695773825813,-0.22241211,-0.90289307,0.37298584,0.15625,13.171875,1.84375
340,1695773825847,-0.26586914,-0.7522583,0.30096436,-11.625,-6.953125,-5.4375
341,1695773825888,-0.35253906,-0.6018677,0.26116943,-1.421875,-6.578125,-12.890625
342,1695773825931,-0.20336914,-0.68096924,0.34661865,15.609375,16.46875,-13.734375
343,1695773825968,-0.08129883,-0.97735596,0.45794678,3.09375,11.078125,-9.0625
344,1695773826029,-0.12768555,-0.9846802,0.5597534,-4.21875,5.078125,-2.234375
345,1695773826048,-0.27148438,-0.73321533,0.4508667,-7.046875,3.890625,-2.234375
346,1695773826087,-0.30029297,-0.76348877,0.34222412,-1.96875,-2.625,-4.109375
347,1695773826130,-0.2055664,-0.9365845,0.526062,-0.46875,-11.859375,-5.40625
348,1695773826172,-0.1694336,-1.0996704,0.6610718,-1.21875,2.625,-6.609375
349,1695773826209,-0.54003906,-0.9961548,0.5543823,-9.078125,4.46875,-12.875
350,1695773826249,-0.5456543,-0.97369385,0.4225464,-20.078125,-1.375,-25.984375
351,1695773826287,-0.33447266,-1.085022,0.3529663,7.28125,0.234375,-18.59375
352,1695773826327,-0.072753906,-1.0772095,0.31170654,11.421875,22.6875,-0.84375
353,1695773826368,-0.07421875,-0.9561157,0.2411499,-0.5625,11.46875,22.921875
354,1695773826407,-0.4194336,-0.9414673,0.14569092,9.515625,-23.359375,23.984375
355,1695773826448,-0.7890625,-0.87286377,0.42889404,-3.75,-3.6875,-12.140625
356,1695773826486,-0.36987305,-0.8933716,0.33563232,-6.03125,26.46875,-27.703125
357,1695773826528,0.046142578,-0.88409424,0.18499756,13.515625,15.921875,6.296875
358,1695773826567,-0.026611328,-0.85162354,0.2850952,13.46875,-11.75,37.71875
359,1695773826609,-0.35888672,-0.7918091,0.35906982,4.09375,-18.375,33.71875
360,1695773826649,-0.42333984,-0.7366333,0.31219482,2.984375,-2.953125,11.03125
361,1695773826689,-0.30419922,-0.755188,0.2489624,-1.90625,-2.671875,-1.296875
362,1695773826728,-0.2956543,-0.8526001,0.4298706,-2.734375,-6.046875,1.8125
363,1695773826770,-0.4519043,-0.99884033,0.42059326,-6.078125,-11.484375,11.4375
364,1695773826809,-0.44067383,-0.8699341,0.40374756,-12.015625,8.0625,2.578125
365,1695773826846,-0.27929688,-0.954895,0.5499878,-23.53125,7.515625,6.859375
366,1695773826895,-0.24389648,-1.1506958,0.5504761,-16.03125,-5.6875,18.59375
367,1695773826933,-0.5048828,-1.1526489,0.40179443,-6.8125,-3.265625,9.3125
368,1695773826954,-0.26171875,-1.0159302,0.15252686,-4.703125,-1.03125,-8.546875
369,1695773826987,-0.07470703,-0.89434814,0.3439331,-1.125,24.96875,-18.4375
370,1695773827025,-0.032470703,-1.15802,0.19232178,5.203125,28.6875,-21.796875
371,1695773827066,-0.4375,-0.9290161,0.38226318,4.515625,17.609375,-14.875
372,1695773827107,-0.24707031,-0.95147705,0.4286499,7.5625,45.4375,-27.84375
373,1695773827156,-0.19799805,-1.0276489,0.33148193,-3.953125,31.109375,-28.171875
374,1695773827188,-0.31469727,-0.81378174,0.3751831,6.796875,37.890625,-19.15625
375,1695773827230,-0.3239746,-0.71295166,0.26922607,11.90625,44.5,-24.78125
376,1695773827268,-0.39770508,-0.8442993,0.24188232,15.34375,54.0625,-26.71875
377,1695773827309,-0.24389648,-0.90167236,0.40179443,20.421875,60.703125,-32.109375
378,1695773827349,-0.3046875,-0.81988525,0.3475952,14.296875,48.953125,-27.1875
379,1695773827387,-0.35839844,-0.8179321,0.33880615,17.078125,59.3125,-19.421875
380,1695773827427,-0.28808594,-0.8069458,0.34832764,23.28125,62.609375,-20.734375
381,1695773827468,-0.20825195,-0.9138794,0.33099365,16.765625,46.765625,-18.359375
382,1695773827508,-0.24731445,-0.9439087,0.510437,19.296875,56.03125,-24.046875
383,1695773827547,-0.3010254,-0.9295044,0.42230225,22.875,54.359375,-20.6875
384,1695773827586,-0.7224121,-0.94610596,0.39837646,16.890625,54.1875,-19.96875
385,1695773827626,-0.34545898,-1.0427856,0.13421631,17.25,52.546875,-34.0
386,1695773827668,-0.31152344,-1.1399536,0.28851318,36.890625,70.03125,-22.59375
387,1695773827707,-0.43041992,-0.94073486,0.27288818,29.875,80.703125,-9.03125
388,1695773827748,-0.4038086,-0.86309814,0.0048217773,19.375,49.921875,-4.984375
389,1695773827789,-0.5595703,-0.9680786,0.21600342,28.765625,47.71875,-17.265625
390,1695773827829,-0.7446289,-0.99224854,0.34173584,28.9375,68.625,-32.21875
391,1695773827868,-0.47729492,-0.9365845,0.08758545,18.546875,73.25,-32.015625
392,1695773827908,-0.41967773,-0.8687134,0.16546631,29.90625,80.375,-13.1875
393,1695773827949,-0.47216797,-0.83184814,0.17156982,12.9375,68.046875,-9.828125
394,1695773827991,-0.49267578,-0.8057251,0.13226318,15.078125,62.484375,-14.703125
395,1695773828029,-0.4621582,-0.7805786,0.17523193,19.6875,57.890625,-8.53125
396,1695773828104,-0.49438477,-0.8406372,0.11932373,9.359375,50.125,-4.921875
397,1695773828108,-0.5583496,-0.8587036,0.1227417,7.40625,44.9375,-9.0
398,1695773828144,-0.46411133,-0.8858032,0.22796631,11.203125,54.0,-11.28125
399,1695773828164,-0.30078125,-0.99468994,0.4179077,13.40625,52.625,1.96875
400,1695773828204,-0.28051758,-1.079895,0.3378296,4.609375,27.5,21.453125
401,1695773828244,-0.56274414,-1.0930786,0.3131714,2.421875,13.078125,11.234375
402,1695773828286,-0.6333008,-1.0789185,0.18597412,-6.671875,27.3125,-17.765625
403,1695773828324,-0.3154297,-0.909729,0.1618042,4.4375,64.46875,-34.515625
404,1695773828367,-0.055908203,-0.97906494,0.06951904,5.703125,73.140625,-26.828125
405,1695773828405,-0.099365234,-1.0886841,0.2111206,15.625,57.015625,-17.515625
406,1695773828444,-0.033935547,-1.0947876,0.3739624,10.125,34.6875,-19.265625
407,1695773828486,-0.12182617,-1.0984497,0.31732178,-1.171875,42.25,-16.140625
408,1695773828527,-0.27734375,-0.8587036,0.31195068,11.375,49.515625,-11.484375
409,1695773828564,-0.34838867,-0.6482544,0.19329834,7.484375,40.078125,-15.765625
410,1695773828605,-0.26489258,-0.74591064,0.19622803,12.15625,39.96875,-16.9375
411,1695773828645,-0.20727539,-1.0401001,0.49041748,12.375,42.625,-13.125
412,1695773828683,-0.22290039,-0.93707275,0.4225464,8.3125,54.328125,-9.265625
413,1695773828724,-0.23486328,-0.7151489,0.26849365,5.34375,43.421875,-8.0625
414,1695773828765,-0.27783203,-0.6658325,0.31121826,11.484375,30.296875,-9.265625
415,1695773828805,-0.12084961,-0.96099854,0.43963623,-2.0625,16.359375,-8.71875
416,1695773828844,-0.013183594,-1.1243286,0.59490967,1.234375,11.984375,3.25
417,1695773828884,-0.25854492,-1.0645142,0.5529175,11.078125,14.171875,4.90625
418,1695773828924,-0.7819824,-0.79888916,0.50775146,-7.625,-0.53125,-23.25
419,1695773828964,-0.58496094,-1.0696411,0.06756592,-22.65625,1.65625,-46.21875
420,1695773829005,-0.12231445,-1.3826294,0.28167725,21.046875,31.609375,-32.375
421,1695773829044,0.21240234,-1.3171997,0.38885498,18.171875,36.4375,11.8125
422,1695773829086,-0.1616211,-0.85406494,0.12200928,11.078125,6.6875,45.6875
423,1695773829125,-0.6459961,-0.8237915,0.19622803,-6.21875,-30.890625,14.453125
424,1695773829167,-0.67211914,-0.77471924,0.37347412,-8.578125,9.265625,-28.578125
425,1695773829208,-0.14038086,-0.93536377,0.29779053,4.359375,32.265625,-16.859375
426,1695773829245,0.07348633,-0.84088135,0.17791748,19.21875,10.546875,25.75
427,1695773829284,-0.19311523,-0.7896118,0.22894287,12.03125,-12.3125,34.765625
428,1695773829325,-0.62402344,-0.75494385,0.37591553,1.375,-18.625,9.765625
429,1695773829366,-0.39892578,-0.79815674,0.26605225,-2.515625,5.4375,-8.484375
430,1695773829385,-0.21142578,-0.9104614,0.29901123,-6.421875,-1.40625,-4.125
431,1695773829425,-0.20092773,-1.0244751,0.3944702,-2.609375,-11.21875,12.3125
432,1695773829466,-0.35205078,-1.0066528,0.35125732,-4.46875,-15.078125,22.3125
433,1695773829505,-0.4777832,-0.8843384,0.4401245,-8.484375,-10.8125,6.25
434,1695773829545,-0.37719727,-1.1831665,0.34466553,-27.8125,-16.453125,-5.484375
435,1695773829585,-0.19604492,-1.2844849,0.42547607,-12.15625,-15.453125,-5.046875
436,1695773829624,0.033203125,-1.0266724,0.26116943,7.546875,13.671875,-6.0
437,1695773829665,0.025878906,-0.9216919,0.24090576,-8.625,-3.390625,-1.390625
438,1695773829705,-0.23242188,-0.9534302,0.3793335,-5.640625,-14.390625,-1.640625
439,1695773829744,-0.15771484,-1.0498657,0.37957764,2.59375,-2.953125,-5.25
440,1695773829784,-0.026855469,-1.0444946,0.37664795,-5.46875,-0.515625,-5.9375
441,1695773829824,-0.111083984,-0.83135986,0.38006592,-7.484375,2.171875,-4.71875
442,1695773829864,-0.22338867,-0.6602173,0.2868042,3.28125,-12.625,1.65625
443,1695773829904,-0.23413086,-0.5786743,0.26531982,19.125,-5.296875,-1.15625
444,1695773829946,-0.19750977,-0.8123169,0.39398193,12.109375,6.53125,-11.28125
445,1695773829984,-0.25097656,-0.98028564,0.49725342,-3.5625,-1.484375,-12.484375
446,1695773830024,-0.26513672,-0.85943604,0.45281982,-2.359375,13.71875,-6.96875
447,1695773830064,-0.27026367,-0.86431885,0.36810303,3.765625,10.734375,-4.125
448,1695773830104,-0.19897461,-0.9234009,0.5101929,5.28125,9.4375,-15.8125
449,1695773830144,-0.13598633,-1.0945435,0.66156006,-6.6875,-0.953125,-12.6875
450,1695773830187,-0.49072266,-1.0308228,0.44989014,-20.96875,-12.171875,-11.5625
451,1695773830225,-0.4621582,-1.1939087,0.29071045,-3.8125,-11.65625,-17.234375
452,1695773830265,-0.31982422,-1.1299438,0.33148193,10.90625,10.15625,-16.765625
453,1695773830344,-0.022705078,-0.9663696,0.18060303,5.140625,29.296875,1.828125
454,1695773830346,-0.2319336,-0.90948486,0.199646,1.859375,-0.4375,22.421875
455,1695773830385,-0.50927734,-0.99298096,0.23773193,11.09375,-12.75,19.265625
456,1695773830425,-0.6135254,-0.92437744,0.30511475,-5.5,-5.734375,-13.203125
457,1695773830465,-0.25097656,-0.8320923,0.31976318,-4.59375,22.8125,-14.078125
458,1695773830504,-0.043701172,-0.8201294,0.19769287,15.921875,15.1875,18.015625
459,1695773830547,-0.16577148,-0.76348877,0.24432373,19.59375,-11.125,32.0
460,1695773830604,-0.35717773,-0.79571533,0.322937,2.015625,-13.75,16.34375
461,1695773830625,-0.47045898,-0.82696533,0.2699585,8.484375,-6.140625,6.109375
462,1695773830644,-0.32714844,-0.85479736,0.354187,0.328125,-3.84375,-0.546875
463,1695773830685,-0.25634766,-0.95391846,0.3847046,-4.4375,-11.3125,6.796875
464,1695773830724,-0.39379883,-0.9146118,0.34002686,-15.34375,-14.28125,12.515625
465,1695773830765,-0.39746094,-0.9846802,0.35272217,-8.734375,-9.578125,7.546875
466,1695773830806,-0.40673828,-1.0466919,0.46087646,-17.40625,-9.828125,10.046875
467,1695773830844,-0.28320312,-1.197815,0.32244873,-17.9375,-14.1875,4.515625
468,1695773830885,-0.10107422,-1.0418091,0.23822021,-3.421875,-7.953125,0.34375
469,1695773830925,0.03540039,-0.9783325,0.27679443,0.5,7.5625,-8.84375
470,1695773830966,0.0073242188,-1.1868286,0.3493042,-1.78125,-5.859375,-5.0625
471,1695773831008,-0.20776367,-1.0386353,0.30413818,-6.25,-9.328125,-0.53125
472,1695773831045,-0.22387695,-0.96051025,0.33172607,-2.171875,8.203125,-7.984375
473,1695773831085,-0.08959961,-0.9299927,0.38983154,-0.734375,-0.359375,-7.46875
474,1695773831124,-0.16210938,-0.75567627,0.33392334,-3.6875,-15.71875,-1.703125
475,1695773831166,-0.2290039,-0.6716919,0.29022217,-0.75,-10.421875,-0.109375
476,1695773831205,-0.2487793,-0.70635986,0.33709717,5.4375,0.875,-4.03125
477,1695773831246,-0.24853516,-0.8423462,0.44940186,2.4375,3.375,-10.328125
478,1695773831286,-0.2355957,-0.83428955,0.4569702,1.015625,3.671875,-6.921875
479,1695773831324,-0.29174805,-0.8032837,0.43377686,-2.6875,4.1875,-5.34375
480,1695773831365,-0.31054688,-0.866272,0.4196167,-4.34375,-2.921875,-11.296875
481,1695773831405,-0.16894531,-1.0388794,0.5932007,1.34375,2.828125,-16.578125
482,1695773831445,-0.20141602,-1.0794067,0.54974365,0.6875,-1.453125,-6.484375
483,1695773831485,-0.5383301,-1.0054321,0.51849365,-6.078125,-9.265625,-8.3125
484,1695773831526,-0.6381836,-1.0435181,0.24432373,-19.21875,-16.9375,-15.296875
485,1695773831564,-0.2854004,-0.95562744,0.17523193,9.0625,33.53125,-22.4375
486,1695773831605,-0.023925781,-1.065979,0.21478271,6.578125,29.671875,8.65625
487,1695773831645,-0.27929688,-1.0239868,0.23846436,13.8125,1.875,29.640625
488,1695773831685,-0.45874023,-0.9414673,0.2789917,8.21875,-14.546875,11.125
489,1695773831725,-0.5422363,-0.9282837,0.37835693,-3.953125,10.984375,-21.953125
490,1695773831765,-0.19604492,-0.8008423,0.2843628,4.6875,17.6875,-5.53125
491,1695773831805,-0.08325195,-0.74884033,0.23773193,17.71875,4.796875,25.0625
492,1695773831825,-0.24023438,-0.798645,0.30560303,9.953125,-14.328125,31.609375
493,1695773831865,-0.5095215,-0.76446533,0.33441162,7.15625,-10.875,10.75
494,1695773831904,-0.39453125,-0.7744751,0.26312256,10.390625,-3.125,-0.546875
495,1695773831945,-0.3317871,-0.88897705,0.3805542,3.546875,-0.171875,-1.125
496,1695773831985,-0.32885742,-1.0274048,0.41278076,-4.71875,-3.6875,5.21875
497,1695773832025,-0.33251953,-0.98931885,0.29779053,-7.625,-10.625,17.9375
498,1695773832065,-0.35986328,-0.95684814,0.48675537,-11.421875,-3.75,17.0625
499,1695773832105,-0.2692871,-1.1824341,0.40423584,-20.78125,-23.765625,11.875
500,1695773832145,-0.3112793,-1.2752075,0.3710327,-2.0625,-10.4375,5.453125
501,1695773832185,-0.07714844,-1.0542603,0.15325928,8.046875,-9.1875,5.8125
502,1695773832226,0.05053711,-0.829895,0.09075928,1.640625,-8.765625,-0.125
503,1695773832265,-0.036376953,-1.0252075,0.24725342,-7.796875,-13.125,-4.09375
504,1695773832306,-0.2722168,-1.0662231,0.2506714,-2.046875,-23.640625,-2.484375
505,1695773832345,-0.27685547,-0.94781494,0.34661865,-3.015625,11.703125,-6.8125
506,1695773832384,-0.15478516,-0.93218994,0.29730225,-17.0625,5.546875,-15.28125
507,1695773832423,-0.28198242,-0.7149048,0.27069092,-4.234375,5.703125,-11.71875
508,1695773832464,-0.22753906,-0.6321411,0.26312256,17.328125,14.375,-8.25
509,1695773832503,-0.11254883,-0.78741455,0.31414795,5.828125,4.734375,-8.359375
510,1695773832543,-0.20629883,-0.9656372,0.45892334,-5.359375,1.640625,-5.90625
511,1695773832584,-0.2211914,-0.85821533,0.45404053,-5.1875,8.515625,-2.484375
512,1695773832623,-0.2619629,-0.83599854,0.35028076,-3.375,14.875,0.421875
513,1695773832664,-0.19360352,-0.8755493,0.38275146,1.078125,2.71875,-8.53125
514,1695773832705,-0.032714844,-1.1152954,0.7094116,-0.4375,-12.203125,-2.59375
515,1695773832747,-0.3293457,-0.9949341,0.45672607,-14.234375,-17.921875,-2.3125
516,1695773832784,-0.7194824,-0.9014282,0.48431396,-5.90625,-11.484375,-20.578125
517,1695773832824,-0.5559082,-1.0942993,0.14471436,-12.1875,-7.5,-20.203125
518,1695773832864,-0.27807617,-1.1231079,0.14788818,4.921875,45.03125,-21.546875
519,1695773832903,-0.03466797,-1.192688,0.21136475,0.171875,20.5,-4.703125
520,1695773832944,-0.18457031,-0.88531494,0.34002686,24.03125,14.546875,17.78125
521,1695773832984,-0.39794922,-0.9585571,0.27044678,19.0,-4.109375,8.09375
522,1695773833044,-0.52490234,-0.78253174,0.35125732,-7.328125,7.25,-10.65625
523,1695773833064,-0.22998047,-0.73223877,0.2538452,-1.28125,15.921875,-1.140625
524,1695773833084,-0.16088867,-0.77667236,0.19158936,18.234375,-0.4375,22.125
525,1695773833124,-0.23876953,-0.8362427,0.3534546,19.28125,-1.53125,22.4375
526,1695773833166,-0.48779297,-0.77789307,0.39642334,8.625,0.4375,5.6875
527,1695773833204,-0.35205078,-0.76763916,0.28900146,-8.421875,-1.234375,-5.984375
528,1695773833244,-0.24682617,-0.8862915,0.31658936,-3.921875,-1.1875,-0.265625
529,1695773833284,-0.31420898,-1.0064087,0.3534546,-3.984375,-18.046875,14.59375
530,1695773833324,-0.5085449,-1.0542603,0.50946045,-0.921875,-3.0,15.671875
531,1695773833365,-0.43481445,-1.1477661,0.387146,-12.09375,-1.28125,14.3125
532,1695773833404,-0.27978516,-1.0835571,0.30633545,-14.15625,-2.0625,6.8125
533,1695773833444,-0.05517578,-0.97003174,0.11053467,-6.5625,-7.015625,-6.390625
534,1695773833483,0.04272461,-1.0215454,0.32196045,-6.421875,-0.328125,-9.78125
535,1695773833523,0.016113281,-1.2971802,0.35369873,1.03125,-2.703125,-4.28125
536,1695773833564,-0.4243164,-0.9824829,0.3546753,-3.859375,-0.3125,-0.71875
537,1695773833603,-0.28588867,-0.94122314,0.36639404,-5.5625,23.15625,-21.171875
538,1695773833643,-0.103027344,-0.87994385,0.24310303,-5.859375,-3.75,-17.90625
539,1695773833685,-0.103271484,-0.72784424,0.37176514,6.640625,-11.703125,1.484375
540,1695773833723,-0.07128906,-0.7407837,0.33807373,2.71875,-6.296875,11.171875
541,1695773833763,-0.21313477,-0.756897,0.3390503,4.375,-6.03125,2.40625
542,1695773833804,-0.34838867,-0.80303955,0.3944702,5.3125,-5.046875,-9.265625
543,1695773833844,-0.23608398,-0.79400635,0.43450928,-1.109375,-2.4375,-20.5625
544,1695773833885,-0.24951172,-0.8892212,0.47698975,-10.234375,-14.15625,-6.609375
545,1695773833925,-0.31884766,-0.83306885,0.39422607,-7.921875,-1.203125,-1.203125
546,1695773833965,-0.16992188,-1.0737915,0.56536865,4.6875,1.0,-7.34375
547,1695773834005,-0.35302734,-1.237854,0.43670654,-6.765625,-12.34375,-4.984375
548,1695773834045,-0.5358887,-1.2022095,0.31243896,-8.859375,-21.109375,-7.515625
549,1695773834086,-0.46704102,-1.0220337,0.27093506,1.875,6.609375,-22.0625
550,1695773834127,-0.24023438,-0.89971924,0.18328857,17.171875,30.859375,-1.40625
551,1695773834166,-0.3737793,-0.82647705,0.05999756,1.390625,11.0625,13.703125
552,1695773834206,-0.49951172,-0.97052,0.2506714,-0.390625,-3.140625,6.0625
553,1695773834246,-0.44067383,-1.0645142,0.40985107,3.015625,7.828125,-13.90625
554,1695773834286,-0.26586914,-0.94610596,0.338562,18.203125,27.015625,-4.140625
555,1695773834304,-0.14746094,-0.7373657,0.113464355,10.046875,19.359375,23.5625
556,1695773834344,-0.2854004,-0.60943604,0.20355225,3.015625,-13.640625,31.9375
557,1695773834385,-0.4794922,-0.7805786,0.2975464,-5.28125,-16.015625,10.109375
558,1695773834424,-0.3408203,-0.8237915,0.2814331,9.9375,2.953125,2.5
559,1695773834464,-0.2553711,-0.8418579,0.3468628,9.5625,1.828125,3.25
560,1695773834505,-0.3059082,-0.8508911,0.3283081,-6.359375,-9.359375,5.703125
561,1695773834544,-0.44580078,-0.89263916,0.34051514,-20.71875,-20.421875,10.984375
562,1695773834584,-0.43310547,-1.0713501,0.42596436,-15.453125,-11.453125,11.546875
563,1695773834625,-0.1315918,-1.2730103,0.5343628,-15.21875,-13.453125,16.890625
564,1695773834664,-0.2536621,-1.2539673,0.3156128,-2.71875,-25.03125,18.015625
565,1695773834705,-0.30395508,-1.0366821,0.22259521,1.28125,-16.765625,7.0
566,1695773834745,-0.096191406,-0.8335571,0.07513428,-4.875,-7.921875,0.390625
567,1695773834785,-0.041259766,-0.9727173,0.17474365,-9.953125,-9.390625,-5.078125
568,1695773834825,-0.23803711,-1.0527954,0.3156128,-3.8125,-15.171875,-4.625
569,1695773834865,-0.27539062,-0.94000244,0.3690796,-4.75,14.640625,-8.359375
570,1695773834905,-0.16894531,-1.0056763,0.3637085,-14.0,5.640625,-15.296875
571,1695773834946,-0.28344727,-0.7932739,0.31048584,-5.546875,0.28125,-13.90625
572,1695773834986,-0.3203125,-0.6375122,0.262146,11.703125,14.5625,-9.265625
573,1695773835024,-0.23291016,-0.6968384,0.277771,11.65625,15.78125,-8.75
574,1695773835065,-0.19970703,-0.84039307,0.4274292,1.046875,7.296875,-12.0
575,1695773835106,-0.24072266,-0.7888794,0.4105835,-3.390625,12.578125,-6.984375
576,1695773835145,-0.3095703,-0.8164673,0.30828857,3.234375,18.109375,1.140625
577,1695773835185,-0.33398438,-0.92144775,0.4545288,8.765625,17.96875,-9.375
578,1695773835225,-0.12084961,-1.0767212,0.6166382,-0.53125,5.609375,-15.75
579,1695773835264,-0.16894531,-1.081604,0.47332764,-6.046875,-6.84375,-5.078125
580,1695773835305,-0.6933594,-0.98760986,0.5180054,1.96875,-2.90625,-5.640625
581,1695773835345,-0.63964844,-0.9920044,0.22918701,-9.203125,-5.96875,-25.515625
582,1695773835384,-0.46435547,-0.8491821,0.16326904,7.6875,37.34375,-29.296875
583,1695773835423,-0.12182617,-1.1192017,0.11224365,7.4375,44.125,-16.328125
584,1695773835464,-0.1784668,-1.0674438,0.2970581,8.765625,14.890625,12.046875
585,1695773835504,-0.3959961,-1.0408325,0.29022217,28.234375,12.34375,13.3125
586,1695773835523,-0.71069336,-0.81695557,0.37591553,3.84375,13.640625,-9.65625
587,1695773835563,-0.32617188,-0.75079346,0.23724365,1.5,25.578125,-12.40625
588,1695773835604,-0.19946289,-0.74884033,0.13128662,17.96875,17.625,13.203125
589,1695773835643,-0.25805664,-0.8164673,0.26531982,17.46875,4.8125,18.203125
590,1695773835684,-0.44750977,-0.90826416,0.35638428,13.1875,5.015625,10.859375
591,1695773835725,-0.3605957,-0.8027954,0.29144287,10.375,6.375,5.015625
592,1695773835764,-0.32958984,-0.7683716,0.24969482,5.296875,3.671875,4.1875
593,1695773835804,-0.43896484,-0.9138794,0.32928467,-8.609375,-9.609375,11.375
594,1695773835844,-0.42504883,-0.9248657,0.36810303,-9.03125,-1.96875,13.671875
595,1695773835884,-0.35083008,-0.95880127,0.40374756,-17.375,-0.65625,13.796875
596,1695773835925,-0.25170898,-1.2041626,0.36517334,-18.8125,-18.46875,17.046875
597,1695773835966,-0.2841797,-1.3535767,0.39178467,0.34375,-20.5625,16.5
598,1695773836004,-0.057617188,-1.0283813,0.13690186,5.546875,0.84375,5.890625
599,1695773836045,-0.064941406,-0.9019165,0.19134521,-7.1875,0.734375,-2.28125
600,1695773836085,-0.17504883,-0.97784424,0.31756592,-2.5,2.390625,-3.84375
601,1695773836125,-0.21264648,-0.98443604,0.30340576,4.5625,6.609375,-5.59375
602,1695773836165,-0.049072266,-1.0029907,0.33953857,-3.71875,16.1875,-11.734375
603,1695773836205,-0.08300781,-0.93170166,0.38397217,-9.53125,0.21875,-6.765625
604,1695773836244,-0.23901367,-0.77130127,0.29852295,-2.4375,-0.421875,-3.609375
605,1695773836285,-0.25268555,-0.6519165,0.23968506,12.65625,9.296875,-5.546875
606,1695773836326,-0.17138672,-0.6921997,0.3234253,11.921875,20.765625,-9.359375
607,1695773836365,-0.08081055,-0.9920044,0.4713745,-7.65625,1.90625,-10.234375
608,1695773836405,-0.1538086,-0.8862915,0.44378662,-11.140625,-7.484375,-2.15625
609,1695773836446,-0.20751953,-0.8218384,0.37127686,-2.421875,8.046875,1.53125
610,1695773836490,-0.23999023,-0.8945923,0.42156982,-1.296875,-5.703125,-7.78125
611,1695773836526,-0.17822266,-0.99835205,0.59124756,-4.0625,-7.625,-18.875
612,1695773836565,-0.44140625,-1.2217407,0.4725952,-16.96875,-17.671875,-18.203125
613,1695773836604,-0.5942383,-1.1939087,0.38128662,-4.671875,-13.140625,-25.65625
614,1695773836644,-0.23706055,-0.9783325,0.30633545,6.390625,19.546875,-30.0625
615,1695773836685,0.022705078,-0.9331665,0.20404053,3.421875,28.578125,5.375
616,1695773836725,-0.23999023,-1.0466919,0.14349365,-4.515625,-14.6875,31.90625
617,1695773836746,-0.5078125,-0.96832275,0.38079834,3.375,-23.640625,16.609375
618,1695773836786,-0.5012207,-0.94610596,0.35760498,-1.8125,13.03125,-17.546875
619,1695773836825,-0.20117188,-0.81085205,0.27215576,-3.03125,14.21875,-5.703125
620,1695773836866,-0.09350586,-0.6902466,0.21746826,17.796875,3.71875,24.71875
621,1695773836903,-0.103515625,-0.8447876,0.27801514,8.03125,-21.78125,33.21875
622,1695773836943,-0.47192383,-0.8052368,0.38861084,5.46875,-21.375,21.5625
623,1695773836983,-0.37402344,-0.7859497,0.3024292,5.171875,-4.421875,5.609375
624,1695773837023,-0.27197266,-0.85162354,0.3600464,-3.09375,-8.78125,2.75
625,1695773837063,-0.30371094,-0.95196533,0.34613037,-4.890625,-21.28125,9.90625
626,1695773837123,-0.42285156,-0.94732666,0.38153076,-13.28125,-20.4375,16.046875
627,1695773837144,-0.3930664,-0.97052,0.47210693,-16.921875,-6.375,10.75
628,1695773837183,-0.23022461,-1.2451782,0.39471436,-16.6875,-12.1875,15.90625
629,1695773837224,-0.16015625,-1.2622681,0.338562,-9.140625,-13.390625,9.59375
630,1695773837263,-0.11352539,-1.0142212,0.3131714,-1.859375,-2.234375,-5.1875
631,1695773837323,-0.13305664,-0.92022705,0.2374878,1.03125,17.234375,-15.421875
632,1695773837343,-0.10180664,-1.0161743,0.30804443,-2.59375,0.65625,-13.609375
633,1695773837384,-0.09643555,-1.0628052,0.37908936,4.125,7.0625,-12.109375
634,1695773837424,0.013671875,-1.0598755,0.43865967,-0.59375,1.890625,-8.640625
635,1695773837465,-0.24438477,-0.8218384,0.3397827,-17.0625,-12.484375,-4.09375
636,1695773837526,-0.37646484,-0.61553955,0.32000732,-5.125,-8.078125,-10.34375
637,1695773837545,-0.22436523,-0.60821533,0.27069092,11.859375,6.359375,-16.09375
638,1695773837585,-0.057373047,-0.83795166,0.4310913,7.0,1.984375,-10.25
639,1695773837624,-0.10522461,-0.89434814,0.527771,-3.515625,0.96875,-1.734375
640,1695773837664,-0.26000977,-0.7334595,0.3973999,-9.625,-3.6875,0.5625
641,1695773837704,-0.35131836,-0.79278564,0.30413818,-1.234375,-1.828125,3.28125
642,1695773837745,-0.29003906,-0.9627075,0.6286011,8.0,-6.15625,-5.796875
643,1695773837785,-0.08691406,-1.1216431,0.68914795,-6.53125,5.734375,-11.015625
644,1695773837826,-0.50512695,-0.9417114,0.53704834,-10.703125,-8.09375,-13.84375
645,1695773837865,-0.54467773,-1.1372681,0.29534912,-9.109375,-31.5,-14.46875
646,1695773837907,-0.18896484,-1.0962524,0.3493042,11.578125,2.21875,-8.578125
647,1695773837945,-0.03125,-1.1375122,0.13812256,-4.421875,15.640625,8.765625
648,1695773837965,-0.16015625,-1.0200806,0.1281128,-3.828125,-7.78125,35.96875
649,1695773838005,-0.2890625,-1.1587524,0.30511475,3.28125,-22.875,26.671875
650,1695773838044,-0.6789551,-0.9512329,0.48114014,-11.734375,-10.4375,0.078125
651,1695773838084,-0.19628906,-0.9180298,0.24310303,-6.515625,8.09375,-9.640625
652,1695773838145,0.025146484,-0.71539307,0.11834717,2.375,-12.703125,20.703125
653,1695773838166,-0.018066406,-0.77008057,0.28778076,6.765625,-30.828125,30.953125
654,1695773838205,-0.40844727,-0.8064575,0.3012085,-3.078125,-38.3125,22.625
655,1695773838245,-0.3713379,-0.7317505,0.29119873,-5.1875,-23.4375,7.234375
656,1695773838284,-0.23999023,-0.7761841,0.26263428,-7.25,-21.171875,0.171875
657,1695773838345,-0.24853516,-0.95025635,0.42181396,-7.265625,-26.453125,11.375
658,1695773838365,-0.38671875,-0.95880127,0.44989014,0.46875,-26.359375,20.1875
659,1695773838404,-0.49536133,-0.91290283,0.39471436,-7.875,-21.375,7.640625
660,1695773838445,-0.4885254,-0.8909302,0.51190186,-24.0625,-22.890625,1.65625
661,1695773838486,-0.35107422,-1.149231,0.45648193,-18.84375,-29.796875,2.078125
662,1695773838525,-0.07006836,-1.2520142,0.4989624,0.171875,-7.296875,2.421875
663,1695773838565,-0.06518555,-1.0015259,0.31414795,3.96875,-2.6875,-2.34375
664,1695773838606,-0.0068359375,-0.9553833,0.2008667,-6.125,-4.203125,-5.765625
665,1695773838645,-0.0107421875,-1.0003052,0.36151123,5.4375,-1.15625,-8.953125
666,1695773838685,0.23583984,-1.1553345,0.31976318,-2.546875,-13.515625,-4.640625
667,1695773838725,-0.017578125,-1.0640259,0.42767334,-12.984375,-28.3125,5.328125
668,1695773838764,-0.22583008,-0.87384033,0.34954834,-9.984375,-32.296875,4.578125
669,1695773838805,-0.25,-0.67681885,0.2814331,-5.40625,-24.34375,-5.34375
670,1695773838864,-0.10961914,-0.72857666,0.25701904,11.25,-30.625,-1.84375
671,1695773838885,-0.079833984,-0.8255005,0.46063232,8.53125,-24.8125,-6.3125
672,1695773838924,-0.14282227,-0.80255127,0.38787842,-17.109375,-28.359375,-8.5
673,1695773838964,-0.22094727,-0.83258057,0.39007568,-18.390625,-36.625,-3.265625
674,1695773839005,-0.3166504,-0.8706665,0.4328003,-3.140625,-27.234375,-1.3125
675,1695773839065,-0.44360352,-0.87213135,0.55877686,-10.78125,-21.0,-9.609375
676,1695773839084,-0.34643555,-0.93341064,0.52679443,-23.765625,-33.828125,-18.0625
677,1695773839129,-0.40429688,-1.1575317,0.17840576,-24.609375,-33.703125,-16.65625
678,1695773839185,-0.12792969,-1.1472778,0.4364624,-3.203125,-8.609375,-14.6875
679,1695773839206,0.1586914,-1.3626099,0.08343506,-35.078125,-49.09375,18.765625
680,1695773839225,-0.28466797,-1.1072388,0.08709717,-10.546875,-51.21875,42.15625
681,1695773839265,-0.24023438,-1.2192993,0.12225342,-15.90625,-68.390625,31.234375
682,1695773839306,-0.19091797,-1.0071411,0.24407959,-20.984375,-68.65625,28.296875
683,1695773839365,-0.08984375,-0.98687744,0.1515503,-9.0625,-71.75,34.328125
684,1695773839386,-0.12841797,-0.8760376,0.005554199,-26.390625,-103.484375,37.46875
685,1695773839424,-0.21606445,-0.9585571,0.11444092,-13.125,-112.640625,47.125
686,1695773839465,-0.3256836,-1.0142212,0.24700928,-21.0625,-117.53125,40.796875
687,1695773839506,-0.22924805,-0.92926025,0.070739746,3.546875,-95.546875,39.578125
688,1695773839547,-0.45874023,-0.76104736,0.12835693,2.40625,-100.703125,35.671875
689,1695773839585,-0.38305664,-0.75494385,0.26409912,-4.34375,-90.734375,14.125
690,1695773839624,-0.45410156,-0.95440674,0.29144287,-16.3125,-88.28125,9.265625
691,1695773839665,-0.2800293,-0.98272705,0.512146,-7.78125,-63.703125,6.609375
692,1695773839706,-0.23388672,-0.95391846,0.18133545,-4.28125,-57.703125,21.734375
693,1695773839745,-0.5539551,-0.72076416,0.42108154,-20.9375,-67.953125,15.890625
694,1695773839784,-0.45507812,-1.1773071,0.16864014,-52.0,-61.265625,4.390625
695,1695773839824,-0.052246094,-1.3174438,0.41131592,-4.28125,-44.171875,2.75
696,1695773839884,0.4777832,-1.3936157,0.07952881,-8.96875,-23.875,5.015625
697,1695773839904,-0.07104492,-1.1948853,-0.0068969727,-23.59375,-46.125,17.109375
698,1695773839945,-0.68969727,-0.819397,0.28289795,-7.53125,-39.53125,-2.5
699,1695773839985,-0.0017089844,-0.99591064,0.21722412,5.359375,10.078125,-32.25
700,1695773840026,0.49926758,-1.5435181,0.49139404,-30.0625,-61.171875,-11.5
701,1695773840084,0.0041503906,-0.84942627,-0.008850098,-41.453125,-58.296875,32.390625
702,1695773840105,-0.37158203,-0.5508423,0.20111084,-12.90625,-52.671875,29.21875
703,1695773840145,-0.4663086,-0.5498657,0.26068115,25.46875,-7.609375,-5.203125
704,1695773840185,-0.34448242,-0.7263794,0.29241943,-4.53125,-4.46875,-36.3125
705,1695773840224,-0.19848633,-0.9273071,0.43011475,-5.875,-9.125,-27.640625
706,1695773840264,-0.12036133,-0.7415161,0.44158936,-13.859375,-19.171875,-8.109375
707,1695773840304,-0.30615234,-0.7280884,0.37176514,-3.578125,-1.25,0.328125
708,1695773840344,-0.35961914,-0.83917236,0.354187,-3.015625,5.921875,-10.96875
709,1695773840386,-0.33984375,-0.9771118,0.6486206,-13.125,-15.875,-22.3125
710,1695773840405,-0.29467773,-1.1047974,0.557312,-8.609375,8.640625,-16.625
711,1695773840444,-0.39941406,-1.3452759,0.2020874,-10.6875,-3.953125,4.46875
712,1695773840528,-0.3642578,-1.0684204,-0.011779785,-7.65625,-11.34375,4.3125
713,1695773840529,-0.18798828,-1.1516724,0.19744873,-8.484375,6.84375,4.84375
714,1695773840564,-0.24316406,-1.0376587,0.30999756,28.0625,25.328125,24.9375
715,1695773840604,-0.31103516,-1.0371704,0.15740967,9.484375,10.421875,15.828125
716,1695773840644,-0.58618164,-0.8916626,0.26654053,-24.3125,-8.5,-17.6875
717,1695773840686,-0.2121582,-0.9507446,0.32440186,-10.515625,3.203125,-18.53125
718,1695773840724,-0.040283203,-0.7756958,0.23431396,17.65625,14.921875,19.8125
719,1695773840766,-0.052734375,-0.6734009,0.15179443,16.6875,9.265625,36.984375
720,1695773840804,-0.41918945,-0.710022,0.32147217,-4.640625,-17.140625,20.765625
721,1695773840851,-0.453125,-0.7324829,0.2477417,-7.5,-14.25,-8.984375
722,1695773840906,-0.28027344,-0.8882446,0.2909546,-6.609375,2.46875,-8.3125
723,1695773840925,-0.18652344,-1.1311646,0.49432373,-6.96875,-4.46875,12.03125
724,1695773840966,-0.22143555,-0.94854736,0.40350342,-7.84375,-7.75,23.875
725,1695773841005,-0.39404297,-0.958313,0.30389404,-10.90625,-15.15625,18.4375
726,1695773841045,-0.5415039,-1.0291138,0.43719482,-23.8125,-19.1875,6.828125
727,1695773841085,-0.3017578,-1.3430786,0.4533081,-17.28125,-8.90625,-1.234375
728,1695773841127,0.060302734,-1.1187134,0.2526245,-1.75,4.953125,1.59375
729,1695773841164,0.1809082,-0.986145,0.22796631,-0.609375,10.90625,0.46875
730,1695773841206,-0.15771484,-0.9612427,0.30145264,-2.9375,-16.984375,0.109375
731,1695773841245,-0.30273438,-0.91656494,0.2929077,1.84375,7.4375,-13.8125
732,1695773841284,-0.10546875,-0.9295044,0.28338623,4.296875,27.4375,-22.40625
733,1695773841325,0.040039062,-1.0073853,0.4081421,2.625,8.28125,-15.109375
734,1695773841365,-0.107421875,-0.8389282,0.31781006,-1.578125,-6.015625,-0.875
735,1695773841406,-0.23095703,-0.65753174,0.30023193,3.515625,-6.953125,2.0625
736,1695773841445,-0.20532227,-0.6992798,0.34613037,12.8125,10.265625,-6.515625
737,1695773841485,-0.2241211,-0.90289307,0.46502686,0.015625,0.984375,-14.640625
738,1695773841525,-0.22949219,-0.87091064,0.45721436,-4.84375,4.328125,-12.90625
739,1695773841565,-0.22924805,-0.79400635,0.3908081,-5.09375,1.75,-7.40625
740,1695773841625,-0.26367188,-0.92315674,0.5092163,0.265625,4.734375,-7.765625
741,1695773841647,-0.09350586,-1.0320435,0.651062,-5.09375,3.5,-8.828125
742,1695773841666,-0.30566406,-0.8977661,0.55340576,-12.296875,-11.71875,-4.109375
743,1695773841706,-0.6323242,-1.2561646,0.39398193,-7.328125,-22.0625,-14.546875
744,1695773841745,-0.46972656,-1.0889282,0.26483154,6.484375,-1.0625,-20.3125
745,1695773841785,-0.17871094,-1.0054321,0.19647217,11.984375,33.328125,-5.296875
746,1695773841826,-0.00048828125,-0.92022705,0.16204834,0.859375,19.640625,13.421875
747,1695773841865,-0.24780273,-0.9776001,0.26727295,5.046875,-10.453125,21.546875
748,1695773841906,-0.61621094,-1.125061,0.38079834,-9.890625,-14.8125,4.40625
749,1695773841945,-0.46118164,-0.94415283,0.3607788,0.734375,20.859375,-15.015625
750,1695773841985,-0.17089844,-0.7554321,0.2177124,6.359375,24.6875,8.234375
751,1695773842025,-0.09057617,-0.62091064,0.19622803,14.546875,5.125,27.703125
752,1695773842066,-0.26367188,-0.7173462,0.2843628,2.75,-20.015625,19.6875
753,1695773842105,-0.41333008,-0.7661743,0.33636475,4.9375,-1.359375,5.78125
754,1695773842145,-0.24975586,-0.85821533,0.35882568,9.96875,0.140625,4.828125
755,1695773842186,-0.24511719,-0.9343872,0.35736084,2.265625,-8.5625,5.203125
756,1695773842225,-0.34350586,-0.96881104,0.3776245,-10.6875,-23.390625,15.109375
757,1695773842268,-0.34423828,-1.0261841,0.49871826,-9.40625,-9.703125,12.875
758,1695773842305,-0.3251953,-1.1455688,0.4274292,-13.15625,-14.703125,10.1875
759,1695773842345,-0.29516602,-1.2212524,0.36175537,-8.171875,-11.640625,2.109375
760,1695773842384,-0.05859375,-1.0789185,0.22259521,1.046875,-8.875,1.796875
761,1695773842425,0.044921875,-0.9849243,0.24847412,0.15625,0.53125,-3.140625
762,1695773842465,0.05493164,-1.1438599,0.32196045,-7.734375,-10.421875,-5.171875
763,1695773842505,-0.24829102,-1.0171509,0.30291748,-6.890625,-12.78125,-2.078125
764,1695773842544,-0.1862793,-0.8933716,0.385437,-2.265625,13.453125,-12.453125
765,1695773842585,-0.16625977,-0.88238525,0.3829956,-12.5,0.28125,-13.640625
766,1695773842625,-0.23364258,-0.7095337,0.3024292,-0.953125,-3.65625,-9.65625
767,1695773842665,-0.111572266,-0.66851807,0.3163452,9.5,2.1875,-4.515625
768,1695773842705,-0.08251953,-0.78790283,0.4154663,9.71875,3.34375,-0.34375
769,1695773842745,-0.20043945,-0.8760376,0.46697998,1.78125,0.515625,0.4375
770,1695773842785,-0.28833008,-0.7334595,0.434021,-4.078125,-5.984375,-5.875
771,1695773842825,-0.33789062,-0.7371216,0.4393921,-3.234375,4.078125,-8.5
772,1695773842866,-0.23730469,-0.95513916,0.4328003,-0.265625,-1.109375,-14.9375
773,1695773842885,-0.14672852,-1.0967407,0.6754761,-1.15625,-5.625,-18.96875
774,1695773842926,-0.4309082,-1.1367798,0.52996826,-3.390625,-3.390625,-14.5
775,1695773842965,-0.5563965,-1.1594849,0.34881592,-2.515625,-15.734375,-14.828125
776,1695773843005,-0.41992188,-1.0130005,0.25238037,-1.796875,6.234375,-24.78125
777,1695773843045,-0.12890625,-0.909729,0.22918701,16.5625,40.703125,-6.65625
778,1695773843085,-0.13354492,-1.0098267,0.16082764,-4.53125,4.140625,15.96875
779,1695773843125,-0.38085938,-1.0735474,0.25823975,8.140625,-9.40625,17.484375
780,1695773843165,-0.5305176,-0.98516846,0.44110107,9.03125,8.703125,-2.65625
781,1695773843206,-0.33569336,-0.8948364,0.28240967,10.8125,21.3125,-11.4375
782,1695773843245,-0.23120117,-0.64971924,0.19329834,1.578125,15.21875,12.9375
783,1695773843285,-0.23779297,-0.59210205,0.21624756,14.96875,-1.03125,21.34375
784,1695773843325,-0.45874023,-0.8284302,0.35003662,0.359375,-13.453125,8.546875
785,1695773843365,-0.3527832,-0.80181885,0.38323975,4.96875,13.046875,-2.375
786,1695773843405,-0.1303711,-0.9151001,0.25946045,2.5625,0.75,2.34375
787,1695773843445,-0.2319336,-0.92144775,0.35809326,-3.96875,-24.84375,16.21875
788,1695773843485,-0.4091797,-0.92315674,0.33392334,-9.078125,-25.40625,16.234375
789,1695773843525,-0.45214844,-0.960022,0.47650146,-9.640625,-6.828125,14.65625
790,1695773843565,-0.36035156,-1.1965942,0.4537964,-15.625,-10.59375,18.453125
791,1695773843606,-0.38305664,-1.2525024,0.29901123,-19.5,-20.015625,10.421875
792,1695773843646,-0.18823242,-1.0828247,0.24212646,-4.25,-7.265625,0.140625
793,1695773843684,-0.03881836,-0.9312134,0.28997803,1.421875,16.953125,-4.078125
794,1695773843725,-0.0073242188,-1.086731,0.3065796,-9.28125,-4.5625,-3.203125
795,1695773843767,-0.2644043,-1.015686,0.29852295,4.125,-0.890625,-4.765625
796,1695773843805,-0.26831055,-0.86383057,0.4142456,5.90625,29.546875,-19.609375
797,1695773843845,-0.15405273,-0.90875244,0.31756592,-16.921875,1.3125,-17.921875
798,1695773843885,-0.25048828,-0.71466064,0.34344482,-5.171875,-2.65625,-10.40625
799,1695773843925,-0.18237305,-0.69000244,0.33563232,10.59375,7.484375,-6.828125
800,1695773843965,-0.15332031,-0.7402954,0.38226318,9.84375,7.078125,-3.015625
801,1695773844004,-0.19946289,-0.8726196,0.49261475,-1.609375,4.5625,-4.828125
802,1695773844045,-0.21069336,-0.7612915,0.4130249,-4.21875,-2.46875,-2.734375
803,1695773844084,-0.25195312,-0.77789307,0.42181396,1.171875,8.15625,4.78125
804,1695773844104,-0.2133789,-0.9714966,0.5297241,3.390625,-5.84375,1.03125
805,1695773844144,-0.16772461,-1.1277466,0.6481323,0.96875,-3.625,-14.5625
806,1695773844184,-0.5366211,-1.022522,0.49163818,-4.90625,-15.3125,-16.8125
807,1695773844224,-0.5463867,-1.2371216,0.37664795,-12.0,-17.875,-22.28125
808,1695773844265,-0.4572754,-1.062561,0.33953857,4.71875,11.328125,-21.984375
809,1695773844305,-0.17163086,-0.944397,0.11859131,10.078125,44.65625,-11.859375
810,1695773844345,-0.083496094,-0.8855591,0.12664795,-0.234375,21.40625,14.0
811,1695773844384,-0.25878906,-0.95758057,0.27508545,20.359375,-6.078125,17.78125
812,1695773844426,-0.49658203,-1.0288696,0.37078857,14.53125,-9.703125,-0.484375
813,1695773844469,-0.4440918,-0.87994385,0.34588623,-4.640625,8.546875,-12.234375
814,1695773844507,-0.16821289,-0.7271118,0.18084717,8.84375,15.234375,14.71875
815,1695773844548,-0.22705078,-0.69122314,0.21746826,24.328125,-3.84375,26.6875
816,1695773844588,-0.42822266,-0.7515259,0.3439331,2.6875,-19.21875,14.296875
817,1695773844626,-0.3618164,-0.769104,0.27191162,1.046875,0.453125,0.65625
818,1695773844668,-0.20214844,-0.8989868,0.3336792,0.765625,-1.9375,3.609375
819,1695773844709,-0.27978516,-0.928772,0.37860107,-0.84375,-18.171875,14.421875
820,1695773844747,-0.47583008,-0.9258423,0.34222412,-4.890625,-22.25,22.21875
821,1695773844787,-0.4958496,-1.0098267,0.47869873,-13.40625,-3.59375,9.6875
822,1695773844827,-0.36108398,-1.1519165,0.5289917,-24.03125,-10.453125,10.546875
823,1695773844866,-0.13500977,-1.3164673,0.33148193,-9.421875,-3.84375,10.515625
824,1695773844908,-0.022216797,-1.0679321,0.10101318,-0.09375,-14.484375,11.296875
825,1695773844950,-0.029052734,-0.96221924,0.26922607,2.046875,-17.453125,4.03125
826,1695773844987,-0.10522461,-1.0950317,0.27069092,-12.3125,-12.640625,-7.21875
827,1695773845026,-0.30566406,-1.0012817,0.31195068,-1.421875,1.5625,-4.28125
828,1695773845067,-0.2331543,-0.8726196,0.33538818,3.328125,29.78125,-15.9375
829,1695773845124,-0.21899414,-0.87823486,0.29437256,-16.640625,-1.140625,-19.65625
830,1695773845147,-0.22583008,-0.6670532,0.29022217,-0.5,1.0,-11.546875
831,1695773845186,-0.107666016,-0.6543579,0.23944092,17.6875,11.8125,-4.609375
832,1695773845226,-0.08862305,-0.8049927,0.4274292,14.421875,10.0,-1.875
833,1695773845267,-0.1550293,-0.9697876,0.50653076,1.234375,5.125,-1.75
834,1695773845307,-0.32226562,-0.76690674,0.36151123,-7.296875,-5.625,-9.4375
835,1695773845327,-0.41577148,-0.7803345,0.37054443,-12.078125,-8.4375,-13.0
836,1695773845368,-0.20581055,-0.93585205,0.46551514,11.734375,10.8125,-22.265625
837,1695773845407,-0.09765625,-1.2339478,0.70062256,-2.546875,-6.875,-13.515625
838,1695773845448,-0.49023438,-1.131897,0.40203857,-9.4375,0.203125,-4.203125
839,1695773845488,-0.6569824,-1.1199341,0.09857178,-15.3125,-18.203125,-19.359375
840,1695773845528,-0.46118164,-0.9668579,0.1918335,-0.90625,15.203125,-28.203125
841,1695773845566,-0.08154297,-1.1675415,0.26312256,13.390625,32.8125,0.078125
842,1695773845607,-0.2631836,-0.9697876,0.25482178,23.140625,17.75,24.265625
843,1695773845646,-0.4897461,-1.0044556,0.2518921,3.15625,-4.265625,15.578125
844,1695773845689,-0.6413574,-0.81329346,0.28656006,-1.90625,17.140625,-21.328125
845,1695773845729,-0.31420898,-0.7346802,0.24285889,-0.5,12.609375,-6.484375
846,1695773845768,-0.13085938,-0.6970825,0.17303467,26.84375,25.71875,22.6875
847,1695773845809,-0.19482422,-0.7463989,0.32562256,21.34375,19.140625,31.359375
848,1695773845847,-0.47387695,-0.8023071,0.29510498,-1.34375,-3.640625,17.34375
849,1695773845886,-0.43920898,-0.7473755,0.2592163,-6.328125,2.859375,-4.203125
850,1695773845925,-0.28320312,-0.9133911,0.35638428,-9.71875,2.953125,-1.421875
851,1695773845967,-0.3635254,-0.99420166,0.37127686,-11.65625,-7.296875,17.609375
852,1695773846009,-0.40356445,-1.0071411,0.40008545,-18.53125,-9.0625,23.46875
853,1695773846050,-0.33032227,-1.1751099,0.5372925,-7.75,-5.84375,16.75
854,1695773846089,-0.31079102,-1.2688599,0.31292725,-17.484375,-9.0,5.96875
855,1695773846129,-0.09082031,-1.0691528,0.22991943,-5.09375,1.984375,0.15625
856,1695773846168,0.13623047,-0.958313,0.26898193,3.265625,10.390625,1.125
857,1695773846209,-0.048828125,-1.0195923,0.3378296,-8.671875,-22.921875,3.390625
858,1695773846247,-0.34692383,-0.9771118,0.34173584,2.40625,4.4375,-7.765625
859,1695773846287,-0.22045898,-0.9024048,0.38397217,7.625,32.734375,-18.15625
860,1695773846330,-0.022460938,-0.93756104,0.36419678,-4.796875,11.734375,-12.921875
861,1695773846369,-0.15478516,-0.73809814,0.3295288,-9.546875,-4.53125,-8.046875
862,1695773846406,-0.24584961,-0.6182251,0.31829834,9.84375,-3.609375,-3.265625
863,1695773846447,-0.18334961,-0.74591064,0.40203857,8.046875,9.046875,-10.28125
864,1695773846488,-0.1472168,-0.89068604,0.4821167,4.109375,7.703125,-8.96875
865,1695773846528,-0.17919922,-0.80426025,0.434021,-1.6875,5.53125,-6.3125
866,1695773846547,-0.24291992,-0.74176025,0.3600464,1.75,11.421875,-1.53125
867,1695773846587,-0.1850586,-0.91192627,0.48968506,2.65625,-12.421875,-2.984375
868,1695773846629,-0.099609375,-1.1428833,0.75946045,-3.546875,-7.75,-15.9375
869,1695773846668,-0.5349121,-1.0862427,0.45672607,-10.125,-27.8125,-11.9375
870,1695773846708,-0.58984375,-1.1157837,0.29632568,0.484375,-15.59375,-22.46875
871,1695773846749,-0.45117188,-1.0840454,0.24456787,3.296875,5.53125,-25.875
872,1695773846788,-0.12670898,-1.1287231,0.184021,7.703125,39.1875,-15.890625
873,1695773846828,-0.011230469,-1.0835571,0.24359131,4.65625,17.90625,14.921875
874,1695773846866,-0.15698242,-1.0357056,0.26605225,12.90625,-7.671875,23.46875
875,1695773846908,-0.5090332,-1.0022583,0.3451538,-0.703125,-15.0,10.703125
876,1695773846950,-0.43969727,-0.8218384,0.32147217,-2.171875,11.125,-8.703125
877,1695773846990,-0.088134766,-0.65997314,0.20013428,6.671875,9.078125,18.328125
878,1695773847029,-0.0793457,-0.72198486,0.21453857,17.515625,-2.390625,28.96875
879,1695773847069,-0.38354492,-0.861145,0.40325928,-0.640625,-23.125,19.71875
880,1695773847112,-0.3305664,-0.7744751,0.3390503,-4.203125,-5.484375,5.859375
881,1695773847147,-0.2097168,-0.8362427,0.3217163,-3.734375,-6.359375,3.59375
882,1695773847189,-0.2854004,-0.9241333,0.34881592,-6.125,-16.765625,11.953125
883,1695773847229,-0.37060547,-0.9558716,0.34661865,-11.984375,-20.640625,17.765625
884,1695773847267,-0.51342773,-0.9273071,0.51605225,-14.4375,-5.1875,6.40625
885,1695773847307,-0.38378906,-1.2180786,0.45941162,-21.375,-2.5625,-6.953125
886,1695773847349,-0.08496094,-1.3413696,0.45477295,-16.65625,-4.21875,-3.078125
887,1695773847386,0.009033203,-1.0637817,0.26776123,-0.40625,-7.4375,4.28125
888,1695773847427,0.028320312,-0.8753052,0.25213623,-4.578125,-6.453125,2.96875
889,1695773847466,-0.11035156,-0.9717407,0.3258667,-4.15625,-12.796875,-1.875
890,1695773847507,-0.091308594,-1.0315552,0.2958374,11.515625,-6.40625,-0.109375
891,1695773847546,-0.24145508,-0.913147,0.4335327,-0.53125,6.4375,-12.03125
892,1695773847591,-0.27075195,-0.88165283,0.35028076,-10.59375,6.796875,-23.71875
893,1695773847627,-0.15136719,-0.66192627,0.33538818,3.421875,-1.46875,-16.359375
894,1695773847668,-0.059570312,-0.68536377,0.28948975,19.5,-4.234375,2.703125
895,1695773847708,-0.09741211,-0.81085205,0.45257568,7.546875,-3.1875,2.078125
896,1695773847748,-0.28271484,-0.88067627,0.539978,-15.046875,-9.875,-9.234375
897,1695773847782,-0.38598633,-0.7510376,0.39837646,-4.9375,-3.671875,-8.671875
898,1695773847808,-0.29418945,-0.81988525,0.41741943,-1.53125,-1.34375,-10.796875
899,1695773847847,-0.14624023,-1.008606,0.6256714,4.546875,-1.03125,-13.90625
900,1695773847890,-0.28979492,-1.0964966,0.6454468,-2.09375,-0.546875,-10.75
901,1695773847929,-0.6135254,-1.1255493,0.40960693,-22.5625,-12.46875,-14.875
902,1695773847972,-0.63793945,-1.1350708,0.20965576,-5.8125,-9.734375,-22.3125
903,1695773848009,-0.25610352,-1.0747681,0.23504639,19.34375,37.015625,-20.21875
904,1695773848047,-0.017822266,-1.0584106,0.15301514,4.828125,24.359375,15.109375
905,1695773848088,-0.2331543,-0.8604126,0.2699585,21.46875,-0.359375,27.203125
906,1695773848130,-0.46118164,-0.98809814,0.3060913,-1.71875,-19.71875,7.609375
907,1695773848169,-0.6047363,-0.8374634,0.3456421,-6.71875,8.46875,-19.703125
908,1695773848211,-0.22509766,-0.73565674,0.2164917,3.125,11.4375,1.75
909,1695773848244,-0.14477539,-0.71295166,0.21331787,12.484375,6.671875,27.765625
