,timestamp,accel_x,accel_y,accel_z,gyro_x,gyro_y,gyro_z,ind
0,1695773429827,-0.14257812,-0.94976807,0.3427124,-1.171875,-0.65625,0.421875,0
1,1695773429867,-0.17089844,-0.9644165,0.34051514,-1.796875,-0.28125,0.4375,1
2,1695773429907,-0.16357422,-0.94366455,0.32684326,-1.953125,-0.84375,0.328125,2
3,1695773429947,-0.16894531,-0.9446411,0.3348999,-2.671875,-1.34375,-2.28125,3
4,1695773429987,-0.1796875,-0.9507446,0.35028076,-0.625,-1.203125,-1.421875,4
5,1695773430027,-0.16674805,-0.9570923,0.33636475,-3.3125,-0.4375,-0.796875,5
6,1695773430067,-0.16967773,-0.9536743,0.32977295,-0.484375,0.34375,0.609375,6
7,1695773430107,-0.17797852,-0.95635986,0.33880615,-0.90625,-0.25,0.40625,7
8,1695773430147,-0.17504883,-0.9483032,0.338562,-1.796875,-0.671875,-1.8125,8
9,1695773430187,-0.17236328,-0.9612427,0.34417725,-3.09375,0.1875,-1.6875,9
10,1695773430227,-0.18188477,-0.95806885,0.3451538,-1.546875,-0.703125,-0.890625,10
11,1695773430267,-0.19018555,-0.94244385,0.34954834,-1.84375,1.109375,-0.6875,11
12,1695773430307,-0.18261719,-0.9475708,0.34906006,-3.0,-0.78125,-0.515625,12
13,1695773430347,-0.17211914,-0.9505005,0.35687256,-3.84375,-0.53125,-0.6875,13
14,1695773430387,-0.17602539,-0.9475708,0.3619995,-1.625,-0.921875,-0.09375,14
15,1695773430427,-0.16552734,-0.9507446,0.37322998,-0.296875,-1.53125,0.71875,15
16,1695773430467,-0.19580078,-0.9451294,0.35101318,-2.171875,-0.953125,1.109375,16
17,1695773430507,-0.2084961,-0.9168091,0.38031006,-2.84375,-0.09375,-0.171875,17
18,1695773430547,-0.19042969,-0.94732666,0.35882568,-2.875,0.3125,-1.125,18
19,1695773430587,-0.17895508,-0.94488525,0.37542725,-3.046875,1.0625,-1.25,19
20,1695773430627,-0.1665039,-0.9451294,0.3583374,-1.640625,1.40625,-1.03125,20
21,1695773430667,-0.1694336,-0.9417114,0.3768921,-0.578125,0.40625,-0.578125,21
22,1695773430707,-0.19165039,-0.9273071,0.36663818,-2.515625,-1.0625,-2.171875,22
23,1695773430747,-0.19140625,-0.9483032,0.37078857,-1.40625,0.09375,-1.296875,23
24,1695773430787,-0.18139648,-0.93756104,0.37054443,-1.859375,-0.03125,-0.546875,24
25,1695773430827,-0.18041992,-0.94195557,0.36273193,-1.828125,-0.265625,-1.015625,25
26,1695773430867,-0.17529297,-0.9368286,0.36468506,-0.234375,0.796875,-0.984375,26
27,1695773430907,-0.17529297,-0.94000244,0.36761475,-0.75,-0.640625,-0.984375,27
28,1695773430947,-0.18432617,-0.9524536,0.3727417,-0.640625,-0.703125,0.03125,28
29,1695773430987,-0.18798828,-0.93829346,0.38641357,-0.703125,-0.09375,0.71875,29
30,1695773431027,-0.18579102,-0.94488525,0.3793335,-0.921875,-0.734375,0.0625,30
31,1695773431067,-0.19750977,-0.92071533,0.3788452,-1.875,-1.546875,-0.90625,31
32,1695773431107,-0.19702148,-0.942688,0.38934326,-1.578125,-0.890625,-1.046875,32
33,1695773431147,-0.18383789,-0.9475708,0.36810303,-0.046875,-0.8125,0.421875,33
34,1695773431187,-0.17382812,-0.9404907,0.3637085,-1.109375,-1.09375,0.578125,34
35,1695773431227,-0.18798828,-0.94317627,0.3847046,-0.171875,0.140625,0.8125,35
36,1695773431267,-0.19921875,-0.93292236,0.3842163,0.765625,-0.140625,0.75,36
37,1695773431307,-0.1940918,-0.9378052,0.3764038,-0.8125,-0.515625,-1.34375,37
38,1695773431347,-0.18823242,-0.93585205,0.38153076,-1.265625,-0.625,-0.9375,38
39,1695773431387,-0.1965332,-0.94122314,0.38275146,-2.0,-0.515625,0.046875,39
40,1695773431427,-0.18115234,-0.92974854,0.36834717,-0.203125,-0.09375,-0.25,40
41,1695773431467,-0.18847656,-0.9351196,0.38201904,0.09375,-0.546875,0.671875,41
42,1695773431507,-0.17871094,-0.9480591,0.36883545,-1.1875,-2.15625,-0.453125,42
43,1695773431547,-0.21069336,-0.92144775,0.37835693,-2.34375,-0.28125,-0.546875,43
44,1695773431587,-0.19311523,-0.94244385,0.38079834,0.078125,-0.390625,-0.921875,44
45,1695773431627,-0.19213867,-0.9307251,0.37957764,-2.03125,-0.796875,-1.203125,45
46,1695773431667,-0.17797852,-0.9368286,0.37445068,-0.6875,0.09375,0.125,46
47,1695773431707,-0.18359375,-0.9573364,0.38079834,-0.15625,-1.8125,0.65625,47
48,1695773431747,-0.19702148,-0.9302368,0.37713623,-0.6875,0.15625,0.0,48
49,1695773431787,-0.19897461,-0.9336548,0.355896,-1.765625,0.21875,-1.34375,49
50,1695773431827,-0.18847656,-0.942688,0.38079834,0.15625,0.96875,-0.203125,50
51,1695773431867,-0.18554688,-0.9470825,0.36956787,-0.53125,0.125,0.140625,51
52,1695773431907,-0.18408203,-0.9385376,0.3624878,-1.21875,0.40625,-0.71875,52
53,1695773431947,-0.18725586,-0.9417114,0.37078857,0.578125,1.40625,-0.140625,53
54,1695773431987,-0.19799805,-0.92852783,0.37664795,-0.5,0.421875,-0.515625,54
55,1695773432027,-0.19213867,-0.9414673,0.37860107,-1.8125,1.015625,-1.890625,55
56,1695773432067,-0.16870117,-0.9492798,0.36712646,0.5625,1.421875,-0.4375,56
57,1695773432107,-0.19628906,-0.9241333,0.369812,-2.578125,-0.140625,-0.140625,57
58,1695773432147,-0.19433594,-0.94073486,0.37713623,-1.046875,1.140625,-1.46875,58
59,1695773432187,-0.19726562,-0.9373169,0.38763428,-1.4375,0.03125,-0.703125,59
60,1695773432227,-0.1965332,-0.92926025,0.37054443,-2.328125,0.953125,-1.203125,60
61,1695773432267,-0.18139648,-0.9378052,0.38079834,-0.703125,0.328125,-0.890625,61
62,1695773432307,-0.18066406,-0.93756104,0.37786865,-1.453125,-1.0625,-0.453125,62
63,1695773432347,-0.19335938,-0.9351196,0.38250732,-1.5625,-0.90625,-0.046875,63
64,1695773432387,-0.1899414,-0.9390259,0.38616943,-0.84375,0.4375,-0.015625,64
65,1695773432427,-0.19262695,-0.9314575,0.38323975,-1.3125,-0.75,-0.65625,65
66,1695773432467,-0.19238281,-0.93096924,0.38446045,-1.5,-1.125,-0.328125,66
67,1695773432507,-0.19311523,-0.9417114,0.38861084,-1.375,-1.015625,1.015625,67
68,1695773432547,-0.1965332,-0.9319458,0.37738037,-1.625,-0.5,0.03125,68
69,1695773432587,-0.19580078,-0.94781494,0.3834839,-0.625,-0.203125,-0.46875,69
70,1695773432627,-0.1965332,-0.92437744,0.3944702,-1.78125,0.265625,-0.203125,70
71,1695773432667,-0.18798828,-0.93707275,0.37249756,-2.125,-1.03125,-2.4375,71
72,1695773432707,-0.19873047,-0.9295044,0.39105225,-1.453125,-0.15625,-1.03125,72
73,1695773432747,-0.20654297,-0.93292236,0.38787842,-1.3125,0.1875,1.03125,73
74,1695773432787,-0.1953125,-0.9199829,0.39935303,-0.03125,0.171875,0.109375,74
75,1695773432827,-0.2121582,-0.9360962,0.39300537,-2.28125,0.015625,-0.8125,75
76,1695773432867,-0.20458984,-0.9260864,0.39398193,-0.125,0.53125,-0.078125,76
77,1695773432907,-0.18579102,-0.92633057,0.39154053,-1.40625,0.71875,-0.859375,77
78,1695773432947,-0.1875,-0.9356079,0.3961792,0.40625,-0.84375,-0.0625,78
79,1695773432987,-0.19970703,-0.93218994,0.39837646,0.03125,-0.328125,0.65625,79
80,1695773433027,-0.21142578,-0.91973877,0.38787842,0.046875,0.484375,0.515625,80
81,1695773433067,-0.19995117,-0.9282837,0.38690186,0.125,0.015625,-0.28125,81
82,1695773433107,-0.19726562,-0.92803955,0.3986206,0.21875,1.015625,-0.21875,82
83,1695773433147,-0.18798828,-0.94073486,0.3883667,-0.5,1.21875,-0.671875,83
84,1695773433187,-0.19677734,-0.928772,0.3912964,-0.703125,-0.84375,-0.578125,84
85,1695773433227,-0.19482422,-0.94659424,0.37860107,-1.5,0.015625,-1.84375,85
86,1695773433267,-0.19042969,-0.9524536,0.37908936,0.703125,0.3125,0.078125,86
87,1695773433307,-0.19311523,-0.91656494,0.38446045,-0.375,0.90625,0.328125,87
88,1695773433347,-0.20458984,-0.93341064,0.38909912,0.296875,1.78125,-0.703125,88
89,1695773433387,-0.21972656,-0.925354,0.39520264,1.046875,1.296875,1.375,89
90,1695773433427,-0.18774414,-0.93292236,0.37078857,-0.828125,1.859375,-2.359375,90
91,1695773433467,-0.19433594,-0.9446411,0.39569092,0.515625,0.046875,-1.65625,91
92,1695773433507,-0.19897461,-0.93585205,0.38494873,-0.265625,1.0,-0.375,92
93,1695773433547,-0.19921875,-0.93756104,0.3739624,-0.125,0.796875,-1.5625,93
94,1695773433587,-0.19970703,-0.9348755,0.37054443,-0.640625,-0.328125,-0.875,94
95,1695773433627,-0.19067383,-0.9439087,0.3829956,0.015625,1.40625,-0.234375,95
96,1695773433667,-0.20141602,-0.92315674,0.37200928,-1.046875,0.734375,-0.34375,96
97,1695773433707,-0.21118164,-0.9326782,0.38104248,-1.0,0.421875,-0.5625,97
98,1695773433747,-0.19873047,-0.9495239,0.3842163,-0.359375,2.46875,-0.109375,98
99,1695773433787,-0.17236328,-0.94854736,0.38616943,-6.390625,-5.78125,-0.171875,99
100,1695773433827,-0.20800781,-0.9175415,0.3932495,0.4375,-0.84375,-0.21875,100
101,1695773433867,-0.23291016,-0.9175415,0.3866577,2.21875,1.109375,1.671875,101
102,1695773433907,-0.2055664,-0.9138794,0.37420654,2.1875,2.859375,-1.28125,102
103,1695773433947,-0.19360352,-0.9500122,0.38494873,0.734375,0.46875,-2.5,103
104,1695773433987,-0.18261719,-0.9343872,0.37957764,-0.109375,0.671875,-1.625,104
105,1695773434027,-0.20532227,-0.9348755,0.3678589,0.46875,-0.125,-0.484375,105
106,1695773434067,-0.20751953,-0.9241333,0.3788452,1.40625,0.40625,0.234375,106
107,1695773434107,-0.20092773,-0.93170166,0.36395264,-0.75,-0.9375,-1.140625,107
108,1695773434147,-0.2055664,-0.95440674,0.36663818,-0.671875,0.515625,-1.09375,108
109,1695773434187,-0.20776367,-0.9224243,0.3751831,0.984375,1.3125,0.546875,109
110,1695773434227,-0.20703125,-0.9463501,0.37322998,-0.9375,0.734375,-0.265625,110
111,1695773434267,-0.20483398,-0.9295044,0.3817749,-1.171875,-0.1875,0.125,111
112,1695773434307,-0.19335938,-0.9483032,0.36346436,-0.890625,-0.203125,-0.75,112
113,1695773434347,-0.20019531,-0.94244385,0.3756714,-1.78125,-0.1875,-0.109375,113
114,1695773434387,-0.2043457,-0.9260864,0.37713623,-0.625,0.265625,-0.09375,114
115,1695773434427,-0.20410156,-0.93878174,0.3710327,-1.65625,0.1875,-1.4375,115
116,1695773434467,-0.21533203,-0.9299927,0.37982178,-1.515625,-0.015625,0.359375,116
117,1695773434507,-0.19873047,-0.9209595,0.37713623,-2.0625,1.0625,-0.53125,117
118,1695773434547,-0.20483398,-0.9480591,0.3781128,-2.046875,-0.484375,-0.5,118
119,1695773434587,-0.21435547,-0.92559814,0.3817749,-1.578125,0.328125,-0.21875,119
120,1695773434627,-0.18603516,-0.9495239,0.37591553,-2.53125,-0.03125,-1.5625,120
121,1695773434667,-0.20532227,-0.95269775,0.3932495,-0.234375,-0.34375,1.375,121
122,1695773434707,-0.20751953,-0.9006958,0.3685913,-2.796875,-0.203125,-0.46875,122
123,1695773434747,-0.21557617,-0.9483032,0.3847046,-1.5,0.328125,-1.875,123
124,1695773434787,-0.20800781,-0.9260864,0.39300537,-1.65625,0.03125,-0.53125,124
125,1695773434827,-0.19726562,-0.9319458,0.38494873,-2.03125,-0.78125,-0.28125,125
126,1695773434867,-0.2175293,-0.9378052,0.39691162,-1.25,-0.375,0.515625,126
127,1695773434907,-0.21264648,-0.92633057,0.3949585,-1.59375,0.65625,-0.578125,127
128,1695773434947,-0.21289062,-0.9260864,0.39007568,-2.015625,0.46875,-1.375,128
129,1695773434987,-0.20166016,-0.93414307,0.3937378,-2.09375,0.109375,-1.203125,129
130,1695773435027,-0.18920898,-0.9204712,0.3895874,-1.78125,0.328125,-1.28125,130
131,1695773435067,-0.21801758,-0.9326782,0.402771,-0.203125,-0.125,0.0625,131
132,1695773435107,-0.22045898,-0.928772,0.4039917,-1.375,-0.109375,-1.03125,132
133,1695773435147,-0.2241211,-0.9314575,0.40545654,-2.21875,-0.0625,-1.234375,133
134,1695773435187,-0.21386719,-0.9216919,0.39959717,-1.015625,0.515625,-0.1875,134
135,1695773435227,-0.21386719,-0.9390259,0.39837646,-0.90625,0.46875,0.265625,135
136,1695773435267,-0.19482422,-0.92559814,0.3883667,-1.515625,-0.109375,-0.875,136
137,1695773435307,-0.21191406,-0.92559814,0.4118042,-1.3125,-0.34375,-0.6875,137
138,1695773435347,-0.21777344,-0.92266846,0.40350342,-0.078125,-0.46875,0.1875,138
139,1695773435387,-0.20922852,-0.9248657,0.3883667,-0.96875,-0.640625,-1.234375,139
140,1695773435427,-0.21313477,-0.9373169,0.40374756,0.78125,0.234375,0.125,140
141,1695773435467,-0.20996094,-0.9155884,0.39422607,0.8125,0.8125,0.78125,141
142,1695773435507,-0.21386719,-0.92633057,0.39154053,-0.6875,-0.078125,-0.671875,142
143,1695773435547,-0.21972656,-0.92681885,0.40057373,0.71875,0.265625,-0.0625,143
144,1695773435587,-0.20703125,-0.92266846,0.39398193,-0.9375,0.5,-1.03125,144
145,1695773435627,-0.22045898,-0.92388916,0.39593506,-2.125,0.203125,-1.328125,145
146,1695773435667,-0.2163086,-0.9258423,0.40203857,0.140625,0.65625,-0.265625,146
147,1695773435707,-0.21875,-0.9216919,0.39642334,-0.984375,-0.140625,-0.640625,147
148,1695773435747,-0.2121582,-0.9360962,0.39422607,-0.125,0.796875,-0.46875,148
149,1695773435787,-0.21044922,-0.91778564,0.38616943,-0.359375,0.453125,-0.28125,149
150,1695773435827,-0.22143555,-0.9209595,0.4052124,0.5625,0.078125,-0.765625,150
151,1695773435867,-0.22387695,-0.9336548,0.39178467,-0.890625,-0.015625,-1.09375,151
152,1695773435907,-0.21362305,-0.925354,0.39276123,0.40625,0.359375,-0.546875,152
153,1695773435947,-0.20751953,-0.9312134,0.39178467,1.515625,0.90625,1.265625,153
154,1695773435987,-0.20922852,-0.90948486,0.38568115,0.65625,-0.59375,1.703125,154
155,1695773436027,-0.22436523,-0.94366455,0.37982178,0.09375,0.234375,-0.546875,155
156,1695773436067,-0.21948242,-0.91973877,0.38226318,-1.171875,0.59375,-0.3125,156
157,1695773436107,-0.20947266,-0.93756104,0.39691162,-0.09375,0.234375,-0.796875,157
158,1695773436147,-0.2211914,-0.9216919,0.39349365,0.03125,-0.625,-0.171875,158
159,1695773436187,-0.21655273,-0.9295044,0.39544678,0.203125,0.78125,0.203125,159
160,1695773436227,-0.21606445,-0.9348755,0.36810303,-1.390625,0.21875,-0.390625,160
161,1695773436267,-0.21166992,-0.9380493,0.40496826,-0.203125,1.03125,-0.515625,161
162,1695773436307,-0.21386719,-0.93536377,0.37982178,-0.515625,0.328125,-0.171875,162
163,1695773436347,-0.21508789,-0.9356079,0.37786865,-1.09375,0.78125,-0.234375,163
164,1695773436387,-0.20922852,-0.9248657,0.387146,-0.34375,0.375,0.90625,164
165,1695773436427,-0.20361328,-0.92803955,0.3834839,-0.125,-0.015625,-1.375,165
166,1695773436467,-0.21801758,-0.9446411,0.38763428,1.21875,0.9375,0.6875,166
167,1695773436507,-0.20898438,-0.91412354,0.38568115,0.484375,0.0,1.5,167
168,1695773436547,-0.21948242,-0.93463135,0.3710327,-0.6875,-0.75,-0.828125,168
169,1695773436587,-0.21875,-0.923645,0.3883667,0.1875,-0.171875,-0.265625,169
170,1695773436627,-0.2109375,-0.9463501,0.37835693,-0.0625,0.59375,0.328125,170
171,1695773436667,-0.20458984,-0.93463135,0.38153076,0.78125,1.03125,0.953125,171
172,1695773436707,-0.20532227,-0.9365845,0.38323975,0.296875,-0.90625,0.640625,172
173,1695773436747,-0.20800781,-0.91290283,0.3727417,1.046875,0.484375,-0.546875,173
174,1695773436787,-0.19604492,-0.9546509,0.37493896,0.578125,1.234375,-0.25,174
175,1695773436827,-0.20800781,-0.9133911,0.37054443,0.71875,-0.71875,1.484375,175
176,1695773436867,-0.19482422,-0.9612427,0.3690796,-0.9375,1.296875,0.140625,176
177,1695773436907,-0.20605469,-0.9209595,0.3739624,1.421875,-1.640625,1.125,177
178,1695773436947,-0.21240234,-0.93096924,0.37835693,-0.46875,1.40625,-0.0625,178
179,1695773436987,-0.21704102,-0.9380493,0.36688232,1.890625,0.875,1.375,179
180,1695773437027,-0.19189453,-0.93292236,0.3649292,-2.15625,-0.0625,-0.890625,180
181,1695773437067,-0.20581055,-0.96051025,0.371521,-1.609375,-0.1875,-0.078125,181
182,1695773437107,-0.19824219,-0.913147,0.35906982,-0.546875,-0.59375,-0.09375,182
183,1695773437147,-0.19580078,-0.9690552,0.3776245,-1.59375,-0.203125,0.875,183
184,1695773437187,-0.20874023,-0.9348755,0.3768921,-0.625,0.03125,1.4375,184
185,1695773437227,-0.18041992,-0.9380493,0.35882568,-1.484375,-0.890625,-1.078125,185
186,1695773437267,-0.20458984,-0.9439087,0.37420654,-2.21875,-0.734375,0.09375,186
187,1695773437307,-0.19726562,-0.91729736,0.36444092,1.609375,0.46875,0.203125,187
188,1695773437347,-0.20117188,-0.9414673,0.3649292,-2.078125,0.171875,-0.984375,188
189,1695773437387,-0.20629883,-0.94073486,0.38885498,0.3125,-0.609375,-0.65625,189
190,1695773437427,-0.21044922,-0.92266846,0.3764038,-1.515625,-0.34375,-2.078125,190
191,1695773437467,-0.19189453,-0.9385376,0.35809326,0.421875,0.78125,-2.09375,191
192,1695773437507,-0.1899414,-0.95928955,0.3768921,0.0,-0.046875,0.3125,192
193,1695773437547,-0.21728516,-0.93878174,0.37054443,-1.84375,-1.640625,-1.390625,193
194,1695773437587,-0.21142578,-0.95098877,0.37542725,-1.328125,-0.203125,-1.046875,194
195,1695773437627,-0.20874023,-0.923645,0.37322998,0.203125,0.859375,0.125,195
196,1695773437667,-0.20336914,-0.92388916,0.35931396,-1.4375,0.3125,-1.21875,196
197,1695773437707,-0.19140625,-0.9360962,0.37225342,-0.640625,-0.796875,-1.515625,197
198,1695773437747,-0.20898438,-0.9365845,0.38690186,0.859375,1.28125,0.703125,198
199,1695773437787,-0.21191406,-0.9385376,0.35321045,-0.90625,-0.390625,0.359375,199
200,1695773437827,-0.22753906,-0.93829346,0.37225342,-0.171875,-0.296875,-0.625,200
201,1695773437867,-0.19921875,-0.93707275,0.3685913,0.078125,0.921875,-0.65625,201
202,1695773437907,-0.20410156,-0.94073486,0.37176514,0.71875,0.59375,0.625,202
203,1695773437947,-0.20898438,-0.9343872,0.36566162,-0.96875,0.5,-1.609375,203
204,1695773437987,-0.21875,-0.9522095,0.36444092,-0.703125,0.421875,-2.0625,204
205,1695773438027,-0.21411133,-0.93414307,0.3685913,0.90625,1.359375,0.8125,205
206,1695773438067,-0.22290039,-0.9273071,0.3607788,-0.921875,0.859375,-0.09375,206
207,1695773438107,-0.21166992,-0.9390259,0.3632202,0.515625,0.96875,-0.015625,207
208,1695773438147,-0.20019531,-0.9368286,0.36297607,-0.625,1.53125,-0.765625,208
209,1695773438187,-0.21411133,-0.9385376,0.3583374,-2.375,0.34375,-1.515625,209
210,1695773438227,-0.21777344,-0.9404907,0.3751831,-0.265625,0.40625,-0.21875,210
211,1695773438267,-0.20458984,-0.940979,0.37078857,-1.640625,-0.15625,-0.75,211
212,1695773438307,-0.20947266,-0.9314575,0.3727417,-1.6875,-1.140625,-0.34375,212
213,1695773438347,-0.22021484,-0.9402466,0.36224365,-1.15625,-0.046875,0.46875,213
214,1695773438387,-0.23535156,-0.9265747,0.3710327,-0.265625,0.375,0.90625,214
215,1695773438427,-0.21606445,-0.93878174,0.37469482,0.15625,1.953125,-1.234375,215
216,1695773438467,-0.19262695,-0.93707275,0.3661499,-0.265625,0.828125,-1.453125,216
217,1695773438507,-0.20019531,-0.93829346,0.3534546,0.0,-0.484375,-1.5,217
218,1695773438547,-0.22021484,-0.9512329,0.36810303,-0.265625,-1.03125,-0.21875,218
219,1695773438587,-0.22216797,-0.93292236,0.36517334,0.140625,-0.296875,-0.515625,219
220,1695773438627,-0.23095703,-0.942688,0.36883545,-0.390625,1.140625,0.375,220
221,1695773438667,-0.22290039,-0.9295044,0.36688232,-1.109375,1.28125,0.515625,221
222,1695773438707,-0.20629883,-0.9402466,0.36029053,-0.109375,1.34375,-0.453125,222
223,1695773438747,-0.20019531,-0.95147705,0.36053467,-1.4375,1.34375,-0.03125,223
224,1695773438787,-0.19262695,-0.91656494,0.36932373,-0.9375,-0.4375,-0.28125,224
225,1695773438827,-0.2109375,-0.9397583,0.36346436,-2.375,-0.09375,-1.421875,225
226,1695773438867,-0.21582031,-0.9402466,0.3637085,-0.796875,-0.09375,0.265625,226
227,1695773438907,-0.21411133,-0.9338989,0.36883545,-4.046875,-3.1875,-0.984375,227
228,1695773438947,-0.2241211,-0.9368286,0.3793335,-1.203125,-0.484375,-0.0625,228
229,1695773438987,-0.2277832,-0.92193604,0.37371826,-0.484375,1.9375,0.53125,229
230,1695773439027,-0.21313477,-0.93341064,0.3678589,1.125,2.25,0.4375,230
231,1695773439067,-0.19311523,-0.9312134,0.37445068,-0.640625,1.109375,-1.828125,231
232,1695773439107,-0.20385742,-0.95196533,0.37835693,-1.75,-1.3125,-2.359375,232
233,1695773439147,-0.2290039,-0.9414673,0.38226318,0.109375,0.234375,1.0,233
234,1695773439187,-0.22290039,-0.9182739,0.3678589,0.015625,0.921875,1.1875,234
235,1695773439227,-0.2211914,-0.9365845,0.37371826,-1.375,0.28125,-1.296875,235
236,1695773439267,-0.21459961,-0.9360962,0.37908936,-1.28125,1.234375,-1.5625,236
237,1695773439307,-0.19116211,-0.9356079,0.37054443,-1.578125,0.015625,-1.546875,237
238,1695773439347,-0.21191406,-0.9365845,0.38275146,-0.84375,-1.359375,0.390625,238
239,1695773439387,-0.23999023,-0.9246216,0.371521,-0.65625,0.28125,0.796875,239
240,1695773439427,-0.22265625,-0.927063,0.37200928,0.46875,1.8125,-0.046875,240
241,1695773439467,-0.21484375,-0.9290161,0.38079834,-0.59375,1.21875,-1.375,241
242,1695773439507,-0.19946289,-0.93634033,0.37127686,-2.234375,0.125,-2.65625,242
243,1695773439547,-0.2133789,-0.92974854,0.37664795,-0.015625,-0.28125,-0.5,243
244,1695773439587,-0.22705078,-0.9324341,0.38006592,-0.53125,-0.40625,0.796875,244
245,1695773439627,-0.2290039,-0.9314575,0.3710327,-0.4375,1.28125,0.515625,245
246,1695773439667,-0.2211914,-0.93927,0.3793335,0.234375,1.640625,0.625,246
247,1695773439707,-0.20214844,-0.92681885,0.37908936,-0.265625,0.6875,-0.78125,247
248,1695773439747,-0.21484375,-0.93585205,0.3678589,-1.109375,0.265625,-1.640625,248
249,1695773439787,-0.21826172,-0.9314575,0.3727417,1.203125,0.578125,-0.09375,249
250,1695773439827,-0.21459961,-0.93170166,0.3690796,0.40625,0.578125,-0.203125,250
251,1695773439867,-0.22021484,-0.9258423,0.37469482,0.015625,-0.28125,-0.75,251
252,1695773439907,-0.21435547,-0.9380493,0.38323975,1.078125,0.390625,0.640625,252
253,1695773439947,-0.21289062,-0.9380493,0.35931396,-1.140625,-0.4375,-0.40625,253
254,1695773439987,-0.20898438,-0.93096924,0.3673706,0.46875,0.3125,0.53125,254
255,1695773440027,-0.21704102,-0.9348755,0.36761475,0.8125,0.234375,0.984375,255
256,1695773440067,-0.22875977,-0.93927,0.36932373,-0.03125,0.21875,1.078125,256
257,1695773440107,-0.21948242,-0.925354,0.35662842,-1.390625,0.5625,-1.6875,257
258,1695773440147,-0.1953125,-0.9492798,0.36468506,-0.828125,-0.171875,-2.46875,258
259,1695773440187,-0.2133789,-0.9487915,0.3756714,-0.1875,-0.84375,0.0,259
260,1695773440227,-0.21777344,-0.93634033,0.34954834,-1.34375,-1.0625,-0.609375,260
261,1695773440267,-0.234375,-0.9402466,0.36810303,0.5,-0.015625,0.75,261
262,1695773440307,-0.21923828,-0.9229126,0.3632202,0.625,0.5625,0.203125,262
263,1695773440347,-0.21508789,-0.9546509,0.371521,-0.671875,0.078125,-0.484375,263
264,1695773440387,-0.21850586,-0.93048096,0.35858154,-1.828125,-1.359375,-0.046875,264
265,1695773440427,-0.21508789,-0.9451294,0.36297607,1.09375,0.625,-0.6875,265
266,1695773440467,-0.21728516,-0.94415283,0.35125732,0.28125,0.03125,0.53125,266
267,1695773440507,-0.21508789,-0.9209595,0.3475952,0.9375,0.0625,-0.140625,267
268,1695773440547,-0.21484375,-0.9517212,0.36663818,2.8125,1.390625,0.359375,268
269,1695773440587,-0.22827148,-0.9290161,0.34539795,0.34375,1.0625,0.890625,269
270,1695773440627,-0.22827148,-0.9324341,0.35614014,2.703125,2.546875,-0.796875,270
271,1695773440667,-0.20629883,-0.9505005,0.3534546,1.21875,1.734375,0.765625,271
272,1695773440707,-0.20825195,-0.9351196,0.34051514,2.078125,1.515625,-0.453125,272
273,1695773440747,-0.19335938,-0.9680786,0.33636475,2.046875,2.71875,-0.140625,273
274,1695773440787,-0.2133789,-0.9336548,0.33709717,3.3125,3.234375,1.15625,274
275,1695773440827,-0.22192383,-0.94317627,0.33929443,2.671875,3.734375,0.171875,275
276,1695773440867,-0.20678711,-0.96051025,0.3258667,3.5625,3.359375,-0.3125,276
277,1695773440907,-0.20629883,-0.960022,0.3348999,3.53125,4.875,0.453125,277
278,1695773440947,-0.19042969,-0.95196533,0.31488037,1.9375,3.421875,0.65625,278
279,1695773440987,-0.19946289,-0.9590454,0.3156128,2.78125,1.5,0.25,279
280,1695773441027,-0.19750977,-0.95562744,0.3085327,1.40625,0.515625,0.265625,280
281,1695773441067,-0.19458008,-0.9512329,0.31732178,2.984375,2.03125,-0.1875,281
282,1695773441107,-0.20336914,-0.9595337,0.31463623,3.40625,0.5625,2.015625,282
283,1695773441147,-0.20751953,-0.9534302,0.29437256,0.859375,1.296875,0.578125,283
284,1695773441187,-0.19238281,-0.96759033,0.29656982,0.8125,0.46875,0.421875,284
285,1695773441227,-0.18652344,-0.96759033,0.29901123,-0.890625,-0.234375,-1.0,285
286,1695773441267,-0.18847656,-0.9595337,0.30633545,-0.015625,0.0,0.265625,286
287,1695773441307,-0.20654297,-0.9402466,0.29730225,1.0625,0.984375,0.890625,287
288,1695773441347,-0.18334961,-0.9429321,0.3048706,0.234375,0.46875,-0.578125,288
289,1695773441387,-0.18920898,-0.956604,0.29437256,-3.4375,-2.703125,-1.15625,289
290,1695773441427,-0.20532227,-0.96343994,0.29852295,-2.625,-0.8125,-1.234375,290
291,1695773441467,-0.17822266,-0.97076416,0.31732178,0.9375,1.5625,0.671875,291
292,1695773441507,-0.1928711,-0.9595337,0.29364014,-0.984375,-1.40625,0.5,292
293,1695773441547,-0.19213867,-0.95758057,0.29803467,0.421875,-1.140625,0.15625,293
294,1695773441587,-0.19702148,-0.95562744,0.3078003,-1.453125,-1.390625,0.703125,294
295,1695773441627,-0.18945312,-0.9651489,0.29779053,-1.015625,-0.546875,0.828125,295
296,1695773441667,-0.17797852,-0.9534302,0.28533936,-2.390625,-2.09375,-0.25,296
297,1695773441707,-0.19189453,-0.9690552,0.30584717,-1.765625,-0.84375,0.203125,297
298,1695773441747,-0.18652344,-0.9458618,0.3060913,-1.734375,-1.453125,0.359375,298
299,1695773441787,-0.19067383,-0.9644165,0.29510498,-1.578125,-1.859375,-0.125,299
300,1695773441827,-0.19970703,-0.9602661,0.30340576,-1.375,-0.4375,0.765625,300
301,1695773441867,-0.19848633,-0.9402466,0.2994995,-0.46875,-0.171875,0.125,301
302,1695773441907,-0.19042969,-0.9788208,0.31610107,-0.296875,0.96875,-0.15625,302
303,1695773441947,-0.18774414,-0.95196533,0.3007202,-0.765625,-0.421875,0.359375,303
304,1695773441987,-0.17626953,-0.95806885,0.29486084,-1.609375,-0.78125,-1.546875,304
305,1695773442027,-0.18408203,-0.95684814,0.3151245,-0.5625,0.625,-0.796875,305
306,1695773442067,-0.1965332,-0.95562744,0.30682373,0.28125,-0.046875,0.34375,306
307,1695773442107,-0.19702148,-0.9561157,0.30316162,-0.828125,-0.375,0.0625,307
308,1695773442147,-0.1887207,-0.95391846,0.30145264,-0.453125,0.3125,-0.984375,308
309,1695773442187,-0.1784668,-0.9487915,0.28582764,-1.5625,-1.046875,-0.46875,309
310,1695773442227,-0.18676758,-0.97003174,0.30096436,-0.234375,-0.53125,-0.796875,310
311,1695773442267,-0.18701172,-0.95196533,0.3085327,-1.46875,-0.90625,0.046875,311
312,1695773442307,-0.21142578,-0.95635986,0.2958374,-2.484375,-1.9375,-0.375,312
313,1695773442347,-0.1862793,-0.956604,0.3192749,-0.875,-0.265625,-0.046875,313
314,1695773442387,-0.18603516,-0.958313,0.291687,-4.1875,-1.78125,-1.90625,314
315,1695773442427,-0.20361328,-0.9570923,0.3139038,-1.578125,-1.78125,-0.4375,315
316,1695773442467,-0.19799805,-0.9517212,0.33465576,-0.9375,0.171875,-0.390625,316
317,1695773442507,-0.20263672,-0.9570923,0.29803467,-3.0625,-2.65625,-0.5,317
318,1695773442547,-0.20825195,-0.9451294,0.32806396,-0.71875,-0.703125,0.765625,318
319,1695773442587,-0.19995117,-0.9505005,0.31097412,-2.28125,0.28125,-0.71875,319
320,1695773442627,-0.20678711,-0.9483032,0.31536865,-2.65625,-0.46875,-0.953125,320
321,1695773442667,-0.19458008,-0.95928955,0.322937,-1.015625,1.65625,-0.96875,321
322,1695773442707,-0.1887207,-0.954895,0.309021,1.546875,1.890625,-0.3125,322
323,1695773442747,-0.2055664,-0.9585571,0.31781006,-0.203125,0.046875,0.796875,323
324,1695773442787,-0.21020508,-0.9439087,0.31951904,-0.28125,1.34375,-0.90625,324
325,1695773442827,-0.18725586,-0.9649048,0.32489014,0.796875,1.765625,0.421875,325
326,1695773442867,-0.18603516,-0.94366455,0.3036499,-1.953125,-0.078125,-0.375,326
327,1695773442907,-0.18701172,-0.9487915,0.31732178,-2.015625,0.21875,-0.640625,327
328,1695773442947,-0.19702148,-0.94976807,0.32269287,-1.578125,0.5,-0.703125,328
329,1695773442987,-0.20898438,-0.9656372,0.31951904,-2.1875,0.40625,0.65625,329
330,1695773443027,-0.20288086,-0.940979,0.3114624,-2.84375,0.71875,-1.609375,330
331,1695773443067,-0.19091797,-0.9663696,0.3270874,-1.296875,0.53125,-1.9375,331
332,1695773443107,-0.19726562,-0.93170166,0.33392334,-1.71875,-0.71875,-0.015625,332
333,1695773443147,-0.1953125,-0.9500122,0.31976318,-1.3125,-1.015625,-0.21875,333
334,1695773443187,-0.20898438,-0.9553833,0.3151245,-3.203125,-0.8125,-0.84375,334
335,1695773443227,-0.21875,-0.9307251,0.33026123,-1.859375,-0.125,0.78125,335
336,1695773443267,-0.18701172,-0.9522095,0.3283081,-2.5,0.71875,-2.265625,336
337,1695773443307,-0.19482422,-0.96173096,0.3348999,-1.03125,-0.015625,-0.640625,337
338,1695773443347,-0.21362305,-0.94537354,0.33587646,-1.515625,0.15625,1.4375,338
339,1695773443387,-0.20654297,-0.9365845,0.32489014,-1.953125,0.5625,-0.796875,339
340,1695773443427,-0.20776367,-0.9385376,0.34344482,-0.875,0.6875,-1.21875,340
341,1695773443467,-0.20092773,-0.9456177,0.3390503,-2.25,-0.953125,-0.9375,341
342,1695773443507,-0.20092773,-0.9404907,0.3427124,-1.265625,0.578125,-1.15625,342
343,1695773443547,-0.20117188,-0.95391846,0.3439331,-0.90625,-1.03125,-0.421875,343
344,1695773443587,-0.22094727,-0.9385376,0.34344482,-1.78125,-0.546875,0.234375,344
345,1695773443627,-0.21166992,-0.9390259,0.3319702,-1.28125,0.875,-0.921875,345
346,1695773443667,-0.1953125,-0.9680786,0.34490967,-1.578125,0.359375,-1.75,346
347,1695773443707,-0.20483398,-0.9260864,0.3475952,-1.03125,-0.015625,-0.15625,347
348,1695773443747,-0.19848633,-0.9500122,0.338562,-0.46875,0.25,-0.71875,348
349,1695773443787,-0.21972656,-0.9434204,0.3463745,-1.359375,-0.34375,-0.796875,349
350,1695773443827,-0.21923828,-0.93927,0.340271,-3.078125,0.203125,-1.0,350
351,1695773443867,-0.20532227,-0.9480591,0.35662842,-0.828125,0.703125,-0.53125,351
352,1695773443907,-0.20922852,-0.9365845,0.35076904,-0.421875,0.890625,0.46875,352
353,1695773443947,-0.20776367,-0.9338989,0.34588623,-1.390625,0.8125,-0.984375,353
354,1695773443987,-0.21240234,-0.9378052,0.3529663,-1.03125,0.109375,-0.78125,354
355,1695773444027,-0.2109375,-0.9470825,0.36419678,0.671875,0.515625,0.3125,355
356,1695773444067,-0.2006836,-0.9421997,0.34613037,-2.28125,0.125,-0.328125,356
357,1695773444107,-0.21557617,-0.9446411,0.3607788,-0.015625,1.046875,0.375,357
358,1695773444147,-0.20629883,-0.9368286,0.34783936,-0.171875,-0.28125,-0.203125,358
359,1695773444187,-0.20751953,-0.95025635,0.34954834,-1.734375,-0.359375,-1.125,359
360,1695773444227,-0.2084961,-0.93048096,0.35565186,-0.03125,0.609375,0.734375,360
361,1695773444267,-0.21972656,-0.93756104,0.35003662,-1.34375,0.703125,0.875,361
362,1695773444307,-0.20678711,-0.92926025,0.3571167,-1.421875,-0.234375,-0.765625,362
363,1695773444347,-0.22045898,-0.9475708,0.36224365,-0.625,0.6875,-1.359375,363
364,1695773444387,-0.20117188,-0.9458618,0.35809326,-1.296875,0.6875,-0.546875,364
365,1695773444427,-0.2109375,-0.9331665,0.3427124,-1.4375,0.28125,-0.078125,365
366,1695773444467,-0.22167969,-0.9360962,0.36346436,-0.734375,0.78125,-0.46875,366
367,1695773444507,-0.21508789,-0.93170166,0.3571167,-1.9375,0.671875,-1.8125,367
368,1695773444547,-0.21948242,-0.9429321,0.3685913,-2.03125,0.875,-1.21875,368
369,1695773444587,-0.20874023,-0.92755127,0.36053467,-1.4375,0.78125,-0.625,369
370,1695773444627,-0.20874023,-0.9348755,0.3756714,0.25,0.546875,-0.59375,370
371,1695773444667,-0.21801758,-0.942688,0.3632202,-0.875,0.0,0.296875,371
372,1695773444707,-0.2265625,-0.92681885,0.36590576,-0.65625,0.46875,-0.453125,372
373,1695773444747,-0.2121582,-0.93048096,0.3661499,-1.53125,0.796875,-2.0625,373
374,1695773444787,-0.21313477,-0.9451294,0.36956787,-0.484375,0.203125,-0.078125,374
375,1695773444827,-0.21728516,-0.92852783,0.35565186,0.609375,1.5625,0.109375,375
376,1695773444867,-0.21069336,-0.94415283,0.35125732,-0.765625,0.65625,-1.078125,376
377,1695773444907,-0.2199707,-0.9378052,0.3612671,0.28125,0.390625,-0.078125,377
378,1695773444947,-0.22021484,-0.9290161,0.3554077,-0.078125,1.375,-0.875,378
379,1695773444987,-0.20263672,-0.9468384,0.34417725,-0.65625,-0.171875,-1.640625,379
380,1695773445027,-0.21801758,-0.9343872,0.35443115,-1.625,-0.53125,-0.921875,380
381,1695773445067,-0.24023438,-0.92803955,0.36517334,-0.875,0.671875,1.25,381
382,1695773445107,-0.22827148,-0.9319458,0.36175537,-0.8125,0.859375,-0.59375,382
383,1695773445147,-0.21362305,-0.9446411,0.3673706,-0.265625,1.078125,-1.796875,383
384,1695773445187,-0.21044922,-0.94976807,0.354187,-0.78125,0.28125,-0.984375,384
385,1695773445227,-0.2175293,-0.9331665,0.3554077,-0.828125,-0.234375,0.96875,385
386,1695773445267,-0.21801758,-0.92071533,0.36151123,-0.65625,0.4375,-0.21875,386
387,1695773445307,-0.2175293,-0.93756104,0.35272217,-0.5625,1.375,-1.40625,387
388,1695773445347,-0.22070312,-0.9512329,0.36639404,0.78125,0.734375,1.09375,388
389,1695773445387,-0.21386719,-0.9246216,0.35369873,-1.90625,0.359375,0.125,389
390,1695773445427,-0.2175293,-0.9326782,0.34857178,-0.734375,-0.390625,-1.90625,390
391,1695773445467,-0.20629883,-0.94732666,0.37445068,0.375,-0.125,-0.0625,391
392,1695773445507,-0.22509766,-0.92144775,0.36590576,-1.078125,-0.78125,0.1875,392
393,1695773445547,-0.23388672,-0.94317627,0.36590576,0.046875,-0.09375,-0.703125,393
394,1695773445587,-0.21923828,-0.91851807,0.35565186,0.125,0.5,-0.984375,394
395,1695773445627,-0.20727539,-0.94000244,0.3571167,-0.703125,-0.28125,-1.6875,395
396,1695773445667,-0.22094727,-0.9338989,0.35662842,-0.9375,-1.53125,-0.171875,396
397,1695773445707,-0.2434082,-0.9331665,0.36346436,-0.046875,-0.03125,-0.03125,397
398,1695773445747,-0.23754883,-0.94488525,0.35638428,-0.703125,-0.015625,-0.75,398
399,1695773445787,-0.2241211,-0.94122314,0.36663818,-0.84375,0.15625,-0.234375,399
400,1695773445827,-0.22192383,-0.928772,0.36590576,-1.234375,1.125,-0.265625,400
401,1695773445867,-0.22045898,-0.9351196,0.36297607,0.625,0.234375,0.671875,401
402,1695773445907,-0.22021484,-0.9368286,0.36175537,-1.6875,0.078125,-0.75,402
403,1695773445947,-0.22827148,-0.9390259,0.35736084,-0.875,0.046875,-0.984375,403
404,1695773445987,-0.21899414,-0.9404907,0.36468506,-0.078125,0.71875,-0.109375,404
405,1695773446027,-0.22680664,-0.9365845,0.35980225,-0.75,-0.15625,0.078125,405
406,1695773446067,-0.234375,-0.93756104,0.35516357,-0.859375,0.609375,0.171875,406
407,1695773446107,-0.22509766,-0.9380493,0.3619995,-0.65625,1.140625,0.53125,407
408,1695773446147,-0.21582031,-0.93756104,0.35931396,-1.40625,-0.125,-0.3125,408
409,1695773446187,-0.22680664,-0.9541626,0.35272217,-1.671875,-0.28125,-0.203125,409
410,1695773446227,-0.21044922,-0.9338989,0.3612671,0.09375,1.203125,0.0,410
411,1695773446267,-0.20751953,-0.9192505,0.34735107,-1.546875,0.234375,-1.40625,411
412,1695773446307,-0.21386719,-0.9483032,0.3637085,-0.640625,-0.328125,-1.0625,412
413,1695773446347,-0.2199707,-0.9417114,0.3649292,-0.296875,0.140625,-0.71875,413
414,1695773446387,-0.22729492,-0.9365845,0.36273193,-1.203125,0.421875,-0.59375,414
415,1695773446427,-0.23022461,-0.925354,0.3612671,-1.171875,-0.390625,0.21875,415
416,1695773446467,-0.2163086,-0.9385376,0.34906006,-0.6875,-0.34375,-0.5,416
417,1695773446507,-0.20898438,-0.9434204,0.3529663,-0.6875,-0.609375,-0.40625,417
418,1695773446547,-0.234375,-0.9265747,0.35980225,-0.4375,-0.4375,0.890625,418
419,1695773446587,-0.24267578,-0.92755127,0.3571167,0.125,0.484375,-0.421875,419
420,1695773446627,-0.22802734,-0.9439087,0.3632202,-0.25,0.703125,0.0,420
421,1695773446667,-0.21728516,-0.9246216,0.3554077,-1.15625,0.296875,-1.578125,421
422,1695773446707,-0.21289062,-0.9463501,0.35491943,-2.046875,-0.8125,-2.1875,422
423,1695773446747,-0.22045898,-0.93829346,0.3607788,0.375,0.234375,0.453125,423
424,1695773446787,-0.2290039,-0.92852783,0.3571167,-0.53125,-0.125,0.078125,424
425,1695773446827,-0.23071289,-0.92926025,0.3649292,-0.390625,0.765625,0.21875,425
426,1695773446867,-0.22998047,-0.93756104,0.354187,-0.859375,0.46875,0.109375,426
427,1695773446907,-0.22558594,-0.94000244,0.3595581,-1.90625,0.875,-0.21875,427
428,1695773446947,-0.23706055,-0.93048096,0.3817749,-0.46875,0.8125,0.5625,428
429,1695773446987,-0.22631836,-0.9295044,0.35491943,-1.25,0.6875,-0.984375,429
430,1695773447027,-0.2121582,-0.9480591,0.35687256,-0.640625,0.5625,-0.3125,430
431,1695773447067,-0.22045898,-0.9326782,0.3632202,0.40625,0.109375,0.5625,431
432,1695773447107,-0.23071289,-0.9343872,0.3612671,-1.078125,0.125,-0.1875,432
433,1695773447147,-0.23657227,-0.93878174,0.36029053,-0.859375,0.359375,-0.015625,433
434,1695773447187,-0.22241211,-0.9302368,0.3583374,-0.53125,0.5,-0.578125,434
435,1695773447227,-0.21533203,-0.94659424,0.36395264,-0.625,0.296875,-0.65625,435
436,1695773447267,-0.2133789,-0.93096924,0.35687256,-0.078125,-0.578125,-0.03125,436
437,1695773447307,-0.23120117,-0.93341064,0.3583374,-0.21875,0.4375,0.421875,437
438,1695773447347,-0.22998047,-0.93292236,0.36175537,-0.5625,0.453125,-0.53125,438
439,1695773447387,-0.22485352,-0.9402466,0.3661499,0.65625,-0.15625,0.109375,439
440,1695773447427,-0.21606445,-0.9421997,0.35565186,0.203125,1.21875,0.03125,440
441,1695773447467,-0.21533203,-0.9385376,0.35858154,0.34375,0.34375,0.421875,441
442,1695773447507,-0.2290039,-0.944397,0.3637085,0.0,-0.40625,0.734375,442
443,1695773447547,-0.22827148,-0.92315674,0.36102295,-0.4375,-0.21875,-0.140625,443
444,1695773447587,-0.21777344,-0.94854736,0.35614014,-0.578125,0.34375,-1.078125,444
445,1695773447627,-0.21459961,-0.93414307,0.3649292,-0.296875,0.671875,0.3125,445
446,1695773447667,-0.2199707,-0.9290161,0.3463745,-1.03125,-0.53125,-0.109375,446
447,1695773447707,-0.21777344,-0.944397,0.35369873,-0.0625,0.484375,-1.078125,447
448,1695773447747,-0.22705078,-0.92803955,0.36517334,-1.203125,0.46875,0.265625,448
449,1695773447787,-0.22167969,-0.9356079,0.3637085,-0.375,0.875,-0.78125,449
450,1695773447827,-0.21484375,-0.9470825,0.35980225,-0.390625,-1.171875,-0.15625,450
451,1695773447867,-0.21948242,-0.9221802,0.33831787,-1.53125,-0.046875,-0.40625,451
452,1695773447907,-0.21386719,-0.9607544,0.34613037,-0.171875,0.59375,-0.515625,452
453,1695773447947,-0.23022461,-0.93048096,0.37713623,1.625,-0.265625,2.484375,453
454,1695773447987,-0.22070312,-0.9507446,0.33758545,-1.0,0.5625,-0.1875,454
455,1695773448027,-0.21459961,-0.9356079,0.35101318,0.953125,0.46875,-0.28125,455
456,1695773448067,-0.21386719,-0.9536743,0.3480835,0.265625,0.0,-1.25,456
457,1695773448107,-0.2109375,-0.93414307,0.34051514,-0.453125,0.859375,0.328125,457
458,1695773448147,-0.22241211,-0.9378052,0.35272217,2.03125,1.578125,2.015625,458
459,1695773448187,-0.22509766,-0.94781494,0.35882568,0.703125,0.34375,-0.03125,459
460,1695773448227,-0.22485352,-0.95269775,0.354187,-0.5,-0.125,-0.53125,460
461,1695773448267,-0.21362305,-0.95269775,0.33880615,-0.5625,-0.359375,1.234375,461
462,1695773448307,-0.203125,-0.9475708,0.34368896,0.765625,0.703125,1.671875,462
463,1695773448347,-0.20605469,-0.9414673,0.3444214,-0.6875,0.09375,0.09375,463
464,1695773448387,-0.20825195,-0.94415283,0.33563232,0.0,0.125,-0.59375,464
465,1695773448427,-0.20117188,-0.94073486,0.3324585,-0.1875,0.09375,-0.890625,465
466,1695773448467,-0.21362305,-0.9612427,0.34539795,0.625,0.328125,-0.125,466
467,1695773448507,-0.21313477,-0.9307251,0.33294678,1.328125,0.453125,0.796875,467
468,1695773448547,-0.20532227,-0.9483032,0.33270264,-0.765625,1.328125,-0.484375,468
469,1695773448587,-0.21362305,-0.94903564,0.33831787,-0.171875,-0.578125,0.203125,469
470,1695773448627,-0.20678711,-0.9385376,0.32659912,-1.328125,1.5,-0.90625,470
471,1695773448667,-0.19458008,-0.9570923,0.34832764,-0.09375,0.25,0.125,471
472,1695773448707,-0.20751953,-0.93341064,0.33319092,-1.0625,1.34375,0.625,472
473,1695773448747,-0.20605469,-0.94073486,0.33416748,-1.546875,0.484375,-0.078125,473
474,1695773448787,-0.21386719,-0.96466064,0.33929443,-0.59375,1.28125,-0.1875,474
475,1695773448827,-0.21240234,-0.93536377,0.33929443,-2.328125,0.875,-0.65625,475
476,1695773448867,-0.19213867,-0.95684814,0.34344482,-1.078125,0.0,-1.796875,476
477,1695773448907,-0.18579102,-0.9573364,0.33465576,-0.6875,-0.546875,-0.640625,477
478,1695773448947,-0.19702148,-0.94195557,0.32562256,-1.890625,-1.515625,-0.484375,478
479,1695773448987,-0.22192383,-0.9343872,0.3312378,-1.8125,-0.5,-0.640625,479
480,1695773449027,-0.20214844,-0.93341064,0.35784912,0.90625,0.359375,-0.09375,480
481,1695773449067,-0.21582031,-0.94976807,0.3468628,-2.265625,0.71875,0.328125,481
482,1695773449107,-0.21508789,-0.9378052,0.34881592,-0.515625,-0.28125,-0.390625,482
483,1695773449147,-0.20629883,-0.93878174,0.34124756,-1.234375,-1.0,-0.71875,483
484,1695773449187,-0.2109375,-0.95269775,0.3493042,-0.9375,-0.296875,-0.734375,484
485,1695773449227,-0.20239258,-0.94488525,0.34222412,-0.859375,-0.109375,0.484375,485
486,1695773449267,-0.21020508,-0.9380493,0.33880615,-0.703125,-0.046875,-0.53125,486
487,1695773449307,-0.21020508,-0.94732666,0.35125732,0.03125,-0.6875,0.3125,487
488,1695773449347,-0.2163086,-0.9319458,0.34783936,-1.90625,0.4375,-0.921875,488
489,1695773449387,-0.21020508,-0.95196533,0.35736084,-0.59375,-1.0,-0.28125,489
490,1695773449427,-0.21484375,-0.9360962,0.35614014,-0.671875,0.328125,0.53125,490
491,1695773449467,-0.2199707,-0.94073486,0.33880615,-1.875,-0.328125,-0.171875,491
492,1695773449507,-0.20361328,-0.9483032,0.34881592,-2.546875,0.015625,-0.953125,492
493,1695773449547,-0.20361328,-0.9302368,0.35443115,-2.765625,-1.078125,-1.28125,493
494,1695773449587,-0.2163086,-0.95147705,0.35150146,-1.109375,0.90625,0.28125,494
495,1695773449627,-0.21020508,-0.9343872,0.3468628,-1.609375,-0.234375,-0.109375,495
496,1695773449667,-0.22070312,-0.9351196,0.35150146,-1.984375,0.234375,-1.59375,496
497,1695773449707,-0.21313477,-0.9421997,0.355896,-1.015625,0.109375,-1.640625,497
498,1695773449747,-0.21240234,-0.94195557,0.35809326,-1.390625,-0.4375,-0.8125,498
499,1695773449787,-0.21704102,-0.9348755,0.35736084,-1.90625,-0.21875,-0.359375,499
500,1695773449827,-0.22167969,-0.94781494,0.36102295,-1.0625,-0.0625,-0.703125,500
501,1695773449867,-0.2265625,-0.94537354,0.35614014,-0.578125,-0.453125,-0.34375,501
502,1695773449907,-0.2055664,-0.9348755,0.35809326,-2.78125,0.484375,-1.734375,502
503,1695773449947,-0.21655273,-0.9458618,0.36639404,-1.109375,-0.09375,-0.5,503
504,1695773449987,-0.22167969,-0.9260864,0.3710327,0.046875,0.96875,0.40625,504
505,1695773450027,-0.22924805,-0.94610596,0.36541748,-1.1875,-0.234375,-0.15625,505
506,1695773450067,-0.22729492,-0.9290161,0.36566162,-3.46875,-0.328125,-1.78125,506
507,1695773450107,-0.21484375,-0.94659424,0.36932373,-1.765625,-0.8125,-0.796875,507
508,1695773450147,-0.20947266,-0.9192505,0.35980225,-1.6875,-1.0625,-0.84375,508
509,1695773450187,-0.22851562,-0.9385376,0.36541748,-1.6875,0.109375,-0.6875,509
510,1695773450227,-0.22338867,-0.9199829,0.36224365,-0.515625,-0.859375,0.53125,510
511,1695773450267,-0.22070312,-0.93463135,0.3690796,-1.078125,0.046875,-1.84375,511
512,1695773450307,-0.2241211,-0.9414673,0.37249756,-0.640625,0.28125,-0.734375,512
513,1695773450347,-0.23535156,-0.9348755,0.37054443,-0.875,-0.3125,-0.578125,513
514,1695773450387,-0.23022461,-0.9326782,0.3776245,-0.59375,0.703125,0.0625,514
515,1695773450427,-0.21435547,-0.9314575,0.37420654,-0.390625,0.3125,-0.5,515
516,1695773450467,-0.22070312,-0.9343872,0.36932373,-0.65625,-0.078125,-0.734375,516
517,1695773450507,-0.21386719,-0.9216919,0.35662842,-2.03125,1.171875,-1.109375,517
518,1695773450547,-0.23608398,-0.94488525,0.37713623,0.234375,0.234375,0.34375,518
519,1695773450587,-0.24438477,-0.9138794,0.36053467,-1.71875,0.796875,-1.0,519
520,1695773450627,-0.23803711,-0.9356079,0.3703003,0.859375,1.828125,-0.5625,520
521,1695773450667,-0.20458984,-0.9385376,0.3678589,1.546875,2.65625,-0.046875,521
522,1695773450707,-0.21191406,-0.94122314,0.36444092,0.8125,0.203125,-0.015625,522
523,1695773450747,-0.23779297,-0.9319458,0.3649292,-0.828125,-0.046875,-0.59375,523
524,1695773450787,-0.24414062,-0.92193604,0.3649292,0.625,1.21875,-1.140625,524
525,1695773450827,-0.21899414,-0.9378052,0.3546753,-0.015625,1.875,-1.8125,525
526,1695773450867,-0.21362305,-0.9500122,0.35760498,0.25,1.125,0.28125,526
527,1695773450907,-0.21191406,-0.94000244,0.3632202,0.0625,0.703125,0.5,527
528,1695773450947,-0.22802734,-0.9302368,0.3661499,-1.0625,-0.28125,-0.765625,528
529,1695773450987,-0.2277832,-0.9331665,0.36224365,-0.0625,-0.3125,-0.53125,529
530,1695773451027,-0.22290039,-0.94610596,0.3534546,-0.171875,0.53125,-0.640625,530
531,1695773451067,-0.22485352,-0.95635986,0.36566162,0.734375,0.640625,0.453125,531
532,1695773451107,-0.21704102,-0.9307251,0.34417725,-2.078125,0.921875,-1.0,532
533,1695773451147,-0.22509766,-0.9414673,0.3583374,-0.4375,-0.15625,-0.203125,533
534,1695773451187,-0.2253418,-0.93829346,0.35784912,-0.140625,0.796875,0.484375,534
535,1695773451227,-0.22583008,-0.9282837,0.36102295,-0.90625,-0.515625,-0.921875,535
536,1695773451267,-0.22241211,-0.95513916,0.3619995,0.140625,0.3125,-0.03125,536
537,1695773451307,-0.20947266,-0.92559814,0.3529663,0.5,0.484375,0.125,537
538,1695773451347,-0.22363281,-0.93951416,0.3427124,-1.453125,-1.0,-1.296875,538
539,1695773451387,-0.23876953,-0.9302368,0.36029053,-0.359375,0.21875,-0.15625,539
540,1695773451427,-0.22387695,-0.9492798,0.3529663,-0.390625,0.359375,0.84375,540
541,1695773451467,-0.21850586,-0.93829346,0.35394287,-1.3125,-0.859375,-0.484375,541
542,1695773451507,-0.21118164,-0.93414307,0.3583374,-0.28125,-0.96875,-0.96875,542
543,1695773451547,-0.23632812,-0.9421997,0.34710693,-0.734375,-0.03125,-0.109375,543
544,1695773451587,-0.22729492,-0.9380493,0.35028076,1.0625,-0.078125,1.234375,544
545,1695773451627,-0.2397461,-0.9458618,0.3583374,-0.609375,0.984375,0.71875,545
546,1695773451667,-0.21948242,-0.9273071,0.35247803,0.453125,1.203125,-0.21875,546
547,1695773451707,-0.20263672,-0.940979,0.35247803,-1.59375,0.328125,-1.625,547
548,1695773451747,-0.21386719,-0.9512329,0.35028076,-0.609375,-0.375,0.609375,548
549,1695773451787,-0.22851562,-0.9314575,0.35491943,0.53125,0.34375,1.359375,549
550,1695773451827,-0.234375,-0.9429321,0.3583374,-0.703125,-0.15625,0.046875,550
551,1695773451867,-0.23779297,-0.928772,0.35150146,-0.96875,0.421875,-0.953125,551
552,1695773451907,-0.21728516,-0.942688,0.34832764,-0.265625,0.890625,-0.625,552
553,1695773451947,-0.21484375,-0.9373169,0.35394287,-0.09375,-0.09375,-0.265625,553
554,1695773451987,-0.21386719,-0.942688,0.3522339,-1.25,-0.578125,-0.390625,554
555,1695773452027,-0.2265625,-0.94000244,0.34881592,0.296875,0.046875,0.5,555
556,1695773452067,-0.2265625,-0.94366455,0.34954834,-0.546875,-0.359375,-0.046875,556
557,1695773452107,-0.22583008,-0.92852783,0.34857178,-2.21875,-0.609375,-2.5625,557
558,1695773452147,-0.23022461,-0.9463501,0.35394287,-0.140625,0.140625,-0.453125,558
559,1695773452187,-0.22314453,-0.9282837,0.35272217,-0.78125,0.625,0.6875,559
560,1695773452227,-0.22875977,-0.94781494,0.33685303,-0.96875,0.09375,-0.5625,560
561,1695773452267,-0.22143555,-0.942688,0.35565186,-0.4375,0.125,-0.234375,561
562,1695773452307,-0.22143555,-0.9312134,0.34735107,0.0625,0.5,-0.5,562
563,1695773452347,-0.2211914,-0.9390259,0.33880615,-1.390625,0.734375,-0.96875,563
564,1695773452387,-0.23461914,-0.94732666,0.3517456,-1.4375,0.4375,0.734375,564
565,1695773452427,-0.22729492,-0.9290161,0.35638428,-0.40625,2.390625,-0.25,565
566,1695773452467,-0.2175293,-0.9507446,0.35076904,-0.734375,0.796875,-0.59375,566
567,1695773452507,-0.22070312,-0.93536377,0.355896,-0.421875,0.671875,1.140625,567
568,1695773452547,-0.20727539,-0.9397583,0.34246826,-0.453125,0.796875,-1.0,568
569,1695773452587,-0.22851562,-0.9475708,0.36273193,0.28125,0.4375,0.078125,569
570,1695773452627,-0.21899414,-0.925354,0.34344482,-0.984375,1.390625,-0.671875,570
571,1695773452667,-0.21166992,-0.9570923,0.3529663,-0.125,-0.375,0.0,571
572,1695773452707,-0.21240234,-0.942688,0.35491943,-1.03125,-0.375,0.921875,572
573,1695773452747,-0.22851562,-0.9373169,0.35321045,-0.921875,-1.15625,-0.734375,573
574,1695773452787,-0.23291016,-0.95025635,0.35491943,-0.34375,0.015625,-0.140625,574
575,1695773452827,-0.21386719,-0.9380493,0.34857178,-1.234375,0.9375,-0.8125,575
576,1695773452867,-0.21850586,-0.93878174,0.35125732,-0.53125,-0.484375,-1.0625,576
577,1695773452907,-0.2253418,-0.95977783,0.34613037,-1.90625,-0.03125,-1.09375,577
578,1695773452947,-0.22363281,-0.9365845,0.35101318,0.796875,0.75,0.203125,578
579,1695773452987,-0.2163086,-0.9338989,0.3475952,-2.125,0.953125,-1.28125,579
580,1695773453027,-0.2211914,-0.9348755,0.34954834,-0.203125,0.671875,-1.046875,580
581,1695773453067,-0.21679688,-0.9522095,0.34979248,0.890625,1.9375,1.453125,581
582,1695773453107,-0.22558594,-0.93341064,0.3480835,1.296875,0.75,1.046875,582
583,1695773453147,-0.2277832,-0.93927,0.3451538,0.734375,0.765625,-1.03125,583
584,1695773453187,-0.21313477,-0.93756104,0.340271,0.53125,1.65625,-1.125,584
585,1695773453227,-0.2163086,-0.9483032,0.33465576,0.75,1.234375,-0.71875,585
586,1695773453267,-0.2199707,-0.9522095,0.34857178,0.75,1.21875,0.15625,586
587,1695773453307,-0.22607422,-0.940979,0.33807373,2.09375,1.828125,0.21875,587
588,1695773453347,-0.21484375,-0.93951416,0.34295654,1.6875,1.859375,-1.3125,588
589,1695773453387,-0.22583008,-0.94244385,0.3427124,0.453125,0.265625,-1.03125,589
590,1695773453427,-0.21459961,-0.94195557,0.33343506,0.234375,1.5625,-1.171875,590
591,1695773453467,-0.22094727,-0.9470825,0.34320068,0.765625,-0.15625,-0.28125,591
592,1695773453507,-0.22485352,-0.95318604,0.3378296,0.84375,-0.03125,-0.03125,592
593,1695773453547,-0.22924805,-0.9360962,0.32928467,0.28125,-0.34375,-0.078125,593
594,1695773453587,-0.2163086,-0.944397,0.3295288,0.0,0.046875,-1.59375,594
595,1695773453627,-0.21679688,-0.93096924,0.3204956,-0.484375,-1.3125,-0.59375,595
596,1695773453667,-0.2241211,-0.9495239,0.33587646,0.03125,0.296875,-0.765625,596
597,1695773453707,-0.23632812,-0.95269775,0.32659912,-0.3125,-0.703125,-1.421875,597
598,1695773453747,-0.24023438,-0.9404907,0.3312378,-0.6875,-0.34375,-1.8125,598
599,1695773453787,-0.22998047,-0.93585205,0.3209839,-1.46875,-0.890625,-2.0,599
600,1695773453827,-0.2290039,-0.9468384,0.33587646,0.328125,0.640625,-0.4375,600
601,1695773453867,-0.22949219,-0.9295044,0.32611084,-0.953125,-0.484375,-1.125,601
602,1695773453907,-0.2434082,-0.96173096,0.33343506,-1.046875,0.78125,-1.40625,602
603,1695773453947,-0.23364258,-0.93414307,0.32635498,-0.640625,-0.421875,-0.40625,603
604,1695773453987,-0.22436523,-0.93951416,0.3336792,-1.578125,0.015625,-1.15625,604
605,1695773454027,-0.23706055,-0.9529419,0.33270264,-0.796875,-0.796875,0.140625,605
606,1695773454067,-0.23095703,-0.9324341,0.33050537,-0.90625,0.375,-0.15625,606
607,1695773454107,-0.23901367,-0.9463501,0.33099365,-1.78125,-1.25,-0.765625,607
608,1695773454147,-0.24609375,-0.9336548,0.33441162,-0.6875,-0.953125,-0.03125,608
609,1695773454187,-0.24169922,-0.9343872,0.3312378,-1.390625,0.3125,-1.234375,609
610,1695773454227,-0.22827148,-0.9570923,0.3241577,-1.0,0.171875,-0.984375,610
611,1695773454267,-0.23803711,-0.93292236,0.33831787,-1.34375,0.234375,-0.265625,611
612,1695773454307,-0.2553711,-0.9319458,0.338562,-1.375,0.75,-0.75,612
613,1695773454347,-0.24829102,-0.94488525,0.3336792,-2.8125,0.09375,-1.75,613
614,1695773454387,-0.24145508,-0.9385376,0.3361206,-1.34375,0.375,-0.875,614
615,1695773454427,-0.22875977,-0.9524536,0.33514404,-1.890625,0.21875,-0.875,615
616,1695773454467,-0.24438477,-0.9356079,0.3480835,-0.421875,-0.4375,0.03125,616
617,1695773454507,-0.24829102,-0.93951416,0.34075928,-1.59375,-0.296875,-0.09375,617
618,1695773454547,-0.2565918,-0.92852783,0.33270264,-1.9375,-0.53125,-0.515625,618
619,1695773454587,-0.24023438,-0.9404907,0.33880615,-1.8125,0.015625,-0.890625,619
620,1695773454627,-0.24023438,-0.94610596,0.3270874,-1.6875,0.859375,-0.265625,620
621,1695773454667,-0.23046875,-0.92633057,0.33636475,-0.5625,0.5625,0.28125,621
622,1695773454707,-0.24243164,-0.9458618,0.35028076,-0.734375,-0.1875,-0.59375,622
623,1695773454747,-0.2565918,-0.9356079,0.3361206,-1.4375,-0.03125,-0.921875,623
624,1695773454787,-0.23901367,-0.9365845,0.34173584,-0.9375,1.125,-1.140625,624
625,1695773454827,-0.24072266,-0.9451294,0.34710693,-0.78125,0.34375,-0.515625,625
626,1695773454867,-0.23413086,-0.92022705,0.33587646,-1.4375,0.234375,-1.03125,626
627,1695773454907,-0.24853516,-0.9512329,0.35736084,-0.140625,0.9375,0.265625,627
628,1695773454947,-0.25170898,-0.92633057,0.3397827,-1.140625,0.09375,-0.609375,628
629,1695773454987,-0.25341797,-0.9343872,0.3468628,-0.671875,0.140625,-1.234375,629
630,1695773455027,-0.23901367,-0.9492798,0.34320068,-0.5625,0.21875,-0.21875,630
631,1695773455067,-0.2397461,-0.93292236,0.35125732,0.34375,1.0,0.953125,631
632,1695773455107,-0.24316406,-0.9248657,0.3390503,-0.984375,-0.65625,-0.1875,632
633,1695773455147,-0.25268555,-0.94537354,0.3444214,-0.5625,0.390625,-1.609375,633
634,1695773455187,-0.2434082,-0.9439087,0.35443115,-1.078125,0.875,-0.0625,634
635,1695773455227,-0.24609375,-0.9258423,0.34735107,-0.59375,-0.234375,-0.453125,635
636,1695773455267,-0.24633789,-0.9417114,0.3534546,0.0,-0.421875,-0.4375,636
637,1695773455307,-0.25976562,-0.92510986,0.33709717,-0.703125,0.609375,0.296875,637
638,1695773455347,-0.24365234,-0.95025635,0.3378296,-0.859375,0.4375,-1.28125,638
639,1695773455387,-0.2475586,-0.9512329,0.33563232,-0.609375,0.390625,-0.609375,639
640,1695773455427,-0.24584961,-0.9404907,0.34710693,-1.140625,0.296875,0.21875,640
641,1695773455467,-0.23852539,-0.93096924,0.32757568,-2.8125,1.140625,-1.296875,641
642,1695773455507,-0.2529297,-0.940979,0.35247803,-0.9375,-0.125,-0.234375,642
643,1695773455547,-0.25219727,-0.9260864,0.35076904,-1.484375,1.140625,-0.296875,643
644,1695773455587,-0.23657227,-0.9295044,0.3456421,-1.671875,-0.15625,-0.765625,644
645,1695773455627,-0.24169922,-0.9348755,0.35882568,-1.1875,0.140625,0.0,645
646,1695773455667,-0.25610352,-0.9302368,0.33392334,-0.9375,0.9375,0.953125,646
647,1695773455707,-0.2553711,-0.91412354,0.3546753,-0.171875,0.984375,1.09375,647
648,1695773455747,-0.22363281,-0.93756104,0.3468628,-2.125,0.71875,-2.5625,648
649,1695773455787,-0.24047852,-0.9507446,0.35687256,0.265625,-0.125,0.234375,649
650,1695773455827,-0.24438477,-0.9265747,0.34661865,-0.5,0.484375,0.46875,650
651,1695773455867,-0.24511719,-0.92144775,0.35443115,-1.78125,-0.546875,-0.859375,651
652,1695773455907,-0.25610352,-0.94659424,0.35662842,-0.140625,0.25,0.0,652
653,1695773455947,-0.23120117,-0.9246216,0.34906006,-0.796875,1.203125,-0.921875,653
654,1695773455987,-0.23657227,-0.94195557,0.36419678,-0.375,0.65625,-0.015625,654
655,1695773456027,-0.24853516,-0.92852783,0.3649292,0.671875,-0.4375,0.359375,655
656,1695773456067,-0.2475586,-0.9348755,0.34710693,-1.265625,0.375,0.6875,656
657,1695773456107,-0.2446289,-0.93829346,0.355896,-1.234375,0.421875,0.890625,657
658,1695773456147,-0.24047852,-0.9373169,0.36468506,-1.71875,-0.875,-0.21875,658
659,1695773456187,-0.24707031,-0.9348755,0.3522339,-1.046875,0.65625,0.015625,659
660,1695773456227,-0.23486328,-0.928772,0.35247803,0.0,-0.125,0.703125,660
661,1695773456267,-0.24438477,-0.9229126,0.3529663,-1.34375,-0.34375,-0.15625,661
662,1695773456307,-0.24389648,-0.9299927,0.35369873,-1.09375,-0.296875,-1.03125,662
663,1695773456347,-0.24633789,-0.94000244,0.35565186,-0.421875,0.15625,-0.390625,663
664,1695773456387,-0.24414062,-0.9299927,0.36444092,-0.171875,0.859375,0.28125,664
665,1695773456427,-0.23144531,-0.9265747,0.35101318,-1.734375,-0.3125,-0.78125,665
666,1695773456467,-0.23950195,-0.9312134,0.36053467,0.28125,0.53125,-0.234375,666
667,1695773456507,-0.22192383,-0.9434204,0.355896,-0.6875,0.171875,-0.1875,667
668,1695773456547,-0.24267578,-0.9373169,0.35516357,-1.328125,-0.75,0.296875,668
669,1695773456587,-0.25048828,-0.92193604,0.35150146,-0.25,-0.3125,0.328125,669
670,1695773456627,-0.2475586,-0.93218994,0.3554077,0.328125,0.53125,0.0,670
671,1695773456667,-0.23999023,-0.9324341,0.35247803,-1.25,0.328125,-0.203125,671
672,1695773456707,-0.23413086,-0.9260864,0.3546753,-1.6875,0.5625,-0.984375,672
673,1695773456747,-0.24560547,-0.94317627,0.36419678,0.328125,0.6875,0.90625,673
674,1695773456787,-0.25097656,-0.93414307,0.35247803,-1.453125,0.1875,-0.546875,674
675,1695773456827,-0.23535156,-0.93951416,0.35858154,-1.703125,-0.015625,-0.71875,675
676,1695773456867,-0.22973633,-0.9199829,0.35638428,-0.203125,0.34375,1.203125,676
677,1695773456907,-0.22485352,-0.92803955,0.35516357,0.8125,0.0,1.15625,677
678,1695773456947,-0.24951172,-0.9417114,0.3600464,-1.125,-0.375,0.109375,678
679,1695773456987,-0.2553711,-0.92803955,0.3534546,-0.84375,0.359375,-1.328125,679
680,1695773457027,-0.23925781,-0.9356079,0.35882568,-1.0625,0.078125,-0.90625,680
681,1695773457067,-0.23657227,-0.94537354,0.35882568,-0.125,0.46875,0.234375,681
682,1695773457107,-0.22753906,-0.940979,0.34490967,-0.703125,0.3125,-0.40625,682
683,1695773457147,-0.24414062,-0.9299927,0.35980225,-0.4375,-0.203125,-0.3125,683
684,1695773457187,-0.24682617,-0.9260864,0.35736084,-0.46875,0.5,-0.25,684
685,1695773457227,-0.2241211,-0.925354,0.35906982,0.484375,-0.34375,0.234375,685
686,1695773457267,-0.2355957,-0.9456177,0.35687256,-1.390625,0.5625,0.515625,686
687,1695773457307,-0.2421875,-0.92437744,0.35150146,-1.046875,0.359375,-0.25,687
688,1695773457347,-0.22680664,-0.9402466,0.35980225,-0.453125,0.34375,-0.90625,688
689,1695773457387,-0.23803711,-0.9373169,0.35614014,-0.78125,-0.375,-0.03125,689
690,1695773457427,-0.2409668,-0.9343872,0.3475952,-0.21875,0.21875,-0.296875,690
691,1695773457467,-0.24169922,-0.9221802,0.3554077,-0.609375,0.5625,-0.0625,691
692,1695773457507,-0.23217773,-0.9380493,0.35247803,-0.71875,-0.28125,-0.453125,692
693,1695773457547,-0.23706055,-0.93878174,0.35247803,-1.9375,0.359375,-1.4375,693
694,1695773457587,-0.23583984,-0.9417114,0.36761475,0.5625,-0.234375,0.703125,694
695,1695773457627,-0.23754883,-0.92852783,0.3517456,-0.265625,-0.390625,0.421875,695
696,1695773457667,-0.24365234,-0.95318604,0.34661865,-0.875,-0.046875,0.234375,696
697,1695773457707,-0.2446289,-0.9260864,0.35443115,-0.390625,0.5,0.3125,697
698,1695773457747,-0.22216797,-0.9314575,0.3661499,-0.125,-0.328125,-0.671875,698
699,1695773457787,-0.23144531,-0.9458618,0.34735107,-1.09375,-0.515625,0.53125,699
700,1695773457827,-0.24072266,-0.93096924,0.35491943,-0.140625,0.609375,0.203125,700
701,1695773457867,-0.234375,-0.93707275,0.3444214,-1.640625,0.328125,-1.046875,701
702,1695773457907,-0.24072266,-0.9356079,0.36688232,-1.21875,0.015625,-0.3125,702
703,1695773457947,-0.23486328,-0.9356079,0.3619995,-0.3125,0.84375,0.28125,703
704,1695773457987,-0.24072266,-0.93463135,0.34295654,-1.859375,0.71875,-0.15625,704
705,1695773458027,-0.24047852,-0.93414307,0.37005615,-1.03125,1.234375,-0.84375,705
706,1695773458067,-0.23071289,-0.9368286,0.35369873,-0.71875,1.203125,-0.234375,706
707,1695773458107,-0.24072266,-0.9404907,0.35662842,-0.328125,-0.8125,1.09375,707
708,1695773458147,-0.23461914,-0.9299927,0.35394287,-2.125,0.03125,-0.8125,708
709,1695773458187,-0.22460938,-0.9319458,0.35687256,-0.640625,-0.34375,-1.03125,709
710,1695773458227,-0.23828125,-0.92926025,0.3619995,-0.390625,-0.5625,0.96875,710
711,1695773458267,-0.23901367,-0.9241333,0.3612671,-0.15625,-0.546875,0.671875,711
712,1695773458307,-0.23999023,-0.9290161,0.35809326,-1.3125,-0.1875,-0.859375,712
713,1695773458347,-0.24145508,-0.9331665,0.3661499,0.828125,0.15625,0.09375,713
714,1695773458387,-0.22851562,-0.9258423,0.34735107,0.4375,0.046875,0.453125,714
715,1695773458427,-0.234375,-0.94366455,0.35198975,-0.65625,0.46875,-0.0625,715
716,1695773458467,-0.2331543,-0.9199829,0.36297607,0.203125,0.0,0.0625,716
717,1695773458507,-0.24121094,-0.9487915,0.3600464,-0.296875,1.046875,-1.03125,717
718,1695773458547,-0.22021484,-0.9507446,0.35076904,-0.1875,0.15625,-0.40625,718
719,1695773458587,-0.22827148,-0.9343872,0.35101318,-0.828125,0.375,-0.3125,719
720,1695773458627,-0.2421875,-0.93096924,0.35272217,0.328125,0.796875,0.65625,720
721,1695773458667,-0.23925781,-0.923645,0.35614014,0.03125,0.9375,-0.4375,721
722,1695773458707,-0.23779297,-0.9492798,0.3554077,-1.40625,0.609375,-1.125,722
723,1695773458747,-0.2253418,-0.944397,0.35272217,0.3125,0.71875,0.484375,723
724,1695773458787,-0.23901367,-0.928772,0.34857178,0.171875,0.59375,0.90625,724
725,1695773458827,-0.23925781,-0.9234009,0.3475952,-0.625,1.484375,-0.140625,725
726,1695773458867,-0.23925781,-0.9307251,0.3517456,-0.140625,1.265625,-1.234375,726
727,1695773458907,-0.23339844,-0.94073486,0.34954834,-0.875,0.484375,-1.0,727
728,1695773458947,-0.23168945,-0.9446411,0.35003662,-0.890625,1.0625,-0.125,728
729,1695773458987,-0.22387695,-0.9414673,0.34466553,0.0,0.796875,-0.109375,729
730,1695773459027,-0.23242188,-0.93585205,0.3522339,-1.21875,0.46875,0.1875,730
731,1695773459067,-0.22753906,-0.9273071,0.36297607,-0.640625,0.328125,-0.90625,731
732,1695773459107,-0.23242188,-0.94488525,0.3546753,-1.296875,0.53125,-1.359375,732
733,1695773459147,-0.24243164,-0.9319458,0.35906982,-0.5625,0.46875,0.3125,733
734,1695773459187,-0.22729492,-0.93878174,0.3456421,-1.15625,0.78125,0.109375,734
735,1695773459227,-0.2241211,-0.94366455,0.35760498,-0.375,0.046875,-0.40625,735
736,1695773459267,-0.23046875,-0.9404907,0.35003662,-1.46875,0.1875,-0.53125,736
737,1695773459307,-0.25341797,-0.928772,0.35443115,0.640625,0.71875,0.953125,737
738,1695773459347,-0.23583984,-0.9307251,0.35614014,-0.40625,1.296875,-0.46875,738
739,1695773459387,-0.21679688,-0.93756104,0.35003662,-1.453125,0.53125,-1.453125,739
740,1695773459427,-0.23217773,-0.93707275,0.3529663,0.765625,0.5,0.546875,740
741,1695773459467,-0.23925781,-0.9404907,0.35125732,-0.421875,0.34375,0.421875,741
742,1695773459507,-0.22998047,-0.93218994,0.3554077,-1.0,0.734375,-0.765625,742
743,1695773459547,-0.22607422,-0.94317627,0.34246826,-0.578125,0.65625,-0.84375,743
744,1695773459587,-0.22583008,-0.9439087,0.35125732,-1.921875,0.9375,-0.21875,744
745,1695773459627,-0.2277832,-0.94122314,0.36273193,-0.15625,0.53125,0.15625,745
746,1695773459667,-0.22973633,-0.9360962,0.35784912,-1.9375,0.03125,-1.171875,746
747,1695773459707,-0.23876953,-0.9319458,0.35906982,-0.328125,0.140625,-0.203125,747
748,1695773459747,-0.22875977,-0.94073486,0.3571167,-0.421875,1.21875,0.296875,748
749,1695773459787,-0.22436523,-0.9307251,0.34783936,-1.03125,-0.359375,-0.3125,749
750,1695773459827,-0.22216797,-0.9414673,0.354187,-0.34375,0.265625,-0.484375,750
751,1695773459867,-0.23925781,-0.93585205,0.3710327,0.40625,1.0,0.5,751
752,1695773459907,-0.22680664,-0.9260864,0.33929443,-0.6875,-0.25,-1.296875,752
753,1695773459947,-0.23071289,-0.942688,0.35638428,-0.75,-0.25,-1.234375,753
754,1695773459987,-0.22216797,-0.9338989,0.34661865,-0.3125,0.546875,-0.140625,754
755,1695773460027,-0.22729492,-0.9451294,0.35125732,-0.203125,0.578125,0.078125,755
756,1695773460067,-0.23510742,-0.9331665,0.35272217,-1.109375,0.09375,-0.65625,756
757,1695773460107,-0.23632812,-0.9487915,0.3534546,-0.734375,-0.125,0.015625,757
758,1695773460147,-0.22045898,-0.9336548,0.34075928,-1.5,0.671875,-1.0625,758
759,1695773460187,-0.22265625,-0.94781494,0.3624878,-1.265625,-0.328125,-0.28125,759
