,timestamp,accel_x,accel_y,accel_z,gyro_x,gyro_y,gyro_z
0,1695772753554,-0.0390625,-0.9819946,0.10784912,-1.875,0.171875,-1.453125
1,1695772753600,-0.061035156,-1.0015259,0.09466553,-0.703125,-1.8125,0.359375
2,1695772753645,-0.021972656,-0.99957275,0.12835693,-0.578125,1.3125,-1.390625
3,1695772753675,-0.037353516,-1.0178833,0.09710693,-1.078125,0.3125,-0.515625
4,1695772753720,-0.053466797,-0.9807739,0.101501465,-1.78125,-1.640625,0.53125
5,1695772753750,-0.045654297,-0.9829712,0.11102295,-0.703125,-1.546875,-1.875
6,1695772753794,-0.036132812,-0.9902954,0.116882324,-0.96875,-0.890625,-0.75
7,1695772753840,-0.056884766,-1.000061,0.120788574,1.09375,-1.109375,0.828125
8,1695772753870,-0.046875,-1.0188599,0.113464355,-1.453125,-0.234375,-0.1875
9,1695772753916,-0.048095703,-0.9885864,0.11053467,-2.28125,0.8125,2.53125
10,1695772753960,-0.056396484,-0.97320557,0.12298584,3.171875,2.25,3.4375
11,1695772753990,-0.044189453,-0.9985962,0.121520996,-0.921875,0.84375,1.8125
12,1695772754035,-0.045166016,-0.9944458,0.09075928,-0.484375,2.3125,2.390625
13,1695772754065,-0.0034179688,-1.0010376,0.09613037,-1.078125,4.625,0.703125
14,1695772754109,-0.013916016,-0.99420166,0.10638428,-1.65625,0.21875,3.40625
15,1695772754155,-0.025390625,-0.9973755,0.11932373,-1.484375,1.9375,2.140625
16,1695772754184,0.0068359375,-0.989563,0.078063965,-2.625,0.6875,-0.625
17,1695772754232,-0.035888672,-0.9841919,0.11126709,-0.921875,0.890625,4.15625
18,1695772754278,-0.04321289,-0.9702759,0.14251709,6.890625,5.625,6.265625
19,1695772754308,0.0075683594,-1.02594,0.10784912,-2.65625,4.59375,2.578125
20,1695772754353,-0.008300781,-1.0027466,0.11151123,-0.359375,4.8125,3.3125
21,1695772754383,0.021728516,-0.9981079,0.07122803,-0.65625,6.921875,1.375
22,1695772754429,0.036621094,-0.9915161,0.08685303,-5.234375,1.125,2.28125
23,1695772754475,0.02368164,-0.9627075,0.093444824,-0.8125,-0.34375,0.25
24,1695772754504,0.012451172,-1.0108032,0.11175537,-1.15625,1.421875,-1.90625
25,1695772754550,0.011474609,-1.0083618,0.12786865,-2.5,-0.875,-2.53125
26,1695772754597,0.0068359375,-1.0020142,0.09710693,0.765625,-0.75,-5.171875
27,1695772754623,0.0009765625,-0.97369385,0.10614014,-0.15625,1.59375,-1.203125
28,1695772754667,-0.021972656,-1.0090942,0.11273193,1.46875,-1.40625,2.1875
29,1695772754699,0.016845703,-1.0046997,0.10369873,-1.796875,0.234375,0.40625
30,1695772754742,0.017578125,-0.975647,0.11029053,0.3125,-0.75,0.953125
31,1695772754787,-0.0087890625,-0.9819946,0.09661865,-0.84375,-2.0,0.296875
32,1695772754817,-0.006591797,-0.97662354,0.11444092,-3.125,-3.828125,-1.453125
33,1695772754861,-0.009765625,-1.0020142,0.11175537,-1.6875,-2.921875,-0.875
34,1695772754905,-0.004638672,-1.0105591,0.12200928,-2.921875,-0.046875,0.25
35,1695772754937,0.0146484375,-0.98931885,0.12835693,1.984375,1.8125,0.328125
36,1695772754988,0.0073242188,-0.9951782,0.12908936,1.828125,1.6875,-1.484375
37,1695772755015,0.037597656,-0.9849243,0.10028076,0.09375,1.03125,-1.578125
38,1695772755056,0.021728516,-0.9834595,0.1005249,-0.234375,-0.671875,-2.84375
39,1695772755101,0.007080078,-0.9890747,0.113708496,2.34375,-2.078125,-2.296875
40,1695772755133,-0.021484375,-1.00177,0.10467529,1.25,-1.46875,-2.828125
41,1695772755175,-0.05419922,-1.0022583,0.09320068,-4.28125,0.4375,-3.015625
42,1695772755222,-0.029785156,-0.9780884,0.12420654,2.28125,1.6875,-3.015625
43,1695772755253,-0.0107421875,-1.0105591,0.09490967,1.890625,2.671875,-1.5625
44,1695772755295,-0.02734375,-0.99591064,0.09564209,-3.046875,-0.140625,-0.296875
45,1695772755326,-0.030761719,-0.973938,0.09832764,1.34375,-0.453125,-3.203125
46,1695772755371,-0.03955078,-1.029602,0.112976074,0.734375,0.4375,-0.734375
47,1695772755417,-0.032714844,-0.9829712,0.09515381,-1.6875,0.03125,0.484375
48,1695772755446,-0.023925781,-0.97784424,0.093933105,-1.3125,2.9375,-1.40625
49,1695772755491,-0.0043945312,-1.0088501,0.08050537,2.359375,1.03125,1.609375
50,1695772755536,-0.02758789,-0.9949341,0.08416748,-0.28125,-2.125,2.640625
51,1695772755565,-0.0056152344,-0.9758911,0.11956787,3.046875,0.171875,-0.390625
52,1695772755612,-0.0036621094,-1.022522,0.08123779,3.234375,0.296875,-1.28125
53,1695772755647,-0.053955078,-0.9937134,0.0680542,-1.015625,-2.53125,2.21875
54,1695772755687,-0.049804688,-1.0049438,0.09613037,1.890625,0.09375,0.0
55,1695772755732,0.012451172,-0.98931885,0.08465576,1.09375,3.859375,0.40625
56,1695772755760,-0.0017089844,-0.9951782,0.06878662,2.15625,4.171875,-1.0625
57,1695772755807,0.01928711,-0.98101807,0.082458496,0.96875,2.046875,-1.9375
58,1695772755853,-0.010009766,-0.9890747,0.06048584,1.421875,-0.515625,-0.4375
59,1695772755880,-0.0234375,-1.0088501,0.062683105,0.125,-2.890625,-1.9375
60,1695772755928,-0.025146484,-0.99468994,0.07879639,4.828125,-1.484375,-3.375
61,1695772755961,-0.053222656,-1.022522,0.042419434,2.40625,0.34375,-0.875
62,1695772755999,-0.068603516,-0.9663696,0.07269287,2.84375,0.953125,-0.5625
63,1695772756045,-0.025634766,-1.0151978,0.051452637,3.015625,3.765625,0.109375
64,1695772756076,-0.017089844,-0.9854126,0.038024902,-2.515625,-0.6875,1.296875
65,1695772756120,-0.022949219,-0.9812622,0.070251465,0.90625,-2.1875,-2.640625
66,1695772756197,-0.03466797,-1.0012817,0.050231934,-2.109375,-1.609375,-2.53125
67,1695772756200,-0.044677734,-1.0120239,0.049743652,-1.671875,-1.3125,-1.109375
68,1695772756242,-0.032714844,-0.9834595,0.05633545,1.1875,1.03125,-0.140625
69,1695772756270,-0.039794922,-1.0037231,0.053894043,1.453125,-0.265625,0.34375
70,1695772756315,-0.051513672,-1.0071411,0.04852295,-0.75,0.5625,1.59375
71,1695772756361,-0.0048828125,-0.9817505,0.04144287,0.828125,1.15625,-1.484375
72,1695772756391,0.0012207031,-0.98931885,0.02923584,-1.9375,0.21875,-1.109375
73,1695772756437,-0.015380859,-0.9727173,0.04510498,2.28125,-1.453125,-1.234375
74,1695772756481,-0.0126953125,-1.0078735,0.042419434,1.171875,-3.625,-2.484375
75,1695772756511,-0.036621094,-0.98223877,0.027526855,-7.9375,-7.6875,-5.796875
76,1695772756559,-0.07739258,-0.99591064,0.050476074,-1.859375,-5.609375,-6.71875
77,1695772756634,-0.08081055,-1.0042114,0.070495605,3.734375,-1.0625,-2.5
78,1695772756637,-0.07299805,-0.991272,0.062438965,-1.421875,0.84375,1.296875
79,1695772756676,-0.04663086,-0.98565674,0.059509277,-1.125,1.84375,-0.796875
80,1695772756708,-0.046142578,-1.0205688,0.043151855,0.28125,1.328125,-1.71875
81,1695772756753,-0.059326172,-0.9973755,0.05340576,0.5625,0.84375,0.515625
82,1695772756829,-0.06762695,-0.97369385,0.01776123,-0.65625,1.09375,2.71875
83,1695772756834,-0.03491211,-0.9873657,0.070495605,-0.484375,-0.875,-1.203125
84,1695772756874,-0.057128906,-1.0396118,0.046813965,0.515625,-0.3125,0.546875
85,1695772756901,-0.05078125,-0.991272,0.039733887,0.21875,0.703125,-0.890625
86,1695772756947,-0.0637207,-0.97735596,0.023864746,-0.609375,1.5625,-1.359375
87,1695772756992,-0.044677734,-0.9834595,0.031677246,-2.109375,-0.78125,-0.0625
88,1695772757022,-0.044921875,-1.0203247,0.038513184,-4.6875,-2.09375,1.390625
89,1695772757068,-0.051513672,-0.986145,0.051452637,-3.5,-1.15625,0.6875
90,1695772757111,-0.061279297,-1.0039673,0.051940918,-1.484375,-0.703125,-3.8125
91,1695772757141,-0.05810547,-0.98931885,0.045837402,-2.515625,0.171875,-2.25
92,1695772757187,-0.045654297,-1.0095825,0.04901123,-1.09375,0.5625,-0.65625
93,1695772757216,-0.037353516,-0.99224854,0.046325684,-3.1875,0.890625,2.546875
94,1695772757260,-0.050048828,-1.0012817,0.059509277,-0.875,0.828125,0.796875
95,1695772757307,-0.05029297,-0.98809814,0.058044434,0.484375,1.578125,-1.5
96,1695772757340,-0.036621094,-0.9949341,0.047058105,-2.203125,-0.828125,-3.125
97,1695772757380,-0.06958008,-0.96881104,0.06707764,-2.359375,0.0,-2.171875
98,1695772757427,-0.05444336,-1.0127563,0.06756592,-1.671875,-0.484375,-1.765625
99,1695772757460,-0.048095703,-0.9956665,0.08709717,-2.28125,-0.03125,-3.609375
100,1695772757503,-0.050048828,-1.0388794,0.07220459,0.40625,1.203125,-1.625
101,1695772757532,-0.08105469,-0.9644165,0.057556152,-2.9375,-1.453125,0.015625
102,1695772757578,-0.026123047,-0.9866333,0.025817871,1.875,0.578125,-5.390625
103,1695772757626,-0.012939453,-0.9961548,0.11077881,6.53125,-4.375,0.109375
104,1695772757651,-0.05078125,-1.0652466,0.113708496,19.46875,-2.453125,2.875
105,1695772757699,-0.11791992,-1.0601196,0.0028686523,-1.734375,-4.953125,1.78125
106,1695772757730,-0.11816406,-0.87677,0.021911621,-13.0625,-7.5625,-9.5
107,1695772757773,-0.13305664,-1.0007935,0.08026123,-0.671875,-5.953125,-16.96875
108,1695772757818,-0.1352539,-1.065979,0.0067749023,1.078125,3.03125,10.171875
109,1695772757848,-0.15185547,-0.8743286,0.02166748,6.46875,3.671875,13.890625
110,1695772757898,-0.114746094,-1.0291138,0.007019043,3.375,9.640625,6.4375
111,1695772757939,0.0075683594,-0.9824829,-0.010559082,2.28125,6.609375,8.15625
112,1695772757967,-0.018554688,-0.9612427,0.024597168,-1.53125,2.28125,1.96875
113,1695772758009,-0.03173828,-1.0435181,0.0018920898,-6.40625,-3.1875,-0.125
114,1695772758039,-0.05908203,-1.0420532,0.05633545,-0.34375,1.875,3.5625
115,1695772758084,-0.068603516,-1.0115356,0.057556152,1.28125,4.90625,4.796875
116,1695772758129,-0.045166016,-0.9685669,0.024108887,-6.09375,0.03125,4.75
117,1695772758159,-0.01953125,-0.9668579,0.015808105,-6.390625,1.90625,5.828125
118,1695772758204,-0.008544922,-1.0193481,0.03729248,-2.21875,3.5,9.046875
119,1695772758251,-0.013427734,-0.9963989,0.08148193,-3.75,2.21875,6.25
120,1695772758279,0.008056641,-0.9751587,0.05999756,-4.8125,5.703125,1.265625
121,1695772758324,0.059326172,-0.98223877,0.0524292,-5.671875,4.4375,1.3125
122,1695772758356,0.045410156,-0.9866333,0.06488037,-3.5625,-1.65625,4.375
123,1695772758403,0.02734375,-0.9998169,0.08001709,-0.71875,-0.484375,2.484375
124,1695772758448,0.024902344,-1.0181274,0.06951904,-3.796875,0.078125,5.109375
125,1695772758477,-0.035888672,-0.9819946,0.08148193,-1.328125,1.546875,4.265625
126,1695772758522,0.025878906,-1.0125122,0.086120605,1.796875,6.171875,1.078125
127,1695772758568,0.05029297,-0.98638916,0.05731201,-2.75,7.109375,-0.28125
128,1695772758599,0.057617188,-0.9680786,0.042663574,-0.765625,3.671875,-0.09375
129,1695772758645,0.05810547,-1.0108032,0.08074951,2.46875,3.046875,2.640625
130,1695772758671,0.016601562,-0.9976196,0.08856201,2.546875,1.296875,5.0
131,1695772758717,0.041748047,-0.9915161,0.046569824,-0.375,2.03125,-2.578125
132,1695772758762,0.03857422,-0.9927368,0.03753662,-3.828125,3.640625,-0.78125
133,1695772758791,0.030761719,-0.9846802,0.0602417,3.96875,3.421875,2.21875
134,1695772758837,0.040283203,-1.0193481,0.06732178,-1.9375,3.953125,1.890625
135,1695772758882,0.03857422,-0.9685669,0.058044434,-0.8125,4.546875,1.234375
136,1695772758913,0.046142578,-0.9819946,0.024841309,2.375,5.671875,0.375
137,1695772758956,0.052246094,-0.95684814,0.049743652,-1.5625,2.46875,-2.0
138,1695772758987,0.07006836,-1.0066528,0.041931152,1.875,4.71875,-2.078125
139,1695772759036,0.05053711,-1.0374146,0.047302246,3.15625,4.90625,2.625
140,1695772759077,0.035888672,-0.92388916,0.029968262,3.609375,2.3125,0.828125
141,1695772759109,0.045654297,-1.008606,0.0067749023,7.390625,7.03125,-3.75
142,1695772759155,0.06762695,-0.97491455,0.01727295,4.171875,4.265625,-0.671875
143,1695772759197,0.057861328,-0.98150635,0.030212402,3.671875,2.84375,-6.09375
144,1695772759225,0.033935547,-1.0032349,-0.020568848,-2.15625,-0.71875,-4.59375
145,1695772759270,0.03955078,-0.97052,0.011413574,-1.96875,-3.59375,-5.3125
146,1695772759302,0.030273438,-1.0003052,0.02532959,-3.75,-3.4375,-7.21875
147,1695772759345,0.03149414,-1.0264282,-0.0051879883,-6.9375,-2.59375,-8.40625
148,1695772759392,0.026855469,-1.003479,0.057800293,0.71875,-3.796875,-8.84375
149,1695772759423,-0.021972656,-0.9898071,0.045837402,-6.875,-6.109375,-1.9375
150,1695772759468,-0.10668945,-1.0049438,0.043640137,-5.421875,-2.4375,1.171875
151,1695772759514,-0.07739258,-0.973938,0.020446777,1.828125,2.53125,3.140625
152,1695772759541,0.009521484,-1.053772,0.032409668,5.046875,4.15625,-1.59375
153,1695772759587,0.024902344,-0.9968872,0.050964355,1.734375,0.96875,-4.421875
154,1695772759618,-0.0031738281,-0.9612427,-0.020324707,1.921875,-1.875,-8.921875
155,1695772759663,-0.05883789,-0.9949341,-0.02545166,-4.234375,-8.5,-2.671875
156,1695772759710,-0.0126953125,-0.9204712,0.05657959,5.65625,-5.890625,-2.75
157,1695772759737,-0.044189453,-1.0254517,0.020935059,-3.265625,-8.90625,-3.640625
158,1695772759782,-0.07104492,-0.9768677,0.018005371,-8.875,-9.140625,-1.171875
159,1695772759826,0.039794922,-0.90802,0.051208496,0.09375,-3.046875,-8.671875
160,1695772759858,-0.004638672,-1.1062622,0.03363037,-7.453125,-14.421875,-11.34375
161,1695772759907,-0.10888672,-1.00177,0.06317139,-10.203125,-8.25,0.46875
162,1695772759932,-0.15356445,-1.0166626,0.050720215,-2.515625,-1.125,1.5
163,1695772759976,-0.11621094,-0.99835205,0.06463623,-8.78125,-1.328125,2.65625
164,1695772760022,-0.06518555,-0.9651489,0.07952881,-2.765625,2.03125,0.9375
165,1695772760053,-0.022216797,-1.0115356,0.08856201,-1.6875,3.703125,-0.46875
166,1695772760096,-0.032958984,-0.99176025,0.09515381,-1.09375,0.6875,0.53125
167,1695772760173,-0.03540039,-1.0025024,0.06072998,-4.609375,-0.875,1.28125
168,1695772760177,-0.072021484,-0.9985962,0.06488037,-4.25,0.703125,5.109375
169,1695772760217,-0.042236328,-0.9963989,0.09710693,0.296875,4.46875,4.390625
170,1695772760246,-0.025390625,-0.99542236,0.0927124,-3.53125,2.3125,5.046875
171,1695772760290,-0.021484375,-0.958313,0.109802246,-1.96875,1.453125,2.578125
172,1695772760336,-0.032714844,-1.0144653,0.093444824,-5.546875,0.875,1.25
173,1695772760365,-0.006591797,-0.9902954,0.082458496,-3.78125,0.78125,3.640625
174,1695772760411,0.0034179688,-0.9805298,0.11883545,-1.1875,2.046875,2.15625
175,1695772760456,-0.033447266,-0.9944458,0.11151123,-2.390625,-0.015625,4.109375
176,1695772760489,0.0073242188,-0.98638916,0.12835693,-2.234375,2.1875,-0.265625
177,1695772760532,-0.0073242188,-1.0027466,0.11517334,-0.328125,1.515625,0.1875
178,1695772760608,-0.014160156,-0.97247314,0.11273193,2.046875,2.5,0.296875
179,1695772760614,0.0073242188,-1.0122681,0.11395264,1.4375,2.046875,0.765625
180,1695772760652,0.010253906,-0.99957275,0.08148193,0.109375,0.8125,1.765625
181,1695772760681,-0.0034179688,-0.975647,0.10418701,0.25,1.359375,0.546875
182,1695772760729,-0.016845703,-1.0042114,0.09100342,-0.265625,1.171875,0.84375
183,1695772760804,-0.0014648438,-0.9807739,0.073913574,-6.78125,0.09375,-0.09375
184,1695772760806,0.0031738281,-0.9758911,0.11077881,-1.359375,0.140625,-3.59375
185,1695772760847,0.010498047,-1.0518188,0.09100342,-2.765625,1.0625,-1.25
186,1695772760880,0.014404297,-0.9841919,0.117370605,-0.640625,-0.015625,-1.65625
187,1695772760924,0.01171875,-1.0110474,0.08929443,-1.171875,-0.109375,-3.296875
188,1695772760966,-0.0029296875,-0.9854126,0.08856201,-4.90625,-2.65625,-1.625
189,1695772760997,-0.025634766,-0.9998169,0.10101318,0.609375,-3.21875,0.109375
190,1695772761043,-0.043701172,-1.0193481,0.11859131,-3.484375,-3.125,-0.4375
191,1695772761086,-0.037597656,-0.97247314,0.13763428,-2.1875,-2.09375,-0.421875
192,1695772761122,-0.020996094,-0.99542236,0.10394287,-0.546875,-1.078125,-0.96875
193,1695772761164,-0.009277344,-0.97076416,0.13787842,-1.046875,-1.484375,-0.265625
194,1695772761193,-0.033203125,-1.0420532,0.13616943,-0.765625,-1.125,0.640625
195,1695772761241,-0.018066406,-0.9553833,0.1239624,-1.546875,2.609375,2.734375
196,1695772761283,0.026367188,-0.9776001,0.117370605,2.734375,0.734375,-3.328125
197,1695772761311,0.037353516,-1.008606,0.121276855,-2.015625,1.921875,-0.953125
198,1695772761357,0.0009765625,-0.98321533,0.117370605,3.578125,-0.703125,-2.171875
199,1695772761401,-0.01977539,-1.0125122,0.09588623,1.5,-2.359375,-5.953125
200,1695772761436,-0.005859375,-0.9973755,0.09588623,-1.359375,-1.03125,-3.953125
201,1695772761476,-0.02368164,-0.97613525,0.08294678,1.4375,-3.109375,-4.078125
202,1695772761510,-0.047851562,-1.0061646,0.093933105,-2.25,-5.625,-3.984375
203,1695772761553,-0.059326172,-0.9805298,0.113708496,-0.859375,-5.546875,-3.625
204,1695772761598,-0.07861328,-1.0254517,0.113464355,-1.609375,-2.78125,-4.65625
205,1695772761627,-0.05517578,-0.9883423,0.11248779,-1.359375,-2.0,-3.140625
206,1695772761673,-0.061523438,-0.9793091,0.1251831,-1.03125,-0.828125,-5.46875
207,1695772761702,-0.060302734,-0.9976196,0.113708496,-3.421875,-1.390625,-3.046875
208,1695772761750,-0.0625,-1.0093384,0.109558105,-3.109375,-1.609375,2.984375
209,1695772761792,-0.03564453,-0.9956665,0.11590576,-0.0625,-0.25,-0.28125
210,1695772761821,-0.055908203,-1.0142212,0.12982178,-0.484375,-2.546875,-3.625
211,1695772761869,-0.0715332,-0.9963989,0.11077881,0.546875,-1.65625,-3.265625
212,1695772761912,-0.05834961,-0.9793091,0.11639404,-1.890625,-1.984375,-4.109375
213,1695772761943,-0.09008789,-0.98443604,0.0993042,-1.671875,-3.453125,-4.953125
214,1695772761986,-0.07739258,-0.99664307,0.13104248,-0.234375,-5.0625,-4.140625
215,1695772762018,-0.08642578,-1.0137329,0.12200928,0.28125,-3.1875,-4.65625
216,1695772762063,-0.08251953,-0.9734497,0.112976074,-0.53125,-2.875,-4.4375
217,1695772762107,-0.1459961,-1.0078735,0.12884521,-0.34375,-3.484375,-0.328125
218,1695772762136,-0.1394043,-0.9751587,0.11639404,1.640625,1.109375,1.71875
219,1695772762183,-0.09692383,-0.9956665,0.08905029,-2.25,-0.046875,-0.921875
220,1695772762226,-0.095214844,-0.9578247,0.11883545,3.015625,1.59375,-2.796875
221,1695772762260,-0.104003906,-1.0237427,0.1437378,5.25,-1.1875,-1.21875
222,1695772762303,-0.09399414,-1.0022583,0.101257324,-4.21875,-0.53125,-0.578125
223,1695772762334,-0.08178711,-0.94903564,0.10247803,2.53125,1.28125,-0.984375
224,1695772762378,-0.09057617,-1.0005493,0.10076904,4.4375,-0.734375,-0.703125
225,1695772762424,-0.11987305,-1.0046997,0.1161499,-3.9375,-0.546875,3.015625
226,1695772762453,-0.10913086,-0.9990845,0.10321045,5.015625,1.796875,0.265625
227,1695772762498,-0.12719727,-0.9981079,0.101257324,-0.640625,2.765625,0.0625
228,1695772762542,-0.091308594,-0.95318604,0.081970215,3.71875,4.796875,-0.5625
229,1695772762572,-0.1352539,-0.9998169,0.08514404,1.78125,5.5625,4.421875
230,1695772762616,-0.064453125,-0.9939575,0.113220215,0.171875,8.5,4.53125
231,1695772762650,-0.03491211,-1.0083618,0.062683105,-1.890625,8.21875,3.578125
232,1695772762695,-0.010253906,-0.97247314,0.03704834,-2.40625,3.734375,-0.0625
233,1695772762739,-0.045166016,-0.92926025,0.07635498,-2.03125,0.9375,-2.484375
234,1695772762764,-0.057861328,-1.0195923,0.105163574,4.390625,-3.78125,-8.5
235,1695772762810,-0.1015625,-1.0620728,0.086120605,-0.75,-4.0,-4.65625
236,1695772762855,-0.11254883,-1.0010376,0.07220459,0.1875,-3.484375,-5.109375
237,1695772762890,-0.1652832,-0.9627075,0.053649902,0.9375,-2.8125,-2.390625
238,1695772762930,-0.1352539,-0.99420166,0.07537842,-2.9375,0.5,-0.859375
239,1695772762961,-0.107910156,-1.0479126,0.0692749,-9.09375,1.015625,2.515625
240,1695772763007,-0.08325195,-0.99713135,0.09686279,-13.5,0.140625,-2.703125
241,1695772763052,-0.07128906,-1.0073853,0.1227417,-9.921875,-1.265625,-8.4375
242,1695772763082,-0.10107422,-1.0569458,0.14886475,-18.875,0.984375,-6.765625
243,1695772763126,-0.21899414,-0.9402466,0.13348389,1.4375,14.796875,4.640625
244,1695772763179,-0.115478516,-0.9505005,0.16204834,23.46875,3.859375,6.625
245,1695772763206,-0.17138672,-1.0186157,0.14935303,12.390625,3.703125,10.390625
246,1695772763251,-0.05102539,-0.9468384,0.06951904,-1.59375,4.734375,-0.8125
247,1695772763277,-0.040283203,-0.97247314,0.04949951,8.59375,0.96875,-3.140625
248,1695772763321,-0.07739258,-0.99835205,0.03753662,2.53125,-3.234375,1.34375
249,1695772763367,-0.1159668,-0.9338989,0.010192871,-4.765625,-7.703125,0.78125
250,1695772763399,-0.1303711,-1.0122681,0.11834717,-0.1875,-5.296875,-1.90625
251,1695772763443,-0.087402344,-1.0542603,0.1083374,-4.53125,-0.828125,-4.140625
252,1695772763487,-0.08886719,-1.0418091,0.0927124,1.46875,0.515625,-6.671875
253,1695772763518,-0.10644531,-0.9619751,0.08905029,0.65625,1.6875,-2.609375
254,1695772763562,-0.12963867,-0.96881104,0.07147217,-5.171875,-2.359375,-2.0625
255,1695772763594,-0.15478516,-1.0027466,0.06317139,-1.84375,-1.859375,1.28125
256,1695772763636,-0.10961914,-1.0115356,0.10369873,-2.90625,-1.03125,-1.609375
257,1695772763683,-0.13793945,-0.9956665,0.08709717,-3.109375,0.390625,0.5
258,1695772763711,-0.13500977,-0.9680786,0.061950684,-5.5,-2.765625,-2.09375
259,1695772763759,-0.12451172,-0.9788208,0.109069824,-2.703125,-1.78125,-1.15625
260,1695772763801,-0.12231445,-1.0115356,0.10443115,-3.28125,-0.4375,3.015625
261,1695772763833,-0.10986328,-1.0061646,0.120788574,-4.625,0.984375,1.15625
262,1695772763877,-0.08666992,-0.9768677,0.1251831,-2.015625,1.671875,-1.8125
263,1695772763908,-0.11425781,-0.9985962,0.11541748,-4.71875,1.171875,0.71875
264,1695772763954,-0.10205078,-0.97052,0.13983154,-2.140625,-0.265625,1.1875
265,1695772763998,-0.10424805,-1.0149536,0.12567139,-2.375,-0.359375,-1.109375
266,1695772764028,-0.12158203,-0.9883423,0.11639404,-5.15625,-0.375,0.453125
267,1695772764072,-0.10449219,-0.96954346,0.14984131,0.5625,0.65625,-2.515625
268,1695772764146,-0.13208008,-1.0088501,0.12908936,-1.9375,1.609375,1.34375
269,1695772764149,-0.13012695,-0.9692993,0.12738037,-2.1875,2.375,0.765625
270,1695772764194,-0.100097656,-0.9968872,0.1359253,-0.875,1.828125,-1.578125
271,1695772764223,-0.103515625,-1.0042114,0.13031006,-4.0,1.515625,0.078125
272,1695772764269,-0.103515625,-0.9795532,0.14154053,-2.5,1.21875,0.265625
273,1695772764312,-0.119140625,-0.99835205,0.16326904,-0.78125,0.40625,-0.859375
274,1695772764345,-0.119628906,-0.9885864,0.12664795,-4.375,0.203125,-0.40625
275,1695772764385,-0.10058594,-0.9673462,0.13665771,-2.109375,0.359375,-3.46875
276,1695772764435,-0.12011719,-1.0159302,0.15496826,-3.046875,-0.453125,-2.46875
277,1695772764463,-0.11254883,-0.9656372,0.15545654,-1.90625,0.09375,-1.03125
278,1695772764508,-0.11254883,-0.98443604,0.16082764,0.171875,-0.9375,-3.109375
279,1695772764584,-0.123535156,-1.0115356,0.17401123,-2.390625,-1.625,-3.875
280,1695772764587,-0.11816406,-0.989563,0.15789795,-1.78125,-1.578125,-4.8125
281,1695772764629,-0.13061523,-0.9678345,0.15228271,0.984375,-2.53125,-7.0
282,1695772764661,-0.16186523,-0.9949341,0.1461792,-1.75,-3.421875,-5.015625
283,1695772764704,-0.1430664,-0.9817505,0.15496826,-1.859375,-3.203125,-6.15625
284,1695772764748,-0.17358398,-0.9937134,0.16571045,-1.546875,-2.71875,-2.46875
285,1695772764778,-0.16723633,-0.97857666,0.16473389,-2.609375,-2.46875,-3.296875
286,1695772764822,-0.20117188,-0.9697876,0.14349365,0.90625,-2.484375,-0.9375
287,1695772764853,-0.19726562,-0.975647,0.15130615,1.234375,-2.328125,-3.6875
288,1695772764898,-0.18481445,-0.9859009,0.18255615,3.1875,1.03125,-1.296875
289,1695772764943,-0.19482422,-1.0108032,0.13739014,-2.15625,0.234375,0.484375
290,1695772764972,-0.16430664,-0.9578247,0.14251709,-2.46875,1.578125,0.875
291,1695772765018,-0.17016602,-0.9702759,0.17669678,-0.234375,1.109375,-0.75
292,1695772765063,-0.19213867,-0.99176025,0.16229248,-2.046875,1.484375,-0.6875
293,1695772765093,-0.16040039,-0.99786377,0.18475342,-1.4375,0.828125,-2.203125
294,1695772765141,-0.17553711,-0.9692993,0.14959717,-1.71875,3.734375,1.671875
295,1695772765166,-0.16333008,-1.0105591,0.14764404,1.4375,6.125,-0.609375
296,1695772765212,-0.21972656,-1.046936,0.21136475,-3.140625,6.828125,8.46875
297,1695772765259,-0.2133789,-0.89556885,0.1864624,-3.6875,-2.953125,3.421875
298,1695772765295,-0.18334961,-1.0300903,0.18206787,-0.015625,4.296875,6.84375
299,1695772765331,-0.14428711,-0.88531494,0.15863037,-1.09375,8.5,14.0625
300,1695772765363,-0.2084961,-1.0042114,0.18011475,11.0,7.390625,11.03125
301,1695772765406,-0.09887695,-1.036438,0.10736084,6.140625,6.375,12.78125
302,1695772765450,0.001953125,-0.94244385,0.08782959,6.09375,4.53125,9.609375
303,1695772765481,-0.021728516,-0.95196533,0.09246826,5.78125,3.84375,5.8125
304,1695772765526,-0.06933594,-1.006897,0.12249756,2.828125,-0.4375,4.4375
305,1695772765572,-0.060302734,-1.0459595,0.1408081,3.671875,-2.9375,-0.53125
306,1695772765602,-0.07739258,-1.0332642,0.12445068,-0.03125,2.96875,3.859375
307,1695772765650,-0.021972656,-0.97442627,0.09075928,0.484375,5.515625,2.6875
308,1695772765678,-0.037109375,-0.9763794,0.093933105,-0.78125,-0.546875,7.734375
309,1695772765722,-0.05908203,-0.9595337,0.10394287,2.203125,-2.453125,8.203125
310,1695772765767,-0.030517578,-1.0254517,0.12615967,0.765625,-0.921875,-2.03125
311,1695772765797,0.008544922,-1.0025024,0.12371826,1.734375,0.171875,-1.375
312,1695772765849,-0.040771484,-0.9812622,0.11151123,1.640625,-1.1875,1.421875
313,1695772765888,-0.041015625,-0.9768677,0.09222412,-1.203125,-1.953125,1.703125
314,1695772765916,-0.038085938,-1.0147095,0.11419678,-0.375,-1.65625,2.421875
315,1695772765962,-0.025146484,-1.0081177,0.117126465,-0.078125,3.3125,1.578125
316,1695772765994,-0.036376953,-1.0078735,0.09539795,-3.25,2.828125,0.390625
317,1695772766038,0.0014648438,-0.94781494,0.121276855,-3.328125,2.203125,-0.78125
318,1695772766082,-0.013916016,-1.0159302,0.07904053,-1.21875,2.59375,-1.46875
319,1695772766110,-0.018798828,-0.9841919,0.1071167,-1.734375,1.890625,0.5625
320,1695772766157,-0.030273438,-1.0049438,0.11077881,-1.65625,2.21875,-2.125
321,1695772766205,-0.047851562,-0.99176025,0.12420654,-0.734375,2.484375,-0.203125
322,1695772766234,-0.029296875,-0.9981079,0.11126709,2.3125,2.71875,-2.125
323,1695772766282,-0.03930664,-1.0076294,0.07366943,-0.078125,0.3125,-1.65625
324,1695772766312,-0.029541016,-0.9937134,0.08660889,1.96875,0.90625,0.21875
325,1695772766358,-0.018554688,-0.9981079,0.10247803,1.96875,-0.015625,-1.28125
326,1695772766399,-0.0390625,-0.99786377,0.09637451,-0.765625,-1.75,-0.625
327,1695772766427,-0.061035156,-1.0071411,0.0927124,-1.3125,-1.953125,-1.71875
328,1695772766473,-0.042236328,-1.0269165,0.11004639,-1.515625,-0.4375,-2.140625
329,1695772766518,-0.044921875,-1.0161743,0.07879639,-3.890625,0.578125,-0.984375
330,1695772766547,-0.038330078,-0.9717407,0.074645996,-2.8125,1.40625,-2.0
331,1695772766593,-0.03540039,-0.98101807,0.11395264,-0.390625,-1.140625,-0.34375
332,1695772766623,-0.03540039,-0.9993286,0.11248779,1.875,-1.296875,-0.359375
333,1695772766667,-0.057861328,-1.0117798,0.105651855,-0.984375,-0.75,0.15625
334,1695772766712,-0.04248047,-0.9898071,0.10272217,-4.65625,-2.65625,-1.96875
335,1695772766743,-0.01586914,-0.96832275,0.105163574,-4.140625,-3.25,-2.546875
336,1695772766788,-0.043945312,-1.0322876,0.14031982,0.515625,-5.59375,-0.296875
337,1695772766832,-0.044433594,-1.0130005,0.12884521,-3.546875,-5.0625,-1.859375
338,1695772766863,-0.06201172,-0.9961548,0.12738037,-2.03125,-2.484375,-3.53125
339,1695772766908,-0.059570312,-0.97076416,0.12982178,3.21875,0.265625,-3.15625
340,1695772766936,-0.0390625,-0.9607544,0.10443115,-1.96875,0.765625,-3.203125
341,1695772766984,-0.049560547,-0.9614868,0.12347412,-2.78125,-0.375,-2.265625
342,1695772767026,-0.020751953,-1.0095825,0.15570068,-1.515625,-0.546875,-6.875
343,1695772767057,-0.052734375,-1.0186157,0.12738037,-2.5625,-1.15625,-7.15625
344,1695772767102,-0.09033203,-0.94903564,0.11029053,4.921875,-1.609375,-5.640625
345,1695772767147,-0.15356445,-0.99957275,0.11126709,4.265625,-1.078125,-1.65625
346,1695772767175,-0.14770508,-0.97857666,0.12225342,-0.28125,1.765625,-1.921875
347,1695772767223,-0.0847168,-0.9937134,0.11981201,2.859375,2.296875,-5.234375
348,1695772767255,-0.08203125,-1.017395,0.09490967,-0.40625,0.359375,-5.46875
349,1695772767299,-0.10595703,-0.98443604,0.09686279,0.25,0.53125,-2.71875
350,1695772767344,-0.123291016,-1.0076294,0.109558105,0.296875,-0.84375,-2.765625
351,1695772767371,-0.14550781,-0.9993286,0.101989746,-0.703125,0.21875,-0.171875
352,1695772767415,-0.122558594,-0.99884033,0.08074951,-2.140625,0.96875,-0.703125
353,1695772767462,-0.106933594,-0.9800415,0.085876465,-1.265625,0.765625,0.25
354,1695772767491,-0.11328125,-0.9866333,0.0914917,3.234375,-0.078125,0.96875
355,1695772767538,-0.14111328,-1.0466919,0.09490967,-2.40625,-1.015625,2.609375
356,1695772767567,-0.13891602,-0.9734497,0.10736084,-1.421875,0.921875,4.5625
357,1695772767614,-0.09472656,-0.99224854,0.093933105,2.8125,2.78125,1.171875
358,1695772767656,-0.1003418,-1.0027466,0.089538574,-5.859375,1.515625,2.5625
359,1695772767685,-0.08862305,-0.9795532,0.10858154,1.828125,1.328125,1.375
360,1695772767731,-0.08911133,-1.0144653,0.097351074,-2.03125,0.9375,3.6875
361,1695772767777,-0.053222656,-0.9768677,0.105163574,-0.546875,0.6875,1.96875
362,1695772767810,-0.106933594,-1.0032349,0.109558105,0.328125,1.140625,3.265625
363,1695772767853,-0.10449219,-0.9885864,0.121276855,-0.28125,2.765625,5.1875
364,1695772767882,-0.06201172,-0.99224854,0.0927124,-0.421875,4.421875,2.265625
365,1695772767928,-0.05444336,-0.99298096,0.1083374,2.828125,3.9375,3.34375
366,1695772767972,-0.03881836,-0.9793091,0.101501465,3.953125,1.9375,0.6875
367,1695772768002,-0.05053711,-0.98687744,0.0914917,-0.125,-0.75,-0.78125
368,1695772768048,-0.07104492,-0.9795532,0.089782715,-1.359375,-0.875,2.046875
369,1695772768123,-0.063964844,-0.96661377,0.07659912,1.625,1.1875,-1.28125
370,1695772768128,-0.07421875,-1.0352173,0.10223389,-1.484375,3.125,2.109375
371,1695772768169,-0.035888672,-0.99176025,0.10101318,3.203125,6.375,5.125
372,1695772768197,-0.01953125,-0.986145,0.08074951,-0.484375,2.359375,-0.34375
373,1695772768241,-0.028808594,-1.0066528,0.08538818,-3.46875,-1.0,-1.5
374,1695772768287,-0.03100586,-0.9819946,0.06341553,1.296875,-3.375,-3.46875
375,1695772768318,-0.063964844,-1.029602,0.08392334,-1.84375,-5.546875,-0.125
376,1695772768368,-0.078125,-0.9558716,0.08392334,-0.390625,-5.984375,-1.359375
377,1695772768409,-0.088378906,-1.0127563,0.08026123,-0.234375,-4.75,-3.40625
378,1695772768437,-0.06665039,-0.9758911,0.07757568,-0.78125,-2.1875,-2.625
379,1695772768482,-0.087646484,-1.0112915,0.07904053,-0.796875,-2.84375,-3.953125
380,1695772768510,-0.05102539,-0.9963989,0.0993042,-1.734375,-0.765625,-2.984375
381,1695772768558,-0.083984375,-1.0110474,0.10858154,0.78125,-0.890625,-0.484375
382,1695772768606,-0.087402344,-0.98760986,0.09979248,-0.171875,1.484375,-1.125
383,1695772768632,-0.07348633,-0.98272705,0.089782715,-0.484375,1.75,-0.109375
384,1695772768682,-0.072753906,-1.0037231,0.07098389,-2.9375,-0.359375,0.03125
385,1695772768724,-0.033935547,-0.9944458,0.070739746,0.1875,-1.140625,-1.140625
386,1695772768753,-0.08105469,-0.9932251,0.07220459,-0.546875,-4.0625,1.046875
387,1695772768799,-0.09692383,-0.9951782,0.08709717,-1.40625,-3.0625,0.25
388,1695772768830,-0.11425781,-0.9898071,0.094177246,0.296875,-2.640625,-0.53125
389,1695772768875,-0.08691406,-0.9937134,0.10272217,-0.5,1.09375,-1.84375
390,1695772768916,-0.056396484,-1.006897,0.070495605,-2.1875,0.28125,-0.5
391,1695772768948,-0.08935547,-0.97052,0.09246826,0.375,0.53125,0.453125
392,1695772768994,-0.034179688,-1.0076294,0.0758667,2.765625,-0.390625,1.15625
393,1695772769036,-0.068115234,-0.9873657,0.08514404,0.03125,-0.375,1.0625
394,1695772769070,-0.071777344,-0.9920044,0.093688965,0.921875,2.15625,-2.859375
395,1695772769114,-0.09057617,-1.006897,0.094177246,-2.734375,0.046875,-1.71875
396,1695772769143,-0.095214844,-0.9866333,0.07318115,-0.65625,0.578125,2.875
397,1695772769188,-0.07324219,-1.0005493,0.061950684,-0.28125,1.390625,2.625
398,1695772769232,-0.06640625,-0.97491455,0.07562256,-1.21875,0.046875,-0.390625
399,1695772769263,-0.072021484,-1.0095825,0.07879639,-2.015625,-0.265625,-0.375
400,1695772769307,-0.08227539,-1.0154419,0.08123779,-3.453125,1.578125,0.234375
401,1695772769351,-0.049072266,-0.99005127,0.08074951,-1.34375,2.375,0.984375
402,1695772769383,-0.06323242,-0.98223877,0.07952881,-0.15625,1.765625,-0.15625
403,1695772769426,-0.06225586,-0.9920044,0.10272217,-0.59375,2.9375,-0.140625
404,1695772769457,-0.061523438,-0.9939575,0.09539795,-0.46875,2.703125,1.109375
405,1695772769510,-0.08911133,-0.9890747,0.09320068,-1.328125,2.859375,3.78125
406,1695772769546,-0.07446289,-0.9771118,0.09075928,-1.453125,0.953125,-0.921875
407,1695772769576,-0.044921875,-1.0073853,0.06951904,-2.4375,1.3125,-4.09375
408,1695772769621,-0.095947266,-1.0337524,0.0993042,-0.765625,3.046875,1.6875
409,1695772769654,-0.033935547,-1.0029907,0.08660889,-1.828125,2.78125,2.421875
410,1695772769698,-0.09448242,-0.9607544,0.086364746,-2.421875,3.359375,-0.65625
411,1695772769742,-0.049072266,-1.019104,0.10638428,-3.296875,3.21875,-2.96875
412,1695772769773,-0.056884766,-1.0130005,0.09320068,-5.84375,1.96875,-0.5
413,1695772769818,-0.051513672,-0.9636841,0.08660889,-1.09375,4.125,-1.4375
414,1695772769865,-0.056884766,-0.99346924,0.11590576,-2.421875,0.671875,-1.546875
415,1695772769894,-0.059326172,-0.99005127,0.14398193,-8.8125,-1.140625,-1.46875
416,1695772769937,-0.06933594,-0.9824829,0.14520264,-7.1875,2.484375,-6.25
417,1695772769968,-0.0769043,-1.0025024,0.18109131,-2.40625,0.546875,-2.296875
418,1695772770011,-0.13452148,-1.0291138,0.14691162,1.46875,0.8125,2.59375
419,1695772770060,-0.099853516,-0.9307251,0.12542725,-2.90625,6.09375,8.109375
420,1695772770089,-0.079833984,-0.9956665,0.18377686,17.265625,2.921875,7.625
421,1695772770131,-0.029052734,-1.0720825,0.070739746,5.765625,4.421875,4.75
422,1695772770178,-0.061523438,-0.9351196,0.15081787,0.4375,-0.140625,-1.015625
423,1695772770208,-0.064453125,-0.96099854,0.08856201,1.3125,2.96875,-4.9375
424,1695772770251,-0.009521484,-1.0071411,0.027038574,1.078125,3.40625,2.171875
425,1695772770281,-0.05126953,-0.9824829,0.09490967,9.171875,-0.828125,0.546875
426,1695772770328,-0.053466797,-1.0418091,0.08392334,4.328125,-0.1875,2.59375
427,1695772770373,-0.057617188,-0.9846802,0.054870605,-0.515625,-2.109375,0.125
428,1695772770403,-0.028320312,-0.95562744,0.0289917,2.859375,-1.421875,-4.484375
429,1695772770446,-0.037109375,-0.960022,0.07659912,-5.21875,-5.6875,-4.0
430,1695772770492,-0.049316406,-1.0281372,0.0914917,-0.203125,-4.96875,-3.59375
431,1695772770523,-0.07324219,-1.019104,0.09100342,-0.625,-2.59375,-2.859375
432,1695772770566,-0.08105469,-1.0056763,0.08685303,1.46875,-3.015625,-3.578125
433,1695772770597,-0.0859375,-0.97198486,0.05340576,-3.109375,-3.796875,0.0
434,1695772770643,-0.08911133,-0.9692993,0.06829834,-2.53125,-4.109375,-1.796875
435,1695772770690,-0.06591797,-1.0227661,0.07562256,-0.140625,-3.484375,-4.125
436,1695772770717,-0.09399414,-1.0271606,0.08001709,-4.359375,-1.984375,-3.015625
437,1695772770763,-0.087402344,-0.9829712,0.08001709,-0.6875,-1.84375,-0.875
438,1695772770809,-0.059570312,-0.97979736,0.093933105,-0.234375,-1.421875,-1.90625
439,1695772770835,-0.10107422,-1.0144653,0.06414795,-3.140625,-1.1875,-1.21875
440,1695772770878,-0.09375,-0.9968872,0.09613037,-3.140625,-1.390625,-1.15625
441,1695772770909,-0.07397461,-1.0015259,0.101989746,-1.1875,-1.84375,-3.171875
442,1695772770956,-0.09692383,-1.0039673,0.08782959,-2.375,-0.28125,-1.796875
443,1695772771011,-0.076416016,-0.9771118,0.08709717,-0.0625,-0.203125,-3.140625
444,1695772771029,-0.0949707,-1.0130005,0.09197998,-1.796875,-1.65625,-1.515625
445,1695772771074,-0.10107422,-0.97247314,0.09466553,-0.640625,-1.359375,-0.53125
446,1695772771119,-0.095703125,-1.0098267,0.08880615,-2.25,-2.859375,-3.59375
447,1695772771149,-0.11328125,-0.9956665,0.09613037,-2.109375,-1.734375,-1.375
448,1695772771194,-0.09472656,-0.97540283,0.089782715,0.796875,-1.1875,-1.828125
449,1695772771223,-0.10449219,-1.0007935,0.09490967,-3.109375,-1.765625,-3.171875
450,1695772771269,-0.11425781,-0.9885864,0.09832764,-2.8125,-2.453125,-3.390625
451,1695772771315,-0.12036133,-0.9873657,0.09515381,-0.234375,-1.265625,-3.703125
452,1695772771345,-0.11450195,-0.9883423,0.10369873,-0.875,-2.828125,-5.515625
453,1695772771389,-0.1381836,-0.989563,0.097351074,0.71875,-3.15625,-4.03125
454,1695772771435,-0.1303711,-0.9993286,0.105163574,-3.09375,-1.609375,-4.3125
455,1695772771467,-0.1628418,-0.98394775,0.093933105,-1.34375,-1.1875,-3.125
456,1695772771509,-0.12939453,-0.9898071,0.10736084,-1.953125,-0.40625,-3.453125
457,1695772771540,-0.12158203,-0.9927368,0.11175537,-1.453125,-2.40625,-1.96875
458,1695772771584,-0.16455078,-1.0178833,0.09051514,-2.46875,-1.328125,1.140625
459,1695772771629,-0.14672852,-0.9573364,0.09588623,-6.28125,-3.375,-1.578125
460,1695772771658,-0.18457031,-1.0132446,0.0927124,-0.9375,-2.4375,0.375
461,1695772771705,-0.14672852,-0.9768677,0.13348389,-1.546875,-1.21875,-0.5
462,1695772771749,-0.15576172,-1.013977,0.11859131,-1.359375,-4.890625,-2.40625
463,1695772771781,-0.13110352,-0.9763794,0.10491943,-6.625,-2.953125,-3.1875
464,1695772771827,-0.11621094,-1.0049438,0.1305542,2.4375,-4.765625,-2.703125
465,1695772771857,-0.171875,-1.0142212,0.11199951,-6.390625,-4.84375,2.4375
466,1695772771905,-0.1328125,-0.9290161,0.1461792,-2.453125,-3.140625,-3.609375
467,1695772771948,-0.18579102,-1.0252075,0.08782959,-1.203125,-0.765625,-3.484375
468,1695772771977,-0.16748047,-0.9373169,0.13861084,-7.09375,2.25,-0.234375
469,1695772772023,-0.14477539,-1.013977,0.1864624,1.1875,-3.046875,-6.890625
470,1695772772098,-0.20605469,-1.0122681,0.14984131,-9.984375,-3.65625,-7.375
471,1695772772101,-0.18774414,-0.9717407,0.15838623,6.0,2.484375,-0.25
472,1695772772142,-0.22094727,-0.9649048,0.11810303,-2.40625,4.84375,6.53125
473,1695772772173,-0.17675781,-0.93170166,0.08050537,2.5,0.453125,7.078125
474,1695772772232,-0.12768555,-0.9680786,0.13250732,6.140625,-0.234375,1.53125
475,1695772772262,-0.16308594,-1.0271606,0.11883545,6.90625,1.25,4.921875
476,1695772772293,-0.13256836,-0.9939575,0.081970215,-0.234375,-1.796875,2.03125
477,1695772772336,-0.16064453,-0.95318604,0.09197998,0.625,-0.40625,0.28125
478,1695772772383,-0.18481445,-1.0122681,0.13275146,0.234375,1.078125,3.015625
479,1695772772411,-0.15039062,-0.9981079,0.10296631,-1.03125,4.28125,4.625
480,1695772772461,-0.11206055,-0.98321533,0.12615967,-2.171875,1.96875,2.90625
481,1695772772486,-0.14477539,-0.95758057,0.11004639,0.03125,4.234375,5.015625
482,1695772772535,-0.11645508,-0.9837036,0.117614746,-1.328125,3.109375,3.640625
483,1695772772580,-0.12719727,-1.0061646,0.12567139,1.0,-0.046875,1.921875
484,1695772772606,-0.115234375,-1.0247192,0.121276855,1.640625,4.734375,2.46875
485,1695772772651,-0.12109375,-0.9961548,0.11541748,1.375,4.578125,4.75
486,1695772772696,-0.11425781,-0.95440674,0.10321045,1.125,4.484375,3.96875
487,1695772772726,-0.11010742,-0.99835205,0.08831787,1.609375,6.828125,5.0625
488,1695772772771,-0.08178711,-1.0044556,0.109313965,2.546875,5.515625,4.953125
489,1695772772805,-0.07397461,-0.99591064,0.13006592,3.015625,6.9375,4.203125
490,1695772772846,-0.06982422,-0.99542236,0.08392334,-0.921875,7.171875,6.15625
491,1695772772895,-0.06298828,-1.0007935,0.08001709,-3.6875,7.34375,6.21875
492,1695772772923,-0.047851562,-0.96417236,0.101257324,1.40625,6.390625,6.28125
493,1695772772965,-0.040527344,-1.0164185,0.1083374,5.25,7.109375,6.71875
494,1695772773013,-0.06982422,-1.0274048,0.09075928,0.03125,6.484375,7.359375
495,1695772773041,-0.03857422,-0.96417236,0.07977295,1.921875,6.546875,5.28125
496,1695772773087,-0.041503906,-0.987854,0.07196045,-1.015625,8.265625,4.046875
497,1695772773116,-0.04711914,-1.0071411,0.08782959,3.78125,8.65625,7.421875
498,1695772773164,-0.020751953,-1.0056763,0.08880615,-4.875,9.28125,4.28125
499,1695772773209,0.0031738281,-1.0005493,0.08099365,-0.78125,9.3125,6.671875
500,1695772773237,-0.0029296875,-0.9871216,0.05657959,1.1875,11.765625,5.078125
501,1695772773284,0.057617188,-0.9602661,0.06097412,-3.359375,6.875,4.328125
502,1695772773318,0.064697266,-0.9939575,0.07293701,1.734375,3.390625,2.828125
503,1695772773357,0.075927734,-0.9993286,0.08392334,-2.703125,3.546875,0.359375
504,1695772773408,0.07910156,-0.98321533,0.085876465,-2.578125,-1.453125,-1.890625
505,1695772773432,0.052246094,-1.0239868,0.070739746,-2.140625,-1.84375,-4.21875
506,1695772773475,-0.0024414062,-0.9898071,0.07269287,-2.015625,-2.78125,-1.40625
507,1695772773520,0.0146484375,-0.9776001,0.062194824,-5.015625,-3.65625,-7.328125
508,1695772773551,0.010986328,-1.0056763,0.09490967,-5.546875,-4.78125,-8.15625
509,1695772773597,0.008300781,-0.99957275,0.06781006,-2.25,-7.75,-8.09375
510,1695772773627,-0.018798828,-0.9800415,0.101989746,-6.5625,-8.625,-9.3125
511,1695772773674,-0.061035156,-0.9793091,0.15838623,-5.5625,-8.265625,-5.15625
512,1695772773716,-0.08569336,-1.0283813,0.14202881,-10.546875,-9.859375,-6.734375
513,1695772773746,-0.08935547,-1.0237427,0.14129639,-17.640625,-10.046875,-10.53125
514,1695772773789,-0.092041016,-1.0134888,0.15374756,-16.046875,-6.9375,-13.59375
515,1695772773834,0.021728516,-0.9158325,0.19647217,11.453125,0.578125,-12.734375
516,1695772773864,-0.02368164,-0.99346924,0.12030029,7.15625,-1.421875,-14.8125
517,1695772773909,-0.14038086,-0.9446411,0.15228271,10.40625,-7.59375,-3.890625
518,1695772773939,-0.17919922,-0.9817505,0.16741943,17.71875,-7.34375,-5.40625
519,1695772773984,-0.08520508,-1.0379028,0.07928467,-0.609375,-9.078125,-8.703125
520,1695772774031,-0.21142578,-1.010315,0.070739746,-4.75,-7.84375,2.234375
521,1695772774058,-0.17041016,-0.911438,0.11175537,7.65625,-0.109375,-2.953125
522,1695772774105,-0.16137695,-1.0745239,0.10882568,-5.109375,-5.671875,-6.6875
523,1695772774149,-0.1652832,-0.98272705,0.121032715,-9.046875,1.015625,-5.984375
524,1695772774180,-0.14819336,-0.9661255,0.12445068,-0.765625,-0.25,-3.453125
525,1695772774224,-0.19848633,-0.9483032,0.11834717,-0.75,-5.078125,2.640625
526,1695772774254,-0.15844727,-0.9710083,0.14471436,0.84375,-3.25,1.546875
527,1695772774299,-0.15698242,-1.034729,0.12005615,0.140625,0.90625,-0.578125
528,1695772774344,-0.18359375,-0.97906494,0.10614014,-0.6875,2.390625,5.15625
529,1695772774376,-0.15722656,-0.9536743,0.11151123,3.078125,0.140625,2.078125
530,1695772774420,-0.122558594,-1.0237427,0.10736084,-0.671875,1.421875,0.609375
531,1695772774465,-0.14770508,-0.9854126,0.08782959,-0.6875,2.0625,2.4375
532,1695772774495,-0.13745117,-0.99664307,0.094177246,4.28125,1.5625,0.140625
533,1695772774540,-0.17236328,-1.003479,0.11029053,-0.234375,2.796875,1.5625
534,1695772774570,-0.14013672,-1.0020142,0.09613037,0.65625,4.6875,5.265625
535,1695772774614,-0.12475586,-0.9651489,0.093688965,0.09375,4.46875,5.953125
536,1695772774660,-0.13745117,-0.9783325,0.07562256,1.078125,4.0,4.390625
537,1695772774691,-0.1171875,-1.0071411,0.07952881,2.328125,5.90625,4.640625
538,1695772774735,-0.04711914,-0.9985962,0.08050537,-1.234375,2.4375,3.671875
539,1695772774784,-0.08862305,-1.0110474,0.07928467,-3.5625,-1.859375,5.78125
540,1695772774813,-0.09472656,-0.9841919,0.08782959,-1.015625,0.109375,4.46875
541,1695772774857,-0.10864258,-0.9741821,0.093688965,1.21875,-0.109375,2.984375
542,1695772774888,-0.13574219,-0.9998169,0.09613037,-1.359375,2.75,0.625
543,1695772774934,-0.084228516,-1.0327759,0.07293701,-2.765625,4.765625,1.125
544,1695772774979,-0.05859375,-1.0132446,0.08758545,-1.90625,4.515625,4.84375
545,1695772775008,-0.032958984,-1.0083618,0.09051514,-0.515625,4.890625,4.375
546,1695772775052,-0.009765625,-0.98394775,0.07196045,-3.328125,1.28125,-0.078125
547,1695772775097,-0.034423828,-0.96539307,0.0770874,-5.5,-4.234375,-2.515625
548,1695772775129,-0.064208984,-0.97052,0.10760498,-0.40625,-5.921875,-1.90625
549,1695772775173,-0.099365234,-1.013977,0.14202881,-4.734375,-7.5,-0.15625
550,1695772775200,-0.080566406,-0.9768677,0.13323975,-3.421875,-5.5,-2.84375
551,1695772775248,-0.10986328,-1.0134888,0.12054443,0.375,-1.3125,-1.703125
552,1695772775291,-0.088378906,-1.0083618,0.12445068,-6.28125,0.3125,-0.59375
553,1695772775322,-0.061523438,-0.9819946,0.11663818,-3.890625,-0.234375,-1.125
554,1695772775371,-0.06567383,-0.9456177,0.13250732,0.703125,1.6875,-0.5625
555,1695772775414,-0.08520508,-1.0046997,0.1461792,-2.21875,1.734375,-2.46875
556,1695772775442,-0.0715332,-0.9807739,0.14276123,-2.421875,2.03125,-2.203125
557,1695772775486,-0.037353516,-0.9898071,0.11248779,-2.859375,1.640625,-3.5625
558,1695772775516,-0.068115234,-1.0247192,0.124938965,-3.53125,-0.53125,-0.65625
559,1695772775560,-0.14208984,-1.0166626,0.14544678,-3.171875,-1.984375,1.78125
560,1695772775609,-0.10131836,-0.9817505,0.168396,-2.640625,-1.265625,-0.921875
561,1695772775641,-0.15625,-0.99053955,0.14910889,-3.890625,-0.4375,0.171875
562,1695772775683,-0.13427734,-0.94732666,0.14056396,0.734375,3.0625,-2.53125
563,1695772775726,-0.048828125,-0.9763794,0.15814209,2.140625,7.09375,-4.1875
564,1695772775756,-0.012207031,-0.97198486,0.1293335,-3.703125,2.6875,-2.3125
565,1695772775803,-0.083496094,-1.0032349,0.12371826,-5.5625,-3.546875,-0.171875
566,1695772775832,-0.10107422,-1.0332642,0.168396,-3.28125,-5.203125,-4.703125
567,1695772775877,-0.1328125,-1.0308228,0.14422607,-4.09375,-4.640625,-6.09375
568,1695772775923,-0.11694336,-0.9614868,0.17547607,-0.671875,-2.234375,-5.03125
569,1695772775951,-0.1628418,-0.9902954,0.1720581,0.671875,-1.40625,-2.140625
570,1695772775997,-0.1899414,-0.9717407,0.15447998,-2.515625,0.609375,-0.078125
571,1695772776072,-0.111816406,-0.9649048,0.1642456,0.296875,3.03125,-3.78125
572,1695772776075,-0.06298828,-0.99102783,0.16546631,-0.515625,2.078125,-3.0625
573,1695772776122,-0.12402344,-1.0029907,0.16278076,-2.109375,0.609375,0.859375
574,1695772776150,-0.107910156,-0.9949341,0.17401123,0.890625,-0.8125,-1.53125
575,1695772776195,-0.14111328,-0.9968872,0.15325928,0.28125,-1.6875,-2.28125
576,1695772776235,-0.12915039,-0.973938,0.15667725,0.453125,0.03125,-4.5
577,1695772776265,-0.15527344,-0.9727173,0.1630249,0.796875,-1.703125,-4.0
578,1695772776312,-0.15283203,-1.0027466,0.1539917,0.90625,0.28125,-2.0
579,1695772776359,-0.12915039,-0.9717407,0.15887451,-0.765625,-0.28125,-1.390625
580,1695772776387,-0.17285156,-0.99664307,0.14984131,0.375,-1.203125,-1.515625
581,1695772776431,-0.14941406,-0.96099854,0.15130615,1.078125,0.390625,-2.78125
582,1695772776462,-0.15820312,-1.0186157,0.15789795,0.953125,-0.515625,-2.734375
583,1695772776506,-0.16235352,-0.9795532,0.13079834,-1.0,1.0,-1.296875
584,1695772776554,-0.13500977,-0.99468994,0.14691162,0.078125,-0.890625,-4.65625
585,1695772776585,-0.18041992,-0.98931885,0.14422607,1.125,0.3125,0.921875
586,1695772776632,-0.17358398,-0.97857666,0.1539917,1.03125,-1.0625,-2.5625
587,1695772776675,-0.20996094,-0.97491455,0.13739014,1.078125,-0.59375,-2.9375
588,1695772776706,-0.1821289,-0.9612427,0.13226318,-1.8125,0.640625,-5.265625
589,1695772776748,-0.1850586,-0.9819946,0.14300537,0.921875,0.796875,-1.234375
590,1695772776776,-0.13867188,-0.9932251,0.14300537,-1.796875,0.203125,-1.3125
591,1695772776821,-0.16821289,-1.0044556,0.1708374,-1.953125,-3.09375,-0.953125
592,1695772776872,-0.18017578,-1.0010376,0.13665771,-0.484375,-0.765625,1.546875
593,1695772776898,-0.18286133,-0.96099854,0.14349365,-1.09375,-1.46875,-0.6875
594,1695772776943,-0.19067383,-0.95880127,0.14349365,2.859375,-2.296875,-0.453125
595,1695772776997,-0.20141602,-1.0117798,0.14276123,-2.375,-1.140625,-1.65625
596,1695772777018,-0.17797852,-0.9710083,0.15057373,3.078125,0.390625,-0.203125
597,1695772777067,-0.17163086,-1.0269165,0.11981201,1.640625,-0.765625,0.625
598,1695772777092,-0.19873047,-0.9434204,0.121032715,-1.828125,2.203125,2.984375
599,1695772777139,-0.17529297,-0.98150635,0.14886475,3.171875,1.609375,0.484375
600,1695772777187,-0.18139648,-1.0171509,0.14349365,-3.578125,2.84375,1.46875
601,1695772777215,-0.15991211,-0.95684814,0.113708496,-3.5625,3.328125,-1.203125
602,1695772777258,-0.1694336,-0.9529419,0.15325928,1.515625,5.40625,0.234375
603,1695772777287,-0.1772461,-1.0178833,0.15008545,6.015625,7.125,6.0
604,1695772777335,-0.18481445,-0.96588135,0.11956787,2.96875,4.0625,5.125
605,1695772777377,-0.13598633,-0.9981079,0.13739014,3.421875,6.15625,0.765625
606,1695772777409,-0.1538086,-0.99884033,0.105895996,3.0625,5.96875,3.21875
607,1695772777452,-0.1459961,-0.9805298,0.1005249,2.6875,7.046875,5.0625
608,1695772777499,-0.15112305,-1.0007935,0.08319092,0.875,3.78125,3.875
609,1695772777527,-0.1262207,-0.9780884,0.078552246,0.6875,8.34375,-0.390625
610,1695772777571,-0.1171875,-1.039856,0.12322998,6.015625,6.8125,3.890625
611,1695772777607,-0.13232422,-0.9614868,0.11004639,-2.28125,0.59375,3.109375
612,1695772777646,-0.15307617,-0.9714966,0.14251709,-2.515625,-2.640625,1.921875
613,1695772777694,-0.10498047,-0.9734497,0.090026855,-1.46875,1.421875,-0.5
614,1695772777723,-0.12939453,-1.0674438,0.10784912,2.765625,1.609375,4.0625
615,1695772777767,-0.1394043,-1.0681763,0.054382324,1.46875,-1.921875,8.296875
616,1695772777812,-0.17749023,-0.95098877,0.07904053,3.390625,8.578125,11.25
617,1695772777841,-0.03515625,-0.87628174,0.06536865,3.8125,8.75,2.84375
618,1695772777885,-0.14624023,-0.9446411,0.04534912,-2.203125,1.234375,6.609375
619,1695772777916,0.049072266,-0.96881104,0.093444824,9.5625,3.71875,1.28125
620,1695772777963,0.028808594,-1.114563,0.12322998,-1.34375,-1.78125,-4.921875
621,1695772778007,-0.048339844,-0.9846802,0.07757568,-3.859375,-8.828125,0.359375
622,1695772778036,-0.09106445,-0.9717407,0.047790527,-2.515625,-8.875,-4.375
623,1695772778081,-0.13745117,-0.97125244,0.105651855,-2.046875,-3.3125,5.28125
624,1695772778128,-0.10449219,-1.0064087,0.101989746,3.171875,0.390625,2.25
625,1695772778158,-0.115234375,-0.9985962,0.06488037,-2.203125,-0.234375,2.1875
626,1695772778202,-0.07299805,-0.96051025,0.101257324,-0.203125,1.90625,-0.765625
627,1695772778241,-0.08325195,-1.0286255,0.07269287,-0.796875,4.671875,4.21875
628,1695772778280,-0.048095703,-0.986145,0.074157715,-3.609375,2.734375,5.09375
629,1695772778323,-0.032226562,-1.0230103,0.105895996,1.75,3.84375,1.484375
630,1695772778353,-0.032226562,-0.9793091,0.07611084,-2.0625,1.875,1.375
631,1695772778399,-0.045654297,-0.98565674,0.07513428,-3.9375,-1.75,-1.1875
632,1695772778442,-0.052978516,-0.99591064,0.061950684,-5.265625,-2.75,-2.0
633,1695772778471,-0.06933594,-0.95758057,0.08905029,-3.953125,1.859375,-1.328125
634,1695772778519,-0.07739258,-1.0154419,0.14666748,2.65625,4.515625,3.03125
635,1695772778547,-0.075927734,-1.0310669,0.10321045,-4.546875,0.90625,1.328125
636,1695772778591,-0.049560547,-0.98321533,0.078308105,-2.21875,3.203125,-1.625
637,1695772778646,-0.016113281,-0.98883057,0.07952881,1.03125,4.578125,-0.84375
638,1695772778672,-0.03173828,-1.005188,0.093933105,0.359375,-1.71875,2.53125
639,1695772778713,-0.049560547,-1.0027466,0.101257324,-0.671875,-5.125,0.34375
640,1695772778758,-0.0859375,-1.0278931,0.09173584,-2.078125,-0.640625,-1.0
641,1695772778791,-0.083740234,-0.9692993,0.101989746,-1.65625,0.421875,-2.203125
642,1695772778845,-0.052978516,-0.9536743,0.10760498,0.71875,4.90625,-2.046875
643,1695772778860,0.033203125,-0.94000244,0.081970215,-3.8125,1.71875,-6.421875
644,1695772778906,-0.0087890625,-1.0623169,0.08929443,-5.40625,-5.734375,-10.984375
645,1695772778955,-0.084472656,-1.0825806,0.08758545,0.90625,-9.3125,-5.328125
646,1695772778981,-0.111572266,-0.95977783,0.11785889,-0.640625,-9.125,-5.890625
647,1695772779027,-0.1586914,-0.9692993,0.08050537,0.828125,-6.234375,-7.421875
648,1695772779073,-0.12670898,-0.9746704,0.10369873,-5.21875,-4.453125,-8.84375
649,1695772779099,-0.1237793,-0.9841919,0.11395264,-0.375,-5.859375,-6.796875
650,1695772779145,-0.14892578,-0.9944458,0.101745605,-3.65625,-4.703125,-4.921875
651,1695772779178,-0.118652344,-0.9780884,0.12249756,-3.84375,-3.953125,-5.875
652,1695772779222,-0.15551758,-1.0254517,0.10443115,-3.75,-4.265625,-2.84375
653,1695772779268,-0.14404297,-0.9795532,0.124694824,-2.421875,-2.46875,-2.515625
654,1695772779299,-0.17504883,-0.99346924,0.1317749,-1.71875,-2.0,-1.578125
655,1695772779344,-0.1381836,-0.9717407,0.1293335,-3.421875,-0.171875,-2.796875
656,1695772779386,-0.17822266,-0.99542236,0.11956787,-5.046875,0.140625,-0.71875
657,1695772779416,-0.14355469,-0.9385376,0.16522217,0.375,2.671875,-1.296875
658,1695772779462,-0.16674805,-1.0112915,0.1473999,3.859375,2.703125,1.53125
659,1695772779491,-0.16870117,-1.00177,0.12322998,-5.109375,0.40625,2.96875
660,1695772779537,-0.119384766,-0.9614868,0.11053467,-0.46875,0.75,-0.25
661,1695772779583,-0.14331055,-1.022522,0.13861084,0.03125,0.0,1.828125
662,1695772779610,-0.1640625,-0.9776001,0.1149292,-2.40625,-1.671875,1.84375
663,1695772779658,-0.14282227,-0.9746704,0.1437378,0.359375,-1.375,-0.765625
664,1695772779703,-0.13842773,-0.98931885,0.11859131,1.71875,-0.546875,-0.15625
665,1695772779731,-0.13623047,-1.00177,0.12786865,-1.078125,-0.953125,-0.0625
666,1695772779775,-0.12475586,-0.9859009,0.12054443,-1.5,-1.09375,0.65625
667,1695772779805,-0.14697266,-0.98809814,0.121276855,-0.328125,0.1875,1.125
668,1695772779851,-0.111083984,-0.9824829,0.14105225,-0.328125,-0.75,-0.5625
669,1695772779896,-0.14086914,-0.9985962,0.13934326,-2.203125,-3.125,-0.1875
670,1695772779929,-0.12670898,-0.97442627,0.12200928,-0.046875,-0.65625,-1.34375
671,1695772779972,-0.15307617,-1.017395,0.14007568,1.0,-2.390625,1.25
672,1695772780049,-0.14501953,-0.9627075,0.10369873,0.40625,0.765625,1.421875
673,1695772780054,-0.115478516,-0.9776001,0.13397217,0.9375,0.046875,-0.09375
674,1695772780092,-0.14990234,-1.0098267,0.12567139,-0.953125,-1.015625,1.9375
675,1695772780123,-0.15527344,-1.0093384,0.11419678,-3.25,-0.96875,2.4375
676,1695772780169,-0.21411133,-0.9841919,0.12176514,1.75,1.6875,10.265625
677,1695772780214,-0.06738281,-0.9768677,0.11541748,-2.640625,5.75,1.34375
678,1695772780243,-0.1015625,-1.0115356,0.1071167,-0.921875,2.34375,4.71875
679,1695772780286,-0.087402344,-1.0200806,0.10760498,0.359375,1.53125,3.46875
680,1695772780333,-0.115478516,-0.960022,0.14300537,2.34375,0.265625,6.9375
681,1695772780362,-0.09277344,-0.97784424,0.121520996,-3.328125,1.34375,4.65625
682,1695772780406,-0.020751953,-0.9668579,0.15008545,-2.875,1.421875,-0.390625
683,1695772780437,-0.07470703,-1.0454712,0.116882324,1.046875,0.53125,3.296875
684,1695772780484,-0.061279297,-0.9402466,0.11639404,-1.921875,2.609375,0.875
685,1695772780525,-0.099853516,-1.0310669,0.15594482,3.0625,1.609375,2.4375
686,1695772780556,-0.055908203,-1.0098267,0.105895996,-2.546875,5.34375,0.171875
687,1695772780602,-0.06542969,-0.9854126,0.10345459,1.265625,3.796875,0.5625
688,1695772780650,-0.07348633,-0.9771118,0.117370605,1.828125,5.9375,2.53125
689,1695772780679,-0.07299805,-0.95928955,0.11248779,0.171875,4.8125,2.1875
690,1695772780721,-0.0859375,-1.0256958,0.11932373,3.765625,2.71875,0.125
691,1695772780752,-0.04248047,-0.9768677,0.105163574,-3.1875,1.96875,-1.109375
692,1695772780800,-0.08276367,-0.9939575,0.097839355,-1.1875,2.921875,-3.21875
693,1695772780842,-0.01586914,-0.99005127,0.11932373,-1.140625,5.671875,-3.734375
694,1695772780872,-0.021484375,-1.0061646,0.13519287,0.765625,4.203125,-1.96875
695,1695772780917,-0.06274414,-1.0015259,0.08880615,-1.390625,2.078125,-4.140625
696,1695772780962,-0.095947266,-1.0349731,0.124694824,-2.890625,-0.625,-7.078125
697,1695772781001,-0.14453125,-1.0171509,0.11663818,-1.171875,3.859375,-2.578125
698,1695772781038,-0.16552734,-0.99957275,0.074645996,11.984375,10.3125,8.078125
699,1695772781066,-0.07128906,-1.0025024,0.12347412,3.921875,6.15625,6.5
700,1695772781111,-0.05859375,-0.94244385,0.06878662,-8.34375,2.890625,0.328125
701,1695772781157,-0.091308594,-1.0220337,0.08831787,8.296875,3.5625,-2.46875
702,1695772781186,-0.05126953,-0.9639282,0.057556152,4.875,2.609375,-0.6875
703,1695772781232,-0.020507812,-0.925354,0.08294678,8.546875,-2.3125,-1.640625
704,1695772781263,-0.022460938,-0.9607544,0.066101074,-0.890625,-3.4375,1.25
705,1695772781307,-0.07324219,-0.97613525,0.08123779,-5.609375,-7.359375,-4.15625
706,1695772781352,-0.07421875,-1.0689087,0.08831787,-5.84375,-8.46875,-7.515625
707,1695772781384,-0.041015625,-1.036438,0.11175537,-3.828125,-4.140625,-8.03125
708,1695772781428,-0.12060547,-1.0352173,0.07879639,-4.09375,-3.625,0.59375
709,1695772781472,-0.1977539,-0.9522095,0.07635498,-4.03125,-6.46875,0.921875
710,1695772781502,-0.10864258,-0.9365845,0.117126465,1.125,-1.90625,-5.25
711,1695772781546,-0.08642578,-1.0369263,0.09197998,-4.71875,0.53125,-5.078125
712,1695772781578,-0.096191406,-0.9932251,0.08758545,-3.671875,-1.78125,-1.96875
713,1695772781630,-0.09838867,-0.9920044,0.121032715,1.953125,-5.5625,-1.140625
714,1695772781665,-0.107666016,-0.99176025,0.08294678,-7.78125,-6.4375,-2.78125
715,1695772781695,-0.10839844,-0.97857666,0.1227417,-4.140625,-4.765625,-4.0625
716,1695772781741,-0.13696289,-1.0276489,0.12957764,4.859375,-4.46875,-1.734375
717,1695772781786,-0.17382812,-1.0020142,0.10614014,-5.65625,-2.65625,3.03125
718,1695772781817,-0.15039062,-0.9246216,0.12200928,-4.75,3.0625,-0.390625
719,1695772781862,-0.12646484,-0.97857666,0.15423584,2.03125,3.515625,1.140625
720,1695772781893,-0.10522461,-1.0171509,0.152771,0.5625,4.375,2.515625
721,1695772781941,-0.1184082,-1.0359497,0.12884521,-0.96875,2.171875,0.671875
722,1695772781983,-0.09301758,-0.9439087,0.13372803,1.953125,5.703125,1.765625
723,1695772782012,-0.075683594,-0.9710083,0.10418701,1.984375,1.765625,-0.4375
724,1695772782057,-0.122558594,-1.0054321,0.105407715,-1.96875,-1.546875,2.0625
725,1695772782102,-0.14794922,-0.9817505,0.13470459,2.59375,3.75,2.421875
726,1695772782134,-0.12524414,-1.0335083,0.11883545,-1.171875,3.453125,-0.84375
727,1695772782177,-0.0925293,-0.96539307,0.09906006,-3.109375,2.734375,-1.59375
728,1695772782207,-0.083740234,-1.0046997,0.11151123,1.375,3.71875,-1.140625
729,1695772782251,-0.09399414,-0.9866333,0.11077881,-0.25,1.6875,0.421875
730,1695772782297,-0.10986328,-1.0105591,0.12298584,1.546875,-2.265625,-1.890625
731,1695772782327,-0.091796875,-0.97540283,0.11053467,1.46875,0.203125,-2.984375
732,1695772782373,-0.091796875,-0.9849243,0.10369873,1.234375,-0.484375,-1.921875
733,1695772782418,-0.11621094,-0.98809814,0.093688965,1.234375,-2.21875,-2.375
734,1695772782447,-0.11621094,-1.0078735,0.10394287,-1.1875,-3.890625,-3.65625
735,1695772782491,-0.12207031,-1.0059204,0.09515381,0.859375,-1.75,-3.515625
736,1695772782522,-0.13452148,-1.0237427,0.090270996,-1.125,-1.03125,-3.671875
737,1695772782565,-0.1508789,-0.98516846,0.11029053,0.921875,-1.078125,-0.125
738,1695772782614,-0.16137695,-1.0064087,0.09246826,-1.53125,0.9375,2.15625
739,1695772782648,-0.15332031,-0.9534302,0.09197998,-1.8125,1.21875,1.453125
740,1695772782686,-0.10913086,-1.0039673,0.09686279,0.828125,4.296875,1.90625
741,1695772782742,-0.10229492,-0.98687744,0.074401855,-1.78125,3.21875,3.5625
742,1695772782767,-0.11254883,-0.9795532,0.11102295,4.984375,2.4375,4.25
743,1695772782808,-0.114990234,-0.9949341,0.09490967,0.984375,-1.03125,2.078125
744,1695772782835,-0.095214844,-0.9849243,0.08123779,-9.6875,-5.5625,-1.9375
745,1695772782880,-0.12060547,-0.98321533,0.08441162,-7.125,-4.25,-3.5625
746,1695772782925,-0.091552734,-0.9824829,0.117614746,0.5625,-0.890625,-2.546875
747,1695772782954,-0.12866211,-1.0100708,0.11517334,-4.453125,-3.234375,1.1875
748,1695772783000,-0.13647461,-0.9871216,0.1239624,-6.34375,-0.609375,-1.328125
749,1695772783045,-0.11010742,-1.0232544,0.14056396,-8.28125,4.265625,-2.59375
750,1695772783076,-0.11206055,-1.0159302,0.14935303,-6.390625,5.78125,-1.46875
751,1695772783121,-0.17382812,-0.94317627,0.1383667,7.203125,6.859375,3.703125
752,1695772783152,-0.08618164,-1.0652466,0.098083496,15.671875,8.71875,5.859375
753,1695772783196,-0.07348633,-0.9077759,0.054870605,2.671875,-0.328125,6.640625
754,1695772783242,-0.06689453,-0.9534302,0.08074951,10.734375,-2.0,1.40625
755,1695772783272,-0.10131836,-1.0108032,0.1281128,-2.875,-1.734375,-1.53125
756,1695772783317,-0.111816406,-0.98883057,0.0836792,-4.265625,-6.875,-0.109375
757,1695772783363,-0.111572266,-1.0254517,0.11663818,-1.9375,-2.78125,-2.421875
758,1695772783392,-0.099365234,-0.99346924,0.10760498,3.5,2.625,1.046875
759,1695772783438,-0.11987305,-0.9968872,0.059265137,-1.78125,-1.140625,2.9375
760,1695772783466,-0.09423828,-0.97052,0.09588623,-5.328125,-3.328125,2.390625
761,1695772783512,-0.08081055,-1.0130005,0.11517334,-1.984375,-1.359375,1.25
762,1695772783555,-0.083740234,-1.0247192,0.093444824,-3.96875,0.671875,-2.84375
763,1695772783585,-0.09057617,-0.9907837,0.08514404,-4.796875,1.375,-0.265625
764,1695772783634,-0.09838867,-1.0020142,0.09173584,-2.984375,2.65625,4.25
765,1695772783679,-0.05517578,-0.9663696,0.10809326,-4.734375,2.5,3.25
766,1695772783706,-0.063964844,-1.0203247,0.13031006,-2.703125,-0.421875,0.203125
767,1695772783751,-0.07543945,-1.017395,0.12298584,-4.71875,-0.328125,-0.390625
768,1695772783783,-0.080566406,-0.98565674,0.13201904,-3.1875,-1.03125,-1.96875
769,1695772783826,-0.08081055,-0.973938,0.124938965,-2.4375,-1.0,-2.5625
770,1695772783871,-0.11376953,-0.9673462,0.14276123,-3.609375,0.625,-1.796875
771,1695772783902,-0.07470703,-1.0088501,0.15447998,-2.421875,-0.609375,-1.9375
772,1695772783946,-0.072753906,-1.0281372,0.15618896,-2.78125,-0.921875,-0.453125
773,1695772784020,-0.07299805,-0.9932251,0.13543701,-2.578125,-1.0625,0.375
774,1695772784023,-0.083984375,-0.9639282,0.14642334,-2.40625,-1.890625,-2.046875
775,1695772784067,-0.08300781,-0.97735596,0.15545654,-0.03125,-1.5,-4.234375
776,1695772784097,-0.099365234,-1.0010376,0.117614746,-4.921875,-0.9375,-3.53125
777,1695772784142,-0.092041016,-0.9697876,0.16766357,1.203125,0.15625,-2.5
778,1695772784187,-0.119384766,-1.0195923,0.1642456,-3.0,-0.515625,1.53125
779,1695772784216,-0.07714844,-0.9624634,0.14788818,-1.484375,0.078125,-2.890625
780,1695772784259,-0.109375,-1.053772,0.1906128,1.890625,3.921875,-4.359375
781,1695772784304,-0.16064453,-1.0388794,0.17108154,-6.140625,6.5625,0.390625
782,1695772784335,-0.15478516,-0.87091064,0.14129639,-8.328125,5.4375,-3.125
783,1695772784380,-0.12841797,-1.0154419,0.16497803,16.921875,0.109375,3.453125
784,1695772784411,-0.06323242,-0.90216064,0.085632324,7.296875,-0.546875,8.75
785,1695772784454,-0.056884766,-0.9314575,0.11834717,-0.96875,0.46875,-2.859375
786,1695772784499,-0.091308594,-1.0715942,0.15325928,-0.625,-4.84375,-6.1875
787,1695772784529,-0.10083008,-1.0557251,0.12884521,-4.359375,1.515625,-0.96875
788,1695772784574,-0.09008789,-0.9800415,0.17816162,3.78125,2.65625,-1.453125
789,1695772784620,-0.14624023,-0.9812622,0.12322998,-2.0,-2.359375,2.265625
790,1695772784649,-0.099853516,-0.960022,0.12738037,-6.765625,-4.625,0.640625
791,1695772784695,-0.08251953,-1.0044556,0.14569092,-2.28125,-6.21875,-2.625
792,1695772784725,-0.111816406,-0.99176025,0.14031982,-6.0625,-2.96875,-4.375
793,1695772784772,-0.12475586,-0.989563,0.1515503,-3.328125,-2.921875,-4.3125
794,1695772784815,-0.123535156,-0.99346924,0.15692139,-1.1875,-2.296875,-1.5
795,1695772784850,-0.11376953,-0.99713135,0.16644287,-1.5,-0.140625,1.0625
796,1695772784891,-0.12646484,-1.0007935,0.14715576,-1.53125,-2.109375,0.8125
797,1695772784936,-0.13354492,-0.96954346,0.16619873,-1.734375,-0.109375,-0.625
798,1695772784966,-0.15478516,-0.9998169,0.15692139,0.296875,0.515625,-0.78125
799,1695772785011,-0.15112305,-0.9805298,0.15789795,-1.046875,2.1875,0.359375
800,1695772785043,-0.08520508,-1.0025024,0.17181396,0.40625,3.9375,1.1875
801,1695772785087,-0.0769043,-1.0142212,0.13641357,-2.828125,1.0,1.5625
802,1695772785131,-0.083496094,-0.97442627,0.15594482,-0.515625,-0.984375,-1.046875
803,1695772785164,-0.095458984,-1.0003052,0.16131592,0.40625,-2.125,-2.3125
804,1695772785209,-0.15112305,-0.986145,0.14447021,-2.421875,-2.703125,-2.125
805,1695772785239,-0.12426758,-0.972229,0.14984131,-1.375,-1.375,-3.734375
806,1695772785287,-0.12768555,-1.0042114,0.1593628,-0.421875,0.609375,-1.046875
807,1695772785327,-0.123291016,-0.9729614,0.17034912,-0.328125,2.25,1.4375
808,1695772785355,-0.115722656,-1.0071411,0.16693115,2.265625,1.328125,1.0
809,1695772785399,-0.12402344,-0.9824829,0.14910889,-1.421875,-0.1875,-2.015625
810,1695772785444,-0.11694336,-0.98272705,0.15252686,2.640625,-1.203125,-3.890625
811,1695772785476,-0.13061523,-0.98638916,0.16107178,-1.40625,-2.03125,-1.75
812,1695772785522,-0.15673828,-0.99884033,0.16326904,-1.71875,-1.21875,0.8125
813,1695772785551,-0.13793945,-0.9885864,0.15960693,-1.484375,-0.34375,0.15625
814,1695772785630,-0.14770508,-0.9961548,0.15130615,1.609375,1.875,2.328125
815,1695772785649,-0.13208008,-0.98321533,0.14569092,-0.390625,1.8125,0.203125
816,1695772785669,-0.11254883,-0.9963989,0.15545654,-3.03125,0.890625,-0.53125
817,1695772785721,-0.123291016,-0.9920044,0.15374756,0.0625,1.0,0.28125
818,1695772785772,-0.11987305,-0.99591064,0.16571045,-1.328125,0.203125,-0.1875
819,1695772785794,-0.10546875,-0.9885864,0.17132568,-1.71875,0.03125,-0.5
820,1695772785836,-0.12524414,-1.0025024,0.13763428,-1.21875,-0.875,-1.71875
821,1695772785867,-0.12402344,-0.9846802,0.15814209,-3.84375,-0.359375,-0.265625
822,1695772785912,-0.140625,-0.9846802,0.16375732,0.328125,-0.28125,-0.078125
823,1695772785958,-0.13989258,-0.97369385,0.1359253,-3.484375,3.5625,0.5625
824,1695772785986,-0.10913086,-0.9846802,0.16790771,-0.890625,1.890625,-1.21875
825,1695772786034,-0.12597656,-1.006897,0.17669678,-4.15625,0.21875,0.65625
826,1695772786075,-0.11694336,-0.9834595,0.17718506,-6.421875,0.828125,0.265625
827,1695772786104,-0.11279297,-1.0584106,0.1359253,-9.0,1.234375,-3.390625
828,1695772786150,-0.118652344,-0.99346924,0.22406006,-2.65625,13.21875,1.859375
829,1695772786181,-0.16552734,-0.93951416,0.16351318,3.546875,11.90625,-2.9375
830,1695772786226,-0.11621094,-1.0039673,0.14813232,20.0625,3.375,5.75
831,1695772786275,-0.12133789,-0.84332275,0.17327881,11.96875,-8.5,8.984375
832,1695772786303,-0.0793457,-0.98443604,0.097351074,-2.6875,-1.234375,-1.484375
833,1695772786349,-0.0925293,-1.0303345,0.15130615,-10.15625,-4.0,-6.265625
834,1695772786406,-0.12719727,-1.0747681,0.18060303,-1.625,-2.734375,1.1875
835,1695772786422,-0.07885742,-0.9644165,0.17840576,-2.203125,-0.5625,3.59375
836,1695772786469,-0.10229492,-0.9668579,0.15887451,-4.546875,-0.328125,1.25
837,1695772786498,-0.12036133,-0.9763794,0.13934326,-4.171875,-4.0625,-2.265625
838,1695772786543,-0.11987305,-0.97613525,0.17401123,1.921875,-4.0625,-2.09375
839,1695772786589,-0.09741211,-1.0025024,0.17840576,-0.25,-1.84375,-0.859375
840,1695772786619,-0.10424805,-0.9990845,0.17816162,-5.234375,-2.984375,0.203125
841,1695772786662,-0.123535156,-0.9817505,0.1630249,0.140625,-2.109375,0.59375
842,1695772786709,-0.12060547,-0.97857666,0.15960693,-1.4375,0.234375,-1.1875
843,1695772786741,-0.118896484,-0.97979736,0.17913818,-3.8125,-0.328125,-1.453125
844,1695772786780,-0.1027832,-1.0090942,0.15863037,-2.140625,-1.1875,-2.640625
845,1695772786809,-0.111083984,-0.9780884,0.18426514,-0.1875,1.46875,-0.28125
846,1695772786854,-0.13452148,-1.0037231,0.17816162,0.5625,1.859375,1.0625
847,1695772786900,-0.13085938,-0.9692993,0.18255615,-1.625,0.25,1.390625
848,1695772786930,-0.107910156,-0.9924927,0.18353271,2.34375,1.796875,-0.625
849,1695772786975,-0.08935547,-0.99884033,0.17108154,-1.4375,1.40625,0.953125
850,1695772787020,-0.11816406,-0.9932251,0.16107178,-2.09375,-0.3125,1.4375
851,1695772787050,-0.13061523,-0.97857666,0.1954956,1.59375,1.34375,3.46875
852,1695772787095,-0.1496582,-1.0210571,0.18939209,-2.3125,2.109375,5.96875
853,1695772787125,-0.07739258,-0.95758057,0.17449951,-4.71875,1.9375,1.4375
854,1695772787171,-0.05102539,-0.94781494,0.16497803,2.359375,1.953125,-0.515625
855,1695772787217,-0.053955078,-1.03302,0.15423584,2.28125,-2.015625,-0.625
856,1695772787245,-0.057617188,-1.0130005,0.15570068,-5.609375,-3.265625,-2.265625
857,1695772787291,-0.08935547,-0.9807739,0.19085693,-4.71875,-4.0625,-2.484375
858,1695772787334,-0.13867188,-0.9854126,0.20306396,5.046875,-2.125,-0.890625
859,1695772787364,-0.13134766,-0.9763794,0.1864624,-1.71875,0.484375,-1.234375
860,1695772787410,-0.106933594,-0.98760986,0.17034912,-2.9375,1.40625,-1.71875
861,1695772787441,-0.09082031,-0.9859009,0.1630249,-1.953125,0.6875,0.03125
862,1695772787485,-0.10668945,-0.99420166,0.1906128,-0.53125,-0.984375,1.75
863,1695772787537,-0.11401367,-1.0217896,0.19281006,-3.6875,1.21875,0.265625
864,1695772787561,-0.087646484,-0.99420166,0.17669678,-2.015625,2.65625,-1.875
865,1695772787604,-0.06567383,-0.99884033,0.18695068,-1.296875,1.25,-1.84375
866,1695772787649,-0.109375,-0.97906494,0.20428467,-1.625,0.53125,1.640625
867,1695772787681,-0.1015625,-0.96759033,0.19671631,-1.765625,0.625,0.90625
868,1695772787725,-0.06542969,-0.97198486,0.19256592,-6.09375,-2.609375,-4.0625
869,1695772787754,-0.09667969,-1.0078735,0.18719482,-3.484375,-3.640625,-5.6875
870,1695772787799,-0.14746094,-1.003479,0.20526123,-2.3125,-0.421875,1.046875
871,1695772787846,-0.15234375,-0.95318604,0.2164917,-1.390625,-0.28125,0.515625
872,1695772787874,-0.12133789,-0.99176025,0.25238037,4.09375,5.125,-2.625
873,1695772787922,-0.08276367,-0.97491455,0.18743896,-4.671875,3.84375,-2.421875
874,1695772787997,-0.06542969,-0.9771118,0.19036865,-1.3125,-0.578125,-2.953125
875,1695772788000,-0.13891602,-1.0039673,0.19818115,1.859375,-3.09375,0.46875
876,1695772788042,-0.14355469,-0.9763794,0.22039795,-2.6875,-3.421875,-0.5
877,1695772788070,-0.14550781,-0.97857666,0.21234131,-5.53125,-1.484375,-5.828125
878,1695772788118,-0.13623047,-0.97906494,0.21844482,-2.921875,2.046875,-5.1875
879,1695772788162,-0.115722656,-0.9927368,0.21990967,2.265625,3.328125,-1.546875
880,1695772788192,-0.114746094,-0.9763794,0.19769287,-5.046875,0.1875,-0.296875
881,1695772788239,-0.1303711,-0.9717407,0.22210693,-3.140625,-3.953125,-2.09375
882,1695772788282,-0.13769531,-0.99053955,0.24481201,-0.109375,-2.1875,-2.21875
883,1695772788312,-0.1574707,-0.9871216,0.2345581,-3.515625,-1.265625,-3.953125
884,1695772788358,-0.1616211,-0.9697876,0.23406982,-0.703125,1.140625,-4.65625
885,1695772788431,-0.13916016,-0.97735596,0.21307373,-0.328125,0.484375,-3.046875
886,1695772788452,-0.1394043,-0.9636841,0.22601318,-3.484375,-1.5625,-1.0625
887,1695772788476,-0.1574707,-0.9729614,0.22625732,-1.28125,-2.328125,-4.21875
888,1695772788510,-0.11254883,-1.0115356,0.2597046,4.375,3.234375,-8.46875
889,1695772788553,-0.21166992,-1.0076294,0.2584839,-2.03125,0.9375,-6.171875
890,1695772788599,-0.26367188,-0.91192627,0.22161865,8.53125,1.484375,-0.40625
891,1695772788627,-0.17236328,-1.006897,0.1786499,13.484375,6.3125,3.671875
892,1695772788673,-0.11987305,-0.97857666,0.14886475,1.109375,-1.21875,1.15625
893,1695772788700,-0.1628418,-0.9661255,0.18914795,3.453125,-5.46875,-5.3125
894,1695772788748,-0.122802734,-0.9585571,0.17401123,8.84375,-6.34375,-6.75
895,1695772788792,-0.23779297,-1.0115356,0.14105225,-8.015625,-6.59375,-3.6875
896,1695772788820,-0.24316406,-0.9187622,0.16888428,-4.1875,-3.859375,-2.59375
897,1695772788868,-0.23901367,-1.0166626,0.18353271,-0.359375,-3.65625,-2.75
898,1695772788914,-0.1977539,-1.0132446,0.21820068,0.25,5.53125,1.5625
899,1695772788944,-0.21435547,-0.9636841,0.1708374,-0.78125,2.171875,2.875
900,1695772788988,-0.19433594,-0.93585205,0.16082764,-3.828125,-1.4375,2.125
901,1695772789016,-0.17675781,-0.9758911,0.19818115,-0.640625,-1.90625,0.859375
902,1695772789060,-0.1977539,-1.0195923,0.19476318,-1.265625,0.5625,-1.75
903,1695772789105,-0.20263672,-0.9817505,0.19915771,-0.4375,1.078125,0.671875
