,timestamp,accel_x,accel_y,accel_z,gyro_x,gyro_y,gyro_z
0,1695772793543,-0.2565918,-0.972229,0.17938232,-2.125,-2.328125,-5.578125
1,1695772793588,-0.27612305,-0.9602661,0.18450928,-2.0,-4.546875,-5.203125
2,1695772793618,-0.30664062,-0.9619751,0.17401123,-3.4375,-3.125,-6.203125
3,1695772793664,-0.30126953,-0.92852783,0.19354248,-1.53125,-2.328125,-7.765625
4,1695772793709,-0.3017578,-0.97613525,0.18182373,-3.625,-3.3125,-4.640625
5,1695772793738,-0.27734375,-0.9585571,0.17767334,-2.703125,-1.90625,-5.5625
6,1695772793783,-0.30200195,-0.97906494,0.21575928,-0.109375,-1.40625,-0.390625
7,1695772793813,-0.32641602,-0.9512329,0.20697021,-1.171875,-0.671875,0.109375
8,1695772793859,-0.32861328,-0.9307251,0.18695068,0.1875,-0.34375,-0.5
9,1695772793904,-0.31835938,-0.9561157,0.20550537,-3.171875,-1.4375,-3.296875
10,1695772793934,-0.3244629,-0.9639282,0.21258545,-1.25,-0.5,1.1875
11,1695772793979,-0.27416992,-0.9512329,0.16009521,-3.171875,1.015625,1.375
12,1695772794024,-0.31030273,-0.9468384,0.20501709,0.984375,1.25,2.234375
13,1695772794055,-0.3166504,-0.9619751,0.21844482,1.015625,2.796875,4.453125
14,1695772794099,-0.30810547,-0.9360962,0.19525146,-1.296875,3.0,3.140625
15,1695772794129,-0.3083496,-0.9631958,0.20770264,0.609375,4.8125,5.171875
16,1695772794174,-0.2692871,-0.95562744,0.20159912,-0.359375,3.65625,3.34375
17,1695772794220,-0.28759766,-0.9985962,0.22821045,0.4375,5.296875,5.703125
18,1695772794250,-0.2607422,-0.90802,0.19012451,-0.28125,7.0,4.875
19,1695772794294,-0.25219727,-0.9717407,0.20965576,-2.96875,4.296875,1.3125
20,1695772794340,-0.24487305,-0.9837036,0.2296753,-2.65625,3.046875,2.953125
21,1695772794370,-0.23291016,-0.9829712,0.22406006,-2.828125,5.4375,3.0625
22,1695772794414,-0.25195312,-0.95977783,0.22332764,-0.875,6.25,6.078125
23,1695772794445,-0.22998047,-0.95562744,0.20843506,-0.921875,5.59375,5.046875
24,1695772794489,-0.22387695,-0.9680786,0.21282959,-1.96875,6.25,5.140625
25,1695772794534,-0.20654297,-0.9522095,0.20379639,-0.453125,6.421875,4.46875
26,1695772794564,-0.1743164,-0.975647,0.21820068,-0.5625,5.5,2.375
27,1695772794609,-0.18139648,-0.9727173,0.22894287,-2.140625,4.90625,2.953125
28,1695772794656,-0.17529297,-0.9692993,0.2255249,-1.171875,2.375,3.65625
29,1695772794684,-0.16210938,-0.972229,0.24310303,-1.3125,3.796875,3.59375
30,1695772794729,-0.1508789,-0.98565674,0.23699951,-3.03125,1.78125,2.84375
31,1695772794760,-0.16015625,-0.9512329,0.22503662,-2.25,-0.140625,1.265625
32,1695772794805,-0.14013672,-0.9956665,0.246521,-2.828125,0.328125,-1.3125
33,1695772794849,-0.19116211,-0.94537354,0.24822998,0.78125,-0.171875,1.5
34,1695772794978,-0.114746094,-1.0020142,0.24505615,-2.40625,-0.671875,-3.203125
35,1695772794980,-0.15332031,-0.958313,0.21795654,-6.46875,-6.0,-3.765625
36,1695772794986,-0.17553711,-0.99298096,0.24407959,-3.15625,-4.203125,-4.140625
37,1695772795000,-0.19335938,-0.97125244,0.26068115,-3.96875,-3.84375,-1.953125
38,1695772795047,-0.19897461,-0.95196533,0.2506714,-3.859375,-2.28125,-3.140625
39,1695772795076,-0.21850586,-0.9734497,0.27337646,-2.203125,-2.0625,-1.375
40,1695772795121,-0.21484375,-0.9570923,0.25897217,-1.0,1.078125,1.0625
41,1695772795166,-0.17871094,-0.94903564,0.24603271,-3.578125,0.359375,-4.765625
42,1695772795199,-0.17480469,-0.98101807,0.2682495,-2.125,-1.34375,-6.828125
43,1695772795240,-0.1953125,-0.96832275,0.27313232,-0.953125,-2.546875,-4.8125
44,1695772795288,-0.20922852,-0.96051025,0.2633667,-1.375,-3.5625,-2.0625
45,1695772795318,-0.23144531,-0.95391846,0.26507568,-2.703125,-1.4375,-1.5625
46,1695772795362,-0.2475586,-0.97906494,0.27679443,-1.640625,0.0625,-0.421875
47,1695772795392,-0.23095703,-0.9487915,0.27581787,0.5,2.984375,-1.46875
48,1695772795435,-0.22094727,-0.9578247,0.26116943,0.921875,1.6875,-1.609375
49,1695772795479,-0.23486328,-0.9663696,0.27923584,1.546875,0.53125,0.71875
50,1695772795509,-0.22827148,-0.9356079,0.2501831,0.625,1.109375,-0.5625
51,1695772795554,-0.22851562,-0.94781494,0.25238037,3.15625,1.0,0.5625
52,1695772795600,-0.22875977,-0.97125244,0.2567749,-1.1875,-0.203125,-0.09375
53,1695772795629,-0.22607422,-0.96051025,0.2567749,1.421875,2.40625,-2.078125
54,1695772795674,-0.22143555,-0.9656372,0.25042725,1.203125,2.34375,-2.125
55,1695772795704,-0.24023438,-0.9614868,0.26531982,0.59375,3.1875,-0.0625
56,1695772795750,-0.24414062,-0.9483032,0.26922607,1.015625,3.71875,1.21875
57,1695772795797,-0.23339844,-0.94903564,0.24798584,-3.171875,2.53125,-2.421875
58,1695772795826,-0.2175293,-0.9854126,0.26263428,-3.625,1.296875,-2.625
59,1695772795870,-0.21264648,-0.9837036,0.22772217,-6.171875,2.0625,-2.3125
60,1695772795944,-0.2265625,-1.0117798,0.30389404,-1.703125,5.6875,0.84375
61,1695772795946,-0.23486328,-0.954895,0.30560303,-7.34375,-2.703125,4.21875
62,1695772795991,-0.25683594,-0.9795532,0.25531006,-9.5,-9.453125,-0.359375
63,1695772796019,-0.19946289,-0.9480591,0.3065796,3.578125,4.15625,3.03125
64,1695772796065,-0.25097656,-0.93927,0.2694702,4.015625,4.59375,5.296875
65,1695772796110,-0.20605469,-0.9258423,0.31048584,3.921875,-2.390625,-1.984375
66,1695772796139,-0.24633789,-0.94073486,0.2506714,5.203125,-0.109375,1.59375
67,1695772796185,-0.17919922,-0.89385986,0.25164795,3.359375,-1.59375,1.8125
68,1695772796228,-0.20898438,-0.97198486,0.23895264,1.015625,1.75,-0.421875
69,1695772796259,-0.22338867,-0.9561157,0.24285889,-0.765625,-2.71875,-0.296875
70,1695772796304,-0.2163086,-1.0081177,0.28729248,0.203125,-0.796875,-3.34375
71,1695772796378,-0.21582031,-0.95635986,0.26434326,-1.640625,0.65625,-0.015625
72,1695772796380,-0.21875,-0.94415283,0.23504639,-3.40625,-2.75,-0.328125
73,1695772796424,-0.20874023,-0.9463501,0.25482178,-0.5,0.625,-2.328125
74,1695772796454,-0.21899414,-0.9746704,0.28167725,0.0625,-2.09375,0.421875
75,1695772796498,-0.22338867,-0.96221924,0.2584839,-3.40625,-3.40625,-1.625
76,1695772796545,-0.2421875,-0.9702759,0.2609253,-1.75,-2.984375,-0.640625
77,1695772796573,-0.22363281,-0.9368286,0.27630615,0.1875,-1.34375,-0.703125
78,1695772796618,-0.2253418,-0.9819946,0.25604248,-1.921875,-2.0625,-0.890625
79,1695772796649,-0.23730469,-0.95318604,0.2423706,-2.25,-1.4375,1.09375
80,1695772796694,-0.23266602,-0.96173096,0.2645874,-1.359375,0.640625,0.859375
81,1695772796739,-0.24145508,-0.9475708,0.24627686,-1.796875,0.453125,0.359375
82,1695772796769,-0.23095703,-0.96759033,0.27093506,-0.1875,0.921875,-1.796875
83,1695772796814,-0.21191406,-0.97369385,0.28533936,0.21875,1.53125,-0.078125
84,1695772796859,-0.22558594,-0.94537354,0.2687378,-1.25,-1.6875,2.09375
85,1695772796890,-0.24267578,-0.954895,0.27020264,-1.671875,0.40625,1.5625
86,1695772796935,-0.21191406,-0.94610596,0.2518921,-3.90625,0.546875,-0.75
87,1695772796965,-0.21801758,-0.9780884,0.26556396,-2.296875,-0.203125,0.546875
88,1695772797009,-0.19116211,-0.9883423,0.29534912,-0.78125,1.109375,1.03125
89,1695772797056,-0.2290039,-0.9175415,0.22479248,-4.375,0.09375,-0.46875
90,1695772797086,-0.22216797,-0.9627075,0.31707764,3.53125,2.09375,0.6875
91,1695772797131,-0.22314453,-0.98516846,0.2826538,4.84375,-0.1875,2.625
92,1695772797160,-0.20166016,-0.9846802,0.26654053,2.171875,-1.84375,2.5625
93,1695772797207,-0.21777344,-0.9475708,0.25628662,-0.234375,-0.09375,5.140625
94,1695772797250,-0.21142578,-0.9553833,0.24603271,1.203125,-0.421875,4.046875
95,1695772797282,-0.20581055,-0.9690552,0.25628662,0.171875,-0.09375,1.828125
96,1695772797327,-0.17089844,-0.9805298,0.25360107,0.328125,0.796875,1.0625
97,1695772797373,-0.17041016,-0.96661377,0.23309326,-0.390625,-0.90625,2.421875
98,1695772797400,-0.1784668,-0.97979736,0.26434326,-0.515625,0.078125,1.28125
99,1695772797447,-0.20092773,-0.9378052,0.24481201,-1.140625,0.234375,-0.265625
100,1695772797477,-0.18652344,-0.9729614,0.26312256,-1.84375,0.46875,-2.34375
101,1695772797523,-0.19873047,-0.9768677,0.27801514,0.65625,-0.0625,-0.28125
102,1695772797565,-0.1784668,-0.98272705,0.25213623,-0.90625,-0.390625,-0.875
103,1695772797596,-0.20629883,-0.95196533,0.26141357,-0.78125,1.046875,-0.6875
104,1695772797643,-0.1862793,-0.96832275,0.25042725,-1.59375,-0.21875,-2.40625
105,1695772797690,-0.18334961,-0.9668579,0.25628662,-3.0,0.53125,-3.015625
106,1695772797717,-0.19458008,-0.96539307,0.25408936,-0.6875,1.1875,-0.78125
107,1695772797764,-0.1965332,-0.9690552,0.26312256,0.015625,1.1875,-1.25
108,1695772797791,-0.21459961,-0.9585571,0.25994873,0.859375,1.296875,-0.828125
109,1695772797838,-0.19482422,-0.95635986,0.24456787,-0.28125,1.890625,-1.953125
110,1695772797881,-0.19482422,-0.96759033,0.26849365,-0.171875,1.53125,-1.53125
111,1695772797911,-0.19897461,-0.9702759,0.26434326,0.5,1.46875,-0.453125
112,1695772797956,-0.1940918,-0.9636841,0.24627686,-0.78125,1.625,-0.390625
113,1695772798003,-0.1875,-0.96661377,0.2531128,-0.265625,1.390625,-1.984375
114,1695772798031,-0.20410156,-0.96661377,0.2543335,2.03125,1.484375,1.859375
115,1695772798077,-0.19750977,-0.9578247,0.25115967,-0.078125,1.828125,-0.828125
116,1695772798107,-0.19555664,-0.97125244,0.24188232,0.515625,0.546875,-1.109375
117,1695772798152,-0.1977539,-0.9710083,0.24798584,0.3125,1.65625,-0.09375
118,1695772798198,-0.19921875,-0.9636841,0.24310303,-0.5625,0.078125,-0.640625
119,1695772798226,-0.20532227,-0.9727173,0.25360107,-0.71875,0.390625,-1.03125
120,1695772798271,-0.2043457,-0.96221924,0.24725342,-0.578125,0.296875,-1.09375
121,1695772798319,-0.20605469,-0.96710205,0.24676514,-1.578125,0.5,-1.78125
122,1695772798352,-0.20629883,-0.96710205,0.25506592,0.140625,0.84375,-1.1875
123,1695772798394,-0.21118164,-0.9710083,0.25653076,0.0625,1.0625,-0.140625
124,1695772798424,-0.22314453,-0.95562744,0.24066162,-0.34375,1.296875,-0.5625
125,1695772798468,-0.21386719,-0.9627075,0.262146,1.625,1.984375,-0.6875
126,1695772798510,-0.19580078,-0.9644165,0.23480225,-3.171875,0.9375,-2.65625
127,1695772798543,-0.21459961,-0.9651489,0.26434326,-0.34375,0.34375,-0.71875
128,1695772798590,-0.22167969,-0.9661255,0.26116943,0.46875,0.515625,1.0625
129,1695772798634,-0.21899414,-0.96661377,0.23773193,-0.703125,0.796875,0.15625
130,1695772798663,-0.21533203,-0.95513916,0.246521,0.8125,0.78125,-0.640625
131,1695772798706,-0.203125,-0.95928955,0.24359131,1.296875,1.828125,0.078125
132,1695772798736,-0.20727539,-0.9873657,0.2501831,0.53125,-0.171875,0.53125
133,1695772798782,-0.21386719,-0.9612427,0.24041748,-1.453125,-0.078125,-0.046875
134,1695772798827,-0.2199707,-0.9495239,0.24578857,-0.265625,0.9375,-0.953125
135,1695772798860,-0.21264648,-0.98443604,0.24188232,0.78125,0.28125,0.765625
136,1695772798905,-0.21289062,-0.95196533,0.24920654,-0.65625,0.5,-0.71875
137,1695772798948,-0.2084961,-0.97979736,0.22772217,-0.828125,-0.09375,-0.765625
138,1695772798978,-0.20507812,-0.9470825,0.24261475,-0.296875,0.71875,-0.484375
139,1695772799026,-0.20214844,-0.97784424,0.25238037,-0.875,1.625,-0.375
140,1695772799058,-0.2084961,-0.972229,0.24090576,-2.65625,-0.203125,-1.015625
141,1695772799099,-0.22753906,-0.9627075,0.2543335,-0.03125,1.4375,0.734375
142,1695772799142,-0.20361328,-0.96417236,0.24481201,-1.359375,0.96875,0.28125
143,1695772799179,-0.20922852,-0.95977783,0.246521,-2.125,-0.71875,-1.34375
144,1695772799221,-0.1965332,-0.9639282,0.2506714,-1.671875,0.390625,-0.671875
145,1695772799266,-0.20507812,-0.9649048,0.2501831,-1.015625,-1.1875,0.984375
146,1695772799292,-0.20458984,-0.95977783,0.25164795,-2.640625,-1.390625,-0.375
147,1695772799337,-0.20898438,-0.9661255,0.25115967,-1.03125,-0.5625,-0.421875
148,1695772799370,-0.21655273,-0.95391846,0.24627686,-1.1875,-0.21875,-0.3125
149,1695772799413,-0.21972656,-0.9624634,0.24847412,-2.140625,-0.203125,-2.0
150,1695772799460,-0.20532227,-0.9607544,0.26507568,-0.15625,-0.640625,-0.640625
151,1695772799486,-0.21972656,-0.9920044,0.24749756,-2.125,-0.515625,-0.484375
152,1695772799530,-0.21484375,-0.9614868,0.2423706,-4.0625,-1.515625,-0.5625
153,1695772799579,-0.21411133,-0.958313,0.25408936,-5.140625,-0.84375,-2.984375
154,1695772799610,-0.1953125,-0.96221924,0.26116943,-5.53125,0.59375,-2.84375
155,1695772799653,-0.22827148,-0.93878174,0.25726318,-1.65625,1.515625,-2.53125
156,1695772799688,-0.23339844,-1.0357056,0.32733154,7.921875,3.53125,3.796875
157,1695772799730,-0.23901367,-0.9397583,0.24847412,-6.234375,-2.515625,-0.171875
158,1695772799773,-0.20874023,-0.9439087,0.26605225,-6.03125,-4.21875,-3.703125
159,1695772799801,-0.21875,-0.98394775,0.30096436,0.28125,-1.625,2.796875
160,1695772799848,-0.22314453,-0.92266846,0.29412842,-3.46875,-0.65625,-3.625
161,1695772799922,-0.18945312,-1.0447388,0.29437256,-5.453125,-2.59375,-1.0
162,1695772799926,-0.2861328,-0.85601807,0.21990967,1.015625,-3.984375,0.4375
163,1695772799966,-0.18579102,-1.0039673,0.33416748,4.34375,4.25,1.3125
164,1695772800000,-0.24316406,-0.93341064,0.25604248,3.671875,-3.5625,4.3125
165,1695772800040,-0.23217773,-0.87823486,0.25482178,1.75,1.4375,-1.96875
166,1695772800085,-0.18286133,-1.0073853,0.27191162,3.9375,0.9375,-1.1875
167,1695772800117,-0.22509766,-0.9199829,0.2662964,-3.296875,-0.984375,-0.484375
168,1695772800162,-0.2446289,-0.9829712,0.2609253,-3.046875,-2.03125,-2.3125
169,1695772800206,-0.20361328,-0.9812622,0.28875732,1.046875,2.46875,-1.828125
170,1695772800238,-0.22460938,-0.9663696,0.26483154,-2.640625,0.765625,0.875
171,1695772800289,-0.23071289,-0.940979,0.25994873,0.234375,0.234375,0.484375
172,1695772800355,-0.22509766,-0.94122314,0.27679443,2.015625,0.359375,0.734375
173,1695772800375,-0.22045898,-0.97491455,0.26141357,-0.296875,-0.9375,-0.34375
174,1695772800406,-0.22851562,-0.9558716,0.27264404,0.125,0.796875,0.40625
175,1695772800434,-0.23168945,-0.9636841,0.26556396,0.0,-0.140625,1.59375
176,1695772800480,-0.21801758,-0.9470825,0.2514038,-1.765625,0.703125,-0.6875
177,1695772800521,-0.2084961,-0.96759033,0.26263428,0.609375,-0.421875,-0.890625
178,1695772800552,-0.2084961,-0.9771118,0.25897217,-0.359375,0.3125,0.0625
179,1695772800599,-0.22143555,-0.9541626,0.26263428,0.5625,-0.6875,0.1875
180,1695772800626,-0.22094727,-0.95318604,0.24798584,-1.671875,-0.609375,-0.609375
181,1695772800673,-0.22680664,-0.956604,0.2682495,-1.390625,-1.15625,-1.28125
182,1695772800718,-0.2175293,-0.958313,0.2616577,1.46875,1.078125,-0.390625
183,1695772800750,-0.22167969,-0.98321533,0.2723999,0.671875,-0.578125,1.15625
184,1695772800798,-0.22192383,-0.94659424,0.2506714,0.46875,-1.015625,0.296875
185,1695772800837,-0.21948242,-0.9961548,0.24554443,0.453125,-1.78125,0.09375
186,1695772800872,-0.22143555,-0.94244385,0.2506714,-0.296875,-0.625,0.125
187,1695772800911,-0.2241211,-0.9656372,0.2543335,0.15625,-0.375,-0.328125
188,1695772800941,-0.22363281,-0.97662354,0.26312256,1.671875,-0.703125,1.484375
189,1695772800988,-0.20874023,-0.9282837,0.2267456,-3.640625,-0.15625,-1.15625
190,1695772801037,-0.22070312,-0.94976807,0.25457764,-2.3125,-0.890625,-3.46875
191,1695772801064,-0.2241211,-0.9924927,0.2789917,2.171875,1.328125,0.203125
192,1695772801108,-0.23120117,-0.9483032,0.24383545,-2.703125,0.75,-1.5
193,1695772801135,-0.22167969,-0.95880127,0.23284912,-3.765625,-1.140625,-2.9375
194,1695772801185,-0.20898438,-0.9475708,0.25482178,-2.03125,0.59375,-2.09375
195,1695772801234,-0.23217773,-0.97052,0.28485107,0.78125,0.1875,0.203125
196,1695772801258,-0.2409668,-0.97125244,0.24163818,-4.109375,-2.0625,-2.59375
197,1695772801300,-0.24584961,-0.9456177,0.25897217,-3.6875,-0.609375,-3.265625
198,1695772801346,-0.2331543,-0.9788208,0.293396,-1.53125,-0.140625,-1.3125
199,1695772801378,-0.24047852,-0.9458618,0.277771,-0.203125,-0.25,1.03125
200,1695772801422,-0.22631836,-1.00177,0.22283936,-5.046875,1.015625,-3.953125
201,1695772801454,-0.20776367,-0.98931885,0.31488037,-3.09375,-0.78125,0.25
202,1695772801498,-0.29516602,-0.8965454,0.24822998,-1.078125,-4.671875,2.25
203,1695772801542,-0.23852539,-0.95684814,0.25726318,4.21875,1.34375,-2.765625
204,1695772801571,-0.25878906,-0.9661255,0.27801514,7.09375,0.609375,4.625
205,1695772801616,-0.25097656,-0.909729,0.27508545,10.046875,1.875,0.546875
206,1695772801663,-0.23950195,-0.92852783,0.2140503,3.609375,1.703125,0.453125
207,1695772801692,-0.2409668,-0.92633057,0.24578857,1.71875,1.0625,0.171875
208,1695772801739,-0.2368164,-1.0100708,0.24285889,0.09375,-1.96875,-1.5625
209,1695772801770,-0.21704102,-0.99346924,0.24945068,-1.0,0.15625,-3.28125
210,1695772801814,-0.25439453,-0.9612427,0.2399292,-2.609375,0.390625,-0.296875
211,1695772801856,-0.25268555,-0.92144775,0.21087646,-0.90625,-0.578125,0.21875
212,1695772801887,-0.24243164,-0.9663696,0.23968506,0.796875,-1.328125,-1.8125
213,1695772801936,-0.23876953,-0.99298096,0.24847412,-0.6875,-0.046875,-1.296875
214,1695772801976,-0.26367188,-0.9585571,0.23577881,-0.53125,-0.390625,0.21875
215,1695772802012,-0.2487793,-0.9463501,0.22943115,-0.125,0.828125,-0.671875
216,1695772802052,-0.24316406,-0.95758057,0.24481201,0.296875,0.875,-0.484375
217,1695772802085,-0.2277832,-0.9751587,0.22650146,-2.09375,-0.125,-0.9375
218,1695772802131,-0.21948242,-0.9561157,0.23529053,-1.625,-1.6875,-2.21875
219,1695772802175,-0.23999023,-0.9727173,0.24163818,-0.71875,-1.71875,-0.203125
220,1695772802205,-0.25268555,-0.9631958,0.22845459,-1.84375,-1.625,1.0625
221,1695772802248,-0.25170898,-0.94781494,0.21282959,-2.484375,-0.484375,0.3125
222,1695772802291,-0.25610352,-0.9590454,0.24481201,-1.375,0.171875,0.40625
223,1695772802326,-0.26586914,-0.97198486,0.25164795,-1.03125,2.265625,1.1875
224,1695772802367,-0.2421875,-0.94903564,0.23114014,-0.203125,2.25,-0.359375
225,1695772802399,-0.23022461,-0.9561157,0.2531128,-1.296875,1.03125,-2.734375
226,1695772802444,-0.2355957,-0.9678345,0.24822998,0.015625,0.9375,-0.90625
227,1695772802490,-0.23754883,-0.9522095,0.2218628,-0.84375,0.5625,-0.828125
228,1695772802531,-0.25830078,-0.9495239,0.23968506,-1.375,0.6875,-0.71875
229,1695772802563,-0.2512207,-0.9758911,0.24163818,-0.203125,1.53125,-1.1875
230,1695772802611,-0.24536133,-0.95806885,0.24725342,-2.140625,1.515625,-0.59375
231,1695772802637,-0.24780273,-0.95269775,0.24163818,-0.265625,1.671875,-0.65625
232,1695772802683,-0.23413086,-0.97540283,0.22796631,-0.296875,0.09375,-1.84375
233,1695772802712,-0.23510742,-0.94366455,0.24066162,-1.5,-0.21875,-2.75
234,1695772802758,-0.24707031,-0.9819946,0.23284912,-1.078125,-1.25,-1.9375
235,1695772802801,-0.25561523,-0.9360962,0.23431396,-1.984375,-1.671875,-1.4375
236,1695772802833,-0.2775879,-0.9680786,0.26068115,1.21875,1.875,1.90625
237,1695772802881,-0.24536133,-0.9404907,0.22210693,-3.34375,0.4375,-1.625
238,1695772802923,-0.2475586,-0.96466064,0.2506714,-2.515625,-1.078125,-4.015625
239,1695772802954,-0.2529297,-0.9578247,0.25897217,-2.203125,-0.359375,-2.140625
240,1695772802998,-0.26586914,-0.9590454,0.2538452,-2.015625,-0.71875,0.53125
241,1695772803029,-0.26635742,-0.9417114,0.24798584,-0.90625,-1.109375,1.0
242,1695772803073,-0.28930664,-0.96661377,0.27191162,-0.4375,0.03125,1.21875
243,1695772803118,-0.27539062,-0.9529419,0.25335693,0.734375,1.734375,-1.15625
244,1695772803148,-0.25170898,-0.9421997,0.2345581,-2.484375,0.046875,-3.328125
245,1695772803191,-0.25268555,-0.9573364,0.27020264,-1.421875,0.125,-2.34375
246,1695772803237,-0.27270508,-0.95977783,0.25042725,0.578125,1.234375,0.359375
247,1695772803266,-0.28295898,-0.92315674,0.2543335,0.0625,2.640625,0.390625
248,1695772803312,-0.2734375,-0.9546509,0.246521,0.421875,1.71875,-1.1875
249,1695772803345,-0.23803711,-0.95806885,0.24285889,-2.796875,2.3125,-3.3125
250,1695772803386,-0.25952148,-0.95684814,0.27020264,0.265625,0.890625,-0.828125
251,1695772803433,-0.27270508,-0.96295166,0.25286865,0.609375,1.515625,-0.59375
252,1695772803462,-0.2746582,-0.9273071,0.24676514,-1.046875,1.140625,-1.015625
253,1695772803506,-0.27148438,-0.9680786,0.25653076,-0.75,0.21875,-1.171875
254,1695772803552,-0.27246094,-0.9607544,0.25213623,-0.140625,0.015625,1.203125
255,1695772803584,-0.2685547,-0.93341064,0.24310303,-1.28125,0.21875,-0.171875
256,1695772803629,-0.2644043,-0.94415283,0.25579834,1.015625,0.71875,-0.421875
257,1695772803655,-0.27416992,-0.95684814,0.2526245,-0.03125,0.109375,-0.46875
258,1695772803700,-0.2734375,-0.9517212,0.25457764,0.46875,0.359375,-0.21875
259,1695772803748,-0.27319336,-0.94903564,0.24139404,0.25,1.203125,-0.53125
260,1695772803778,-0.27075195,-0.95635986,0.25115967,0.609375,1.265625,-0.59375
261,1695772803837,-0.27246094,-0.956604,0.24261475,1.03125,1.3125,-0.578125
262,1695772803897,-0.2770996,-0.9319458,0.22821045,3.03125,1.46875,0.34375
263,1695772803900,-0.2578125,-0.97076416,0.24407959,1.03125,1.8125,-2.078125
264,1695772803943,-0.26586914,-0.9356079,0.22454834,-0.1875,-0.5625,-0.25
265,1695772803971,-0.26586914,-0.96832275,0.24920654,2.53125,3.234375,1.984375
266,1695772804015,-0.2788086,-0.96539307,0.25213623,-0.3125,0.375,0.671875
267,1695772804062,-0.28930664,-0.9397583,0.2321167,-2.734375,0.15625,-2.84375
268,1695772804092,-0.27416992,-0.9553833,0.24554443,-0.03125,0.703125,-0.359375
269,1695772804137,-0.26000977,-0.9783325,0.22845459,-0.875,1.765625,1.75
270,1695772804187,-0.26049805,-0.9631958,0.23699951,-0.78125,1.4375,3.125
271,1695772804214,-0.26904297,-0.95635986,0.23699951,-0.9375,-0.09375,2.296875
272,1695772804257,-0.2705078,-0.9507446,0.23577881,-1.21875,0.859375,3.3125
273,1695772804333,-0.22143555,-0.9221802,0.23406982,-2.1875,-0.828125,-1.078125
274,1695772804336,-0.2602539,-0.9846802,0.2518921,-2.421875,-2.921875,0.71875
275,1695772804378,-0.24584961,-0.9522095,0.23699951,-1.421875,-0.75,-0.796875
276,1695772804408,-0.27416992,-0.96588135,0.24920654,-1.671875,-0.671875,2.1875
277,1695772804459,-0.265625,-0.95928955,0.22528076,-2.375,-0.140625,0.578125
278,1695772804500,-0.2626953,-0.96343994,0.2518921,-3.28125,-0.21875,0.703125
279,1695772804529,-0.23754883,-0.9649048,0.26385498,-2.9375,2.0625,2.40625
280,1695772804579,-0.23510742,-0.94537354,0.23577881,-1.90625,1.265625,3.796875
281,1695772804604,-0.25390625,-0.9414673,0.2538452,-2.859375,1.203125,1.84375
282,1695772804646,-0.2541504,-0.96221924,0.26898193,-2.3125,-0.09375,-0.171875
283,1695772804690,-0.25463867,-0.9690552,0.25482178,-4.140625,-0.734375,-0.640625
284,1695772804722,-0.25219727,-0.913147,0.26385498,-1.59375,2.875,1.15625
285,1695772804769,-0.22436523,-0.97198486,0.28753662,0.328125,0.703125,0.234375
286,1695772804812,-0.24804688,-0.96710205,0.25042725,-0.1875,0.515625,2.546875
287,1695772804850,-0.23266602,-0.9402466,0.2538452,-0.375,-1.34375,-0.90625
288,1695772804888,-0.24731445,-0.9644165,0.2826538,-0.234375,-1.03125,0.609375
289,1695772804917,-0.24609375,-0.9639282,0.260437,1.03125,1.84375,2.71875
290,1695772804963,-0.22509766,-0.95196533,0.2597046,-1.53125,1.078125,0.875
291,1695772805009,-0.23046875,-0.9783325,0.27923584,-1.078125,-1.234375,0.265625
292,1695772805036,-0.234375,-0.93341064,0.2670288,0.984375,0.9375,0.34375
293,1695772805082,-0.2163086,-0.9800415,0.24505615,-1.546875,1.71875,-0.6875
294,1695772805128,-0.22827148,-0.9507446,0.26654053,0.28125,-0.21875,-0.390625
295,1695772805159,-0.23803711,-0.9717407,0.26678467,-3.328125,-0.5,0.046875
296,1695772805203,-0.23413086,-0.9351196,0.25897217,-3.296875,-1.59375,-0.203125
297,1695772805233,-0.21191406,-0.9793091,0.27850342,-1.515625,-1.75,-0.703125
298,1695772805281,-0.21777344,-0.975647,0.24554443,0.859375,-1.703125,2.109375
299,1695772805326,-0.2175293,-0.95440674,0.28875732,0.421875,-0.53125,-0.09375
300,1695772805353,-0.24829102,-0.94122314,0.23114014,-3.296875,-0.328125,-1.15625
301,1695772805400,-0.21948242,-0.9624634,0.29656982,-0.125,-0.09375,-0.53125
302,1695772805426,-0.23754883,-0.9678345,0.2682495,3.359375,-2.671875,1.1875
303,1695772805472,-0.18457031,-1.0078735,0.2506714,4.6875,-0.375,1.296875
304,1695772805517,-0.24780273,-0.9277954,0.27947998,2.6875,4.171875,1.234375
305,1695772805548,-0.20996094,-0.95806885,0.2140503,12.078125,1.390625,-1.5625
306,1695772805592,-0.23657227,-0.9241333,0.22015381,5.671875,0.640625,2.875
307,1695772805637,-0.20898438,-0.9116821,0.15863037,4.140625,-3.671875,-2.390625
308,1695772805668,-0.19482422,-0.9636841,0.20697021,2.109375,-0.78125,0.25
309,1695772805713,-0.20288086,-0.9854126,0.23162842,-0.03125,-1.671875,0.078125
310,1695772805743,-0.23242188,-1.0122681,0.24310303,0.265625,0.984375,1.390625
311,1695772805787,-0.22729492,-0.9692993,0.22235107,-3.734375,0.796875,-0.9375
312,1695772805833,-0.21801758,-0.93292236,0.20941162,-1.84375,-1.125,0.265625
313,1695772805870,-0.21069336,-0.96710205,0.20550537,-1.484375,0.171875,1.40625
314,1695772805912,-0.19091797,-1.0010376,0.21746826,-5.265625,-0.59375,-1.90625
315,1695772805954,-0.22290039,-0.9663696,0.20477295,-4.5,0.59375,-4.171875
316,1695772805981,-0.22094727,-0.9585571,0.25872803,4.078125,1.984375,-0.484375
317,1695772806025,-0.22314453,-0.9678345,0.20648193,1.75,-0.1875,0.6875
318,1695772806057,-0.23242188,-0.9439087,0.22235107,0.640625,-0.125,-0.5625
319,1695772806103,-0.2211914,-1.0012817,0.22528076,-0.8125,-1.390625,0.171875
320,1695772806150,-0.22827148,-0.96099854,0.23138428,0.296875,-1.359375,-0.671875
321,1695772806178,-0.23901367,-0.9614868,0.21063232,-2.109375,0.375,-0.1875
322,1695772806227,-0.21240234,-0.9534302,0.20648193,-2.796875,-0.328125,-2.140625
323,1695772806268,-0.22460938,-0.98150635,0.21844482,-0.625,-0.5625,-0.625
324,1695772806297,-0.2331543,-0.96661377,0.21136475,0.859375,0.546875,0.359375
325,1695772806342,-0.23706055,-0.9793091,0.21942139,-2.828125,-0.640625,-1.625
326,1695772806376,-0.23388672,-0.94781494,0.21600342,-1.4375,1.203125,-1.140625
327,1695772806422,-0.22680664,-0.9746704,0.2255249,-1.328125,0.3125,-2.203125
328,1695772806466,-0.22924805,-0.9710083,0.21478271,-1.578125,-0.609375,-3.1875
329,1695772806493,-0.24169922,-0.97003174,0.23553467,-2.21875,-0.90625,-1.546875
330,1695772806537,-0.24951172,-0.94781494,0.22161865,0.078125,0.5625,-0.5625
331,1695772806590,-0.23876953,-0.95513916,0.2230835,-3.359375,0.734375,-1.203125
332,1695772806614,-0.2277832,-0.98394775,0.22698975,1.09375,1.90625,-0.265625
333,1695772806656,-0.23339844,-0.96661377,0.22821045,-0.03125,2.625,1.546875
334,1695772806688,-0.24267578,-0.9590454,0.22332764,-2.34375,1.328125,-0.328125
335,1695772806730,-0.22192383,-0.95391846,0.23626709,-1.4375,1.359375,-3.0
336,1695772806776,-0.23291016,-0.98687744,0.24578857,1.234375,1.015625,1.109375
337,1695772806806,-0.23364258,-0.9710083,0.22113037,-2.484375,0.171875,0.734375
338,1695772806851,-0.22875977,-0.9495239,0.2267456,0.96875,0.25,0.40625
339,1695772806902,-0.23266602,-0.96173096,0.25091553,-0.3125,0.71875,-0.46875
340,1695772806926,-0.23461914,-0.9776001,0.22283936,-0.953125,-1.40625,-0.25
341,1695772806971,-0.21826172,-0.95147705,0.22650146,-1.9375,-1.0625,-0.46875
342,1695772807001,-0.23950195,-0.9768677,0.2321167,0.15625,-0.46875,1.796875
343,1695772807047,-0.23388672,-0.95025635,0.23602295,-0.90625,-0.25,0.328125
344,1695772807093,-0.23046875,-0.9692993,0.22088623,-1.78125,-2.109375,-1.859375
345,1695772807123,-0.22485352,-0.96661377,0.2345581,-0.75,-1.859375,0.1875
346,1695772807166,-0.23242188,-0.9717407,0.22332764,-3.3125,-2.1875,0.28125
347,1695772807215,-0.24536133,-0.9636841,0.23431396,-0.578125,-1.78125,0.328125
348,1695772807246,-0.24438477,-0.9524536,0.22796631,-1.953125,-0.453125,-0.40625
349,1695772807287,-0.24707031,-0.95684814,0.23040771,-1.890625,-1.6875,-2.0625
350,1695772807318,-0.23999023,-0.9507446,0.24285889,0.78125,0.765625,-0.390625
351,1695772807360,-0.23461914,-0.9651489,0.22991943,-0.90625,-0.96875,-1.953125
352,1695772807408,-0.25854492,-0.9595337,0.23577881,0.390625,-0.671875,-0.78125
353,1695772807438,-0.24487305,-0.97076416,0.2218628,0.171875,0.625,-0.5625
354,1695772807482,-0.23461914,-0.956604,0.2255249,0.46875,1.078125,-1.15625
355,1695772807527,-0.26123047,-0.96051025,0.2506714,0.6875,1.203125,0.21875
356,1695772807559,-0.24536133,-0.9673462,0.22259521,-2.59375,1.125,-1.046875
357,1695772807603,-0.2253418,-0.9678345,0.21575928,-1.734375,0.65625,-1.53125
358,1695772807632,-0.23339844,-0.97784424,0.24456787,0.453125,2.203125,1.296875
359,1695772807678,-0.24145508,-0.95513916,0.22161865,-2.296875,1.6875,0.078125
360,1695772807724,-0.24194336,-0.95025635,0.23846436,-2.359375,0.859375,-2.15625
361,1695772807760,-0.24047852,-0.96539307,0.24212646,1.109375,1.84375,0.109375
362,1695772807796,-0.22753906,-0.9668579,0.23529053,-3.3125,0.0625,-0.921875
363,1695772807874,-0.25830078,-0.96221924,0.2526245,-1.421875,0.625,0.15625
364,1695772807878,-0.2644043,-0.94732666,0.23773193,-0.15625,1.921875,-0.734375
365,1695772807920,-0.24316406,-0.9607544,0.23406982,-1.046875,1.5625,-2.28125
366,1695772807947,-0.23754883,-0.9624634,0.24334717,0.640625,3.484375,-1.625
367,1695772807990,-0.24121094,-0.96539307,0.23016357,-0.828125,1.359375,-0.53125
368,1695772808036,-0.23925781,-0.9673462,0.2321167,-0.8125,1.296875,-1.015625
369,1695772808066,-0.24267578,-0.9619751,0.2411499,-0.390625,1.6875,1.453125
370,1695772808110,-0.23535156,-0.9553833,0.24578857,-0.484375,1.28125,1.953125
371,1695772808158,-0.23266602,-0.9651489,0.2374878,-0.78125,-0.0625,0.1875
372,1695772808187,-0.22143555,-0.96099854,0.23626709,-0.796875,-0.796875,-0.890625
373,1695772808234,-0.2368164,-0.973938,0.23797607,-1.921875,-1.8125,-0.734375
374,1695772808308,-0.23510742,-0.973938,0.25042725,-1.640625,-1.3125,0.296875
375,1695772808317,-0.2565918,-0.9507446,0.22650146,-2.90625,-0.046875,0.0625
376,1695772808355,-0.2475586,-0.97052,0.2538452,-1.59375,0.78125,-0.171875
377,1695772808382,-0.24658203,-0.9390259,0.24383545,-0.421875,2.328125,-0.734375
378,1695772808428,-0.25024414,-0.9607544,0.25750732,-2.34375,0.125,-2.875
379,1695772808474,-0.25732422,-0.97076416,0.2543335,-0.640625,0.296875,-0.78125
380,1695772808503,-0.2355957,-0.96466064,0.23944092,-1.078125,0.953125,-0.25
381,1695772808549,-0.24267578,-0.9541626,0.2514038,-1.015625,0.515625,1.03125
382,1695772808576,-0.234375,-0.95977783,0.25579834,0.1875,0.375,1.046875
383,1695772808623,-0.23803711,-0.958313,0.25360107,-0.453125,-0.453125,0.84375
384,1695772808667,-0.25146484,-0.95684814,0.24505615,-1.078125,-0.453125,0.828125
385,1695772808697,-0.24511719,-0.95318604,0.24017334,-0.234375,-0.046875,0.296875
386,1695772808740,-0.23730469,-0.97052,0.24139404,-0.421875,1.171875,2.15625
387,1695772808786,-0.2409668,-0.95318604,0.2345581,-1.140625,-0.28125,1.828125
388,1695772808818,-0.21972656,-0.9783325,0.25091553,-1.109375,1.046875,2.578125
389,1695772808860,-0.21948242,-0.9522095,0.2506714,-2.421875,0.390625,1.9375
390,1695772808892,-0.23413086,-0.9585571,0.2526245,-3.078125,-1.046875,1.765625
391,1695772808938,-0.22509766,-0.9414673,0.24847412,-4.078125,-0.421875,-1.34375
392,1695772808983,-0.171875,-1.0083618,0.2658081,-3.796875,-2.546875,-5.546875
393,1695772809013,-0.22265625,-1.006897,0.28045654,-8.765625,-2.359375,0.46875
394,1695772809061,-0.26391602,-0.95806885,0.27557373,6.71875,1.375,0.96875
395,1695772809104,-0.21948242,-0.9661255,0.25579834,4.53125,2.6875,5.5625
396,1695772809131,-0.29492188,-0.8374634,0.22357178,11.421875,-0.328125,2.921875
397,1695772809175,-0.19677734,-0.9714966,0.23162842,4.4375,0.828125,-2.34375
398,1695772809204,-0.2109375,-0.96221924,0.24578857,0.609375,-1.140625,-3.96875
399,1695772809251,-0.2319336,-1.0015259,0.25628662,2.203125,1.578125,0.359375
400,1695772809298,-0.23120117,-0.9451294,0.20697021,-2.15625,-1.890625,0.625
401,1695772809328,-0.21679688,-0.9561157,0.22698975,-2.796875,0.890625,-2.21875
402,1695772809372,-0.22729492,-0.989563,0.24285889,-1.21875,0.21875,-2.328125
403,1695772809400,-0.234375,-0.9463501,0.23138428,0.234375,1.0625,-0.140625
404,1695772809447,-0.21557617,-0.9800415,0.22406006,-4.234375,-1.375,-2.453125
405,1695772809496,-0.19946289,-0.97662354,0.24432373,0.5,-0.109375,-0.9375
406,1695772809521,-0.23413086,-0.9783325,0.23846436,2.828125,0.828125,2.90625
407,1695772809567,-0.24560547,-0.93878174,0.23675537,1.46875,-0.71875,-0.0625
408,1695772809614,-0.22583008,-0.9717407,0.20697021,-1.34375,-0.515625,-1.890625
409,1695772809646,-0.21533203,-0.9690552,0.2387085,0.515625,-0.765625,-0.453125
410,1695772809689,-0.21972656,-0.9763794,0.22576904,-1.0625,0.03125,0.734375
411,1695772809717,-0.24780273,-0.9673462,0.22528076,0.640625,0.171875,0.34375
412,1695772809762,-0.22875977,-0.95440674,0.23065186,-1.03125,2.3125,0.28125
413,1695772809810,-0.2109375,-0.9614868,0.21942139,-2.4375,-0.328125,-1.734375
414,1695772809837,-0.23120117,-0.958313,0.23968506,-1.828125,-0.125,-1.75
415,1695772809883,-0.23339844,-0.98321533,0.23260498,-0.3125,-0.59375,-2.4375
416,1695772809925,-0.23022461,-0.94195557,0.22650146,-1.75,-0.328125,-2.359375
417,1695772809956,-0.2421875,-0.9849243,0.23504639,-1.734375,-2.4375,-1.171875
418,1695772810001,-0.24438477,-0.96099854,0.24285889,-2.09375,0.109375,-0.078125
419,1695772810032,-0.23803711,-0.96343994,0.2321167,-3.515625,-0.953125,-1.09375
420,1695772810077,-0.2763672,-0.9624634,0.2765503,-0.234375,1.1875,0.921875
421,1695772810123,-0.2548828,-0.9480591,0.21356201,-1.484375,2.234375,0.953125
422,1695772810152,-0.22973633,-0.9385376,0.22064209,-2.53125,0.0625,-3.03125
423,1695772810195,-0.23486328,-0.991272,0.25897217,-0.359375,0.25,-2.59375
424,1695772810241,-0.2331543,-0.9805298,0.2477417,-1.9375,-0.671875,-0.828125
425,1695772810272,-0.23999023,-0.9356079,0.23773193,-1.84375,-0.640625,-0.078125
426,1695772810318,-0.2487793,-0.9685669,0.24163818,-1.984375,-2.125,-0.953125
427,1695772810347,-0.24536133,-0.9590454,0.24163818,-2.109375,-0.71875,-1.296875
428,1695772810393,-0.2487793,-0.98516846,0.2501831,-1.953125,-1.890625,-1.09375
429,1695772810437,-0.24389648,-0.9463501,0.23699951,-5.453125,-1.609375,0.359375
430,1695772810468,-0.23632812,-0.97735596,0.2374878,-6.453125,-4.578125,0.359375
431,1695772810511,-0.24389648,-0.9590454,0.26263428,-1.890625,-1.734375,3.78125
432,1695772810556,-0.23828125,-0.97369385,0.25213623,-4.734375,-3.1875,0.5625
433,1695772810585,-0.20629883,-1.0039673,0.29656982,-0.578125,1.28125,0.125
434,1695772810631,-0.26391602,-1.0466919,0.31414795,-13.5,-2.5625,9.671875
435,1695772810660,-0.24487305,-0.7871704,0.19378662,-3.015625,-6.171875,-0.28125
436,1695772810706,-0.23852539,-0.9661255,0.291687,4.734375,-1.203125,3.796875
437,1695772810750,-0.24072266,-0.88116455,0.25750732,12.671875,2.234375,8.5
438,1695772810780,-0.22485352,-0.8933716,0.21600342,-2.546875,1.40625,-4.0625
439,1695772810824,-0.21044922,-1.0249634,0.291687,-3.890625,-7.390625,-7.515625
440,1695772810871,-0.24902344,-1.0042114,0.28485107,3.203125,-1.171875,2.375
441,1695772810902,-0.20825195,-0.9483032,0.2645874,-1.09375,-0.015625,0.8125
442,1695772810944,-0.24145508,-0.98760986,0.25286865,-2.9375,-4.15625,1.046875
443,1695772810974,-0.23657227,-0.92803955,0.25042725,-2.125,-1.28125,-0.1875
444,1695772811019,-0.24291992,-0.9434204,0.27044678,0.921875,-1.40625,-0.03125
445,1695772811064,-0.25390625,-0.9812622,0.2662964,0.265625,0.46875,-1.4375
446,1695772811095,-0.23706055,-0.9692993,0.25994873,-1.6875,2.5625,0.125
447,1695772811140,-0.22680664,-0.95684814,0.26507568,-0.71875,1.125,-0.703125
448,1695772811183,-0.2397461,-0.94073486,0.2772827,0.8125,2.265625,-0.21875
449,1695772811213,-0.21777344,-0.975647,0.26263428,-0.78125,0.578125,-0.9375
450,1695772811260,-0.21972656,-0.96051025,0.26531982,-1.34375,2.203125,0.453125
451,1695772811289,-0.23876953,-0.9663696,0.25335693,0.5625,2.0625,2.09375
452,1695772811333,-0.23583984,-0.9451294,0.26116943,-1.296875,2.59375,0.109375
453,1695772811378,-0.21850586,-0.9495239,0.27435303,0.640625,2.640625,-0.609375
454,1695772811410,-0.21875,-0.975647,0.28826904,0.25,4.203125,0.671875
455,1695772811456,-0.19799805,-0.94854736,0.25994873,0.03125,2.03125,-1.21875
456,1695772811500,-0.19580078,-0.92510986,0.26434326,3.953125,0.8125,-1.53125
457,1695772811530,-0.20239258,-0.98443604,0.27337646,-1.1875,-1.40625,-2.78125
458,1695772811574,-0.30029297,-0.987854,0.27508545,5.125,1.90625,6.8125
459,1695772811604,-0.22875977,-0.9763794,0.24700928,-2.46875,3.21875,-1.3125
460,1695772811649,-0.21264648,-0.98101807,0.2489624,-3.265625,-0.390625,-3.484375
461,1695772811695,-0.2097168,-0.97076416,0.2555542,0.671875,5.328125,1.09375
462,1695772811724,-0.19848633,-0.94537354,0.22332764,-3.296875,3.53125,1.875
463,1695772811770,-0.22705078,-0.9714966,0.2597046,-2.1875,0.953125,2.015625
464,1695772811845,-0.22558594,-0.9793091,0.27801514,-2.609375,4.5,0.828125
465,1695772811847,-0.22851562,-0.92755127,0.2711792,-0.484375,4.640625,1.1875
466,1695772811889,-0.20922852,-0.93756104,0.24578857,-3.03125,2.765625,-2.984375
467,1695772811918,-0.18237305,-0.9414673,0.26605225,1.25,0.65625,-2.484375
468,1695772811964,-0.19750977,-0.96051025,0.2831421,0.078125,1.953125,-2.140625
469,1695772812009,-0.24316406,-0.9685669,0.2555542,1.3125,0.625,1.9375
470,1695772812040,-0.21411133,-0.9690552,0.260437,-7.578125,-2.484375,-3.0625
471,1695772812085,-0.20581055,-0.9710083,0.2670288,-2.703125,-2.0625,0.3125
472,1695772812130,-0.21069336,-1.00177,0.25775146,-1.9375,2.59375,1.046875
473,1695772812162,-0.22363281,-1.0090942,0.29022217,-3.578125,4.6875,4.015625
474,1695772812207,-0.2446289,-0.96539307,0.29730225,-9.109375,3.75,6.84375
475,1695772812281,-0.2199707,-0.9138794,0.2399292,-0.125,-1.96875,4.03125
476,1695772812285,-0.1081543,-1.0108032,0.32928467,10.640625,4.046875,10.078125
477,1695772812328,-0.20361328,-0.88067627,0.24798584,6.125,0.0,5.6875
478,1695772812357,-0.115234375,-0.9500122,0.22479248,1.21875,-8.65625,-2.40625
479,1695772812405,-0.17236328,-0.94000244,0.28582764,2.484375,-2.734375,-2.296875
480,1695772812478,-0.19433594,-0.9456177,0.26531982,0.03125,-3.8125,-1.953125
481,1695772812482,-0.20727539,-0.98272705,0.2687378,0.078125,-4.625,0.21875
482,1695772812523,-0.16967773,-0.9883423,0.3204956,1.453125,1.734375,-2.140625
483,1695772812554,-0.22216797,-0.9866333,0.2411499,-5.359375,-0.75,0.546875
484,1695772812598,-0.23461914,-0.8867798,0.20599365,-2.765625,-6.515625,-6.9375
485,1695772812641,-0.14868164,-0.97003174,0.28729248,5.09375,-2.265625,-9.28125
486,1695772812673,-0.17822266,-0.9902954,0.2597046,4.984375,-2.984375,-4.703125
487,1695772812718,-0.2265625,-0.9558716,0.23040771,1.671875,-5.390625,-5.734375
488,1695772812763,-0.24023438,-0.93951416,0.22161865,1.78125,-4.359375,-10.90625
489,1695772812790,-0.26879883,-0.97906494,0.26776123,3.90625,-3.59375,-10.578125
490,1695772812836,-0.2680664,-0.9495239,0.21990967,1.703125,-0.703125,-10.203125
491,1695772812866,-0.26220703,-0.9776001,0.23675537,-1.75,-1.875,-9.8125
492,1695772812914,-0.29370117,-0.9290161,0.21453857,1.109375,2.21875,-8.71875
493,1695772812955,-0.28808594,-0.9973755,0.27288818,3.546875,0.296875,-4.921875
494,1695772812985,-0.30981445,-0.95684814,0.2177124,-5.59375,0.53125,-4.65625
495,1695772813032,-0.28955078,-0.94854736,0.21234131,-3.9375,0.53125,-6.296875
496,1695772813076,-0.27954102,-0.9758911,0.25726318,1.578125,2.921875,-1.71875
497,1695772813107,-0.31860352,-0.9602661,0.2243042,-0.828125,3.1875,5.140625
498,1695772813152,-0.3022461,-0.9500122,0.2321167,-3.21875,-0.359375,-0.3125
499,1695772813180,-0.29248047,-0.95806885,0.24822998,-1.625,3.25,3.921875
500,1695772813225,-0.28710938,-0.96099854,0.22479248,-3.25,2.96875,4.90625
501,1695772813280,-0.27197266,-0.9536743,0.23529053,-0.8125,2.484375,4.03125
502,1695772813301,-0.30004883,-0.9402466,0.262146,-3.515625,2.96875,3.84375
503,1695772813346,-0.28393555,-0.95025635,0.24554443,-2.046875,3.03125,4.4375
504,1695772813377,-0.25805664,-0.9312134,0.24700928,-4.40625,3.46875,3.640625
505,1695772813421,-0.24731445,-0.97247314,0.26898193,-3.515625,2.40625,2.96875
506,1695772813467,-0.25756836,-0.9746704,0.27557373,-3.375,1.40625,6.203125
507,1695772813495,-0.25,-0.92388916,0.2543335,-2.90625,3.484375,5.953125
508,1695772813539,-0.2253418,-0.958313,0.26483154,-5.921875,0.515625,3.875
509,1695772813586,-0.22973633,-0.94488525,0.27752686,-6.109375,-0.859375,2.515625
510,1695772813615,-0.21020508,-0.9619751,0.30194092,-6.1875,-0.234375,1.109375
511,1695772813665,-0.20166016,-0.9631958,0.2699585,-8.359375,-3.28125,-0.703125
512,1695772813692,-0.23608398,-0.975647,0.27825928,-14.140625,-2.421875,-2.703125
513,1695772813739,-0.26757812,-0.99420166,0.36810303,0.390625,-2.296875,1.84375
514,1695772813782,-0.29956055,-0.9529419,0.32904053,0.65625,-0.875,6.203125
515,1695772813812,-0.22192383,-0.90338135,0.30828857,3.34375,2.84375,7.9375
516,1695772813856,-0.24047852,-0.88287354,0.23651123,11.734375,3.84375,11.21875
517,1695772813901,-0.21191406,-0.88116455,0.2921753,10.640625,1.734375,7.359375
518,1695772813939,-0.20361328,-0.98028564,0.25604248,2.6875,3.703125,-1.4375
519,1695772813975,-0.22387695,-0.9788208,0.2843628,1.21875,0.828125,1.296875
520,1695772814008,-0.19335938,-0.98516846,0.2736206,1.828125,4.0625,4.171875
521,1695772814052,-0.17553711,-0.9800415,0.28118896,0.09375,2.328125,1.21875
522,1695772814099,-0.17871094,-0.9763794,0.2567749,1.71875,0.359375,2.046875
523,1695772814128,-0.1821289,-0.93829346,0.26556396,4.21875,2.578125,3.609375
524,1695772814171,-0.17871094,-0.9727173,0.26116943,0.484375,1.6875,0.875
525,1695772814217,-0.16430664,-1.0064087,0.26190186,3.03125,1.640625,1.71875
526,1695772814246,-0.15698242,-0.9553833,0.25042725,0.84375,2.8125,1.078125
527,1695772814292,-0.1328125,-0.9873657,0.25042725,1.703125,1.078125,0.84375
528,1695772814325,-0.15405273,-0.972229,0.2531128,1.078125,-0.71875,1.046875
529,1695772814366,-0.14648438,-0.9817505,0.24212646,-1.109375,-1.234375,-0.21875
530,1695772814414,-0.17163086,-0.9783325,0.25579834,-0.15625,-2.25,-0.125
531,1695772814445,-0.17163086,-0.9627075,0.2489624,1.8125,0.5,0.0625
532,1695772814485,-0.15771484,-0.9612427,0.23480225,-1.84375,-1.21875,-2.328125
533,1695772814530,-0.16748047,-0.97662354,0.2506714,-0.671875,-2.703125,-2.21875
534,1695772814561,-0.17382812,-0.97369385,0.23114014,-0.890625,-1.171875,-1.171875
535,1695772814604,-0.19189453,-0.9619751,0.2411499,-0.46875,-0.546875,-0.78125
536,1695772814638,-0.18066406,-0.95391846,0.24798584,-1.28125,2.21875,-1.171875
537,1695772814679,-0.16992188,-0.97442627,0.24432373,-1.703125,-0.015625,-0.890625
538,1695772814723,-0.16308594,-0.97369385,0.24993896,-0.90625,2.140625,-1.59375
539,1695772814754,-0.15795898,-0.9817505,0.2453003,0.296875,0.28125,-2.84375
540,1695772814803,-0.16088867,-0.97784424,0.22601318,-0.96875,-0.671875,-2.40625
541,1695772814845,-0.16992188,-0.9651489,0.23529053,-1.65625,-0.625,-2.65625
542,1695772814873,-0.19189453,-0.9793091,0.2543335,2.375,1.328125,0.71875
543,1695772814918,-0.17407227,-0.9680786,0.2411499,-0.15625,1.875,-1.265625
544,1695772814948,-0.16137695,-0.989563,0.23651123,-1.9375,0.75,-1.96875
545,1695772814995,-0.15771484,-0.97320557,0.25335693,0.015625,0.5,-1.515625
546,1695772815039,-0.15966797,-0.9927368,0.24749756,-1.25,0.25,-0.46875
547,1695772815069,-0.1730957,-0.96099854,0.2374878,-2.6875,-0.890625,0.78125
548,1695772815114,-0.1899414,-0.9751587,0.2609253,-1.796875,-0.578125,0.609375
549,1695772815160,-0.1899414,-0.9685669,0.23822021,-1.640625,0.21875,-1.046875
550,1695772815189,-0.19189453,-0.9805298,0.26019287,-4.515625,0.296875,-2.5
551,1695772815234,-0.17163086,-0.9573364,0.230896,-1.484375,3.6875,-2.140625
552,1695772815264,-0.15478516,-0.98443604,0.27264404,-5.484375,0.640625,-3.109375
553,1695772815310,-0.17602539,-0.9734497,0.2514038,-2.296875,0.203125,-0.25
554,1695772815355,-0.16625977,-0.94537354,0.309021,-0.328125,3.40625,-0.59375
555,1695772815384,-0.21972656,-0.9553833,0.28411865,1.640625,0.0625,3.765625
556,1695772815431,-0.1940918,-0.93878174,0.23699951,-2.546875,-1.28125,-2.28125
557,1695772815475,-0.1796875,-0.9819946,0.29925537,-1.1875,-1.46875,-2.953125
558,1695772815504,-0.20800781,-0.986145,0.27825928,-0.25,0.3125,0.265625
559,1695772815552,-0.203125,-0.94244385,0.23822021,-2.453125,0.375,-2.078125
560,1695772815581,-0.20239258,-0.95684814,0.28656006,0.0,0.828125,-2.53125
561,1695772815631,-0.19335938,-0.975647,0.26361084,-2.453125,1.234375,-2.625
562,1695772815674,-0.17700195,-0.9500122,0.25408936,-2.609375,-0.125,-3.625
563,1695772815700,-0.20361328,-0.96295166,0.30389404,0.375,1.1875,-2.671875
564,1695772815746,-0.22094727,-0.9668579,0.28826904,0.53125,0.53125,-0.0625
565,1695772815833,-0.2290039,-0.92633057,0.2616577,-0.453125,0.734375,-0.46875
566,1695772815836,-0.19995117,-0.9656372,0.26239014,-0.84375,0.3125,-4.703125
567,1695772815868,-0.2277832,-0.94244385,0.2982788,-1.40625,1.15625,-2.53125
568,1695772815897,-0.20751953,-0.9697876,0.2645874,-0.453125,0.921875,-3.265625
569,1695772815945,-0.21948242,-0.95806885,0.2699585,-2.53125,0.0625,-1.125
570,1695772815988,-0.21411133,-0.9729614,0.26800537,0.578125,0.0,-2.328125
571,1695772816017,-0.2253418,-0.9517212,0.25872803,-2.390625,0.515625,-2.828125
572,1695772816062,-0.22460938,-0.9751587,0.29022217,-0.328125,-1.140625,-3.140625
573,1695772816109,-0.25219727,-0.95391846,0.28363037,0.484375,1.421875,-0.171875
574,1695772816136,-0.25610352,-0.9336548,0.2662964,-1.390625,1.84375,-1.34375
575,1695772816181,-0.23388672,-0.96221924,0.26678467,-0.078125,0.9375,-3.578125
576,1695772816256,-0.2265625,-0.96881104,0.2855835,-1.5,1.03125,-2.359375
577,1695772816258,-0.22875977,-0.9458618,0.29022217,-2.125,1.828125,-1.453125
578,1695772816300,-0.24487305,-0.9456177,0.2670288,-2.1875,-0.6875,-1.234375
579,1695772816333,-0.23364258,-0.9663696,0.29071045,-0.9375,0.703125,-1.65625
580,1695772816377,-0.2536621,-0.9590454,0.27972412,0.0,0.921875,-0.953125
581,1695772816453,-0.2446289,-0.94000244,0.28363037,-2.28125,-0.734375,-3.75
582,1695772816456,-0.26293945,-0.9404907,0.28216553,0.46875,0.984375,-0.84375
583,1695772816498,-0.22827148,-0.9570923,0.27069092,-0.84375,0.015625,-3.28125
584,1695772816527,-0.26171875,-0.9812622,0.29681396,-2.09375,-0.703125,-2.421875
585,1695772816571,-0.27685547,-0.92681885,0.28070068,0.046875,1.015625,-0.796875
586,1695772816617,-0.25439453,-0.9258423,0.27923584,0.3125,0.234375,-2.40625
587,1695772816647,-0.26489258,-0.95098877,0.26434326,-2.171875,0.640625,-2.125
588,1695772816695,-0.25634766,-0.9692993,0.30194092,-0.734375,0.78125,-2.359375
589,1695772816741,-0.27026367,-0.9590454,0.28948975,-1.015625,1.859375,0.484375
590,1695772816770,-0.27319336,-0.92193604,0.26849365,0.71875,0.578125,-0.203125
591,1695772816815,-0.24926758,-0.9631958,0.29241943,-0.15625,0.640625,-0.609375
592,1695772816841,-0.27563477,-0.9505005,0.28631592,1.46875,1.34375,1.71875
593,1695772816887,-0.25756836,-0.95562744,0.2723999,0.578125,1.359375,0.265625
594,1695772816930,-0.24975586,-0.9475708,0.27825928,-0.40625,0.953125,-0.078125
595,1695772816974,-0.25634766,-0.9619751,0.27337646,2.734375,0.890625,2.015625
596,1695772817008,-0.24682617,-0.9434204,0.28216553,1.171875,1.921875,1.59375
597,1695772817050,-0.24291992,-0.9656372,0.25408936,0.40625,-1.265625,1.15625
598,1695772817083,-0.23925781,-0.95025635,0.27093506,-0.484375,-0.640625,0.34375
599,1695772817127,-0.25048828,-0.9578247,0.26287842,0.8125,-0.890625,0.953125
600,1695772817162,-0.26489258,-0.960022,0.2687378,1.59375,-0.65625,2.171875
601,1695772817203,-0.2355957,-0.96954346,0.28070068,-0.03125,-1.203125,1.34375
602,1695772817246,-0.25830078,-0.96588135,0.25531006,-2.53125,-2.5,1.3125
603,1695772817276,-0.22583008,-0.9495239,0.26116943,-3.0,-0.109375,1.21875
604,1695772817322,-0.23632812,-0.9746704,0.27703857,-4.328125,-1.875,2.140625
605,1695772817350,-0.24169922,-0.98028564,0.2579956,-5.96875,-2.84375,2.015625
606,1695772817394,-0.23168945,-0.94781494,0.27874756,-6.046875,-2.703125,1.6875
607,1695772817441,-0.25439453,-0.95318604,0.27923584,-3.421875,-0.015625,3.28125
608,1695772817470,-0.24023438,-0.9307251,0.2850952,-0.859375,2.296875,4.5625
609,1695772817515,-0.21582031,-0.9517212,0.28900146,-3.828125,0.671875,1.375
610,1695772817560,-0.23950195,-0.958313,0.3156128,-1.1875,1.0625,1.5625
611,1695772817589,-0.21289062,-0.9365845,0.30169678,-2.1875,0.1875,-0.328125
612,1695772817635,-0.21899414,-0.94976807,0.30438232,-0.84375,-0.546875,0.5625
613,1695772817666,-0.21777344,-0.96417236,0.2921753,0.875,1.171875,1.03125
614,1695772817710,-0.19970703,-0.9578247,0.2982788,-1.25,0.421875,0.390625
615,1695772817755,-0.22949219,-0.92681885,0.2946167,1.65625,1.5,0.09375
616,1695772817785,-0.22460938,-0.96051025,0.2843628,2.921875,1.484375,-1.6875
617,1695772817831,-0.2163086,-0.9619751,0.31463623,5.5,2.40625,-1.265625
618,1695772817878,-0.21679688,-0.958313,0.27996826,0.3125,0.84375,-2.796875
619,1695772817907,-0.2121582,-0.94854736,0.2868042,-1.234375,0.21875,-3.359375
620,1695772817956,-0.25512695,-0.9561157,0.29193115,1.8125,2.9375,1.078125
621,1695772817981,-0.22924805,-0.93634033,0.29266357,-1.828125,1.328125,-2.0
622,1695772818026,-0.23828125,-0.9546509,0.27703857,-2.03125,-0.1875,-2.734375
623,1695772818072,-0.21948242,-0.9780884,0.29412842,6.40625,5.34375,2.328125
624,1695772818101,-0.22290039,-0.98760986,0.2682495,-1.34375,1.75,6.1875
625,1695772818145,-0.2241211,-0.9570923,0.27679443,-2.921875,2.1875,4.5
626,1695772818192,-0.22045898,-0.93951416,0.26898193,0.25,3.671875,3.921875
627,1695772818220,-0.15576172,-0.97125244,0.2506714,-5.453125,-0.21875,-3.3125
628,1695772818267,-0.18554688,-0.9439087,0.29656982,-0.890625,0.828125,-2.5625
629,1695772818299,-0.19604492,-0.98101807,0.32147217,5.375,-0.625,-2.453125
630,1695772818342,-0.20678711,-1.0164185,0.29632568,-2.546875,-6.078125,-1.71875
631,1695772818385,-0.2199707,-0.9336548,0.2592163,-3.484375,-4.28125,-2.578125
632,1695772818415,-0.2043457,-0.9170532,0.2616577,-0.875,-3.53125,-3.0625
633,1695772818460,-0.2265625,-0.98638916,0.3102417,1.703125,-3.0625,0.40625
634,1695772818504,-0.20727539,-0.9578247,0.2506714,-1.578125,-2.484375,0.0
635,1695772818537,-0.2619629,-0.96295166,0.29901123,-2.65625,-4.359375,0.96875
636,1695772818582,-0.24829102,-0.9522095,0.28363037,2.375,-3.640625,2.421875
637,1695772818612,-0.22827148,-0.9924927,0.3007202,0.046875,-3.59375,2.109375
638,1695772818657,-0.24291992,-0.94073486,0.2501831,0.484375,-0.546875,3.25
639,1695772818705,-0.20043945,-0.9368286,0.2538452,2.359375,-2.109375,0.109375
640,1695772818729,-0.20483398,-0.9812622,0.24017334,4.453125,-1.375,1.609375
641,1695772818774,-0.18286133,-0.90826416,0.23504639,4.453125,1.84375,3.640625
642,1695772818819,-0.18774414,-0.9727173,0.23260498,-3.21875,-2.203125,-2.21875
643,1695772818849,-0.25634766,-0.94195557,0.26678467,1.21875,-0.5,2.921875
644,1695772818894,-0.20410156,-0.97662354,0.24285889,-1.515625,-1.21875,-2.328125
645,1695772818925,-0.20117188,-0.986145,0.27703857,-1.375,-1.375,-2.8125
646,1695772818969,-0.22192383,-0.96881104,0.23382568,-2.484375,-0.890625,-0.421875
647,1695772819014,-0.21118164,-0.93048096,0.23480225,-0.25,-1.390625,0.734375
648,1695772819045,-0.19921875,-0.9873657,0.26068115,0.484375,-2.359375,-0.296875
649,1695772819091,-0.21826172,-0.98516846,0.2772827,2.96875,1.453125,3.1875
650,1695772819135,-0.20947266,-0.98223877,0.24407959,-1.875,0.78125,1.984375
651,1695772819164,-0.23413086,-0.9631958,0.23577881,-0.3125,1.75,2.5
652,1695772819209,-0.19482422,-0.96099854,0.24407959,-0.953125,4.375,-0.34375
653,1695772819239,-0.18676758,-0.9783325,0.24359131,-1.125,2.0625,1.3125
654,1695772819285,-0.18017578,-0.94317627,0.23406982,0.015625,4.59375,0.4375
655,1695772819331,-0.18334961,-0.9627075,0.27191162,0.421875,1.09375,-2.109375
656,1695772819360,-0.23706055,-0.9944458,0.260437,-1.484375,1.578125,1.265625
657,1695772819405,-0.19116211,-0.94000244,0.2098999,-4.453125,2.0,-0.859375
658,1695772819451,-0.1862793,-0.9768677,0.27166748,0.328125,1.5,-0.546875
659,1695772819480,-0.15405273,-0.973938,0.276062,2.28125,3.75,1.765625
660,1695772819525,-0.18066406,-0.98272705,0.23065186,-4.8125,-4.921875,0.25
661,1695772819556,-0.16845703,-0.9348755,0.23944092,-2.78125,-1.96875,-1.46875
662,1695772819599,-0.21582031,-1.0064087,0.27215576,-2.484375,-1.125,3.15625
663,1695772819646,-0.24511719,-0.9336548,0.27215576,4.03125,4.46875,5.609375
664,1695772819674,-0.18066406,-0.9812622,0.246521,-1.203125,1.15625,-0.84375
665,1695772819720,-0.16040039,-0.96051025,0.24603271,0.3125,-0.125,-1.234375
666,1695772819765,-0.14794922,-0.9981079,0.23797607,-3.21875,-1.046875,-0.71875
667,1695772819795,-0.21044922,-0.9434204,0.25286865,-1.203125,-0.5625,1.484375
668,1695772819842,-0.22314453,-0.9702759,0.27093506,0.484375,0.4375,1.75
669,1695772819873,-0.19897461,-0.9585571,0.23773193,-1.59375,-0.078125,1.171875
670,1695772819917,-0.20043945,-0.9573364,0.24554443,-2.3125,-0.359375,0.109375
671,1695772819968,-0.2084961,-0.98883057,0.26531982,-2.34375,1.875,-1.1875
672,1695772819995,-0.20727539,-0.97198486,0.23919678,-2.15625,3.375,0.125
673,1695772820038,-0.16625977,-0.94781494,0.2555542,-0.953125,3.8125,-0.703125
674,1695772820082,-0.1628418,-0.9819946,0.24822998,0.046875,2.796875,0.515625
675,1695772820113,-0.16503906,-0.96295166,0.25946045,-3.1875,2.3125,-1.21875
676,1695772820154,-0.17285156,-0.973938,0.26800537,-0.1875,2.0,-1.5625
677,1695772820239,-0.16967773,-0.9690552,0.26605225,-1.734375,1.015625,-1.515625
678,1695772820244,-0.16796875,-0.94244385,0.26068115,-0.84375,0.96875,-1.546875
679,1695772820276,-0.15771484,-0.986145,0.28533936,1.375,0.5625,-1.171875
680,1695772820306,-0.17993164,-0.9561157,0.2670288,1.46875,2.03125,0.359375
681,1695772820351,-0.1665039,-0.9595337,0.26361084,-0.96875,-1.390625,-4.453125
682,1695772820429,-0.18310547,-0.9558716,0.27801514,-0.40625,-0.328125,-3.640625
683,1695772820432,-0.17260742,-0.96832275,0.2645874,0.734375,-0.65625,-1.625
684,1695772820475,-0.18261719,-0.9651489,0.26141357,1.1875,-0.296875,-0.34375
685,1695772820504,-0.17773438,-0.9800415,0.27850342,-0.25,-1.75,-2.484375
686,1695772820548,-0.18676758,-0.96661377,0.2645874,-1.15625,-1.46875,-0.859375
687,1695772820595,-0.1940918,-0.9585571,0.26507568,1.265625,1.046875,0.5625
688,1695772820622,-0.20483398,-0.9451294,0.24432373,0.53125,1.921875,-1.125
689,1695772820669,-0.18603516,-0.9692993,0.2609253,-0.375,1.03125,-5.3125
690,1695772820712,-0.19165039,-0.9944458,0.24993896,-1.875,-0.828125,-3.984375
691,1695772820742,-0.19970703,-0.96588135,0.27215576,0.78125,1.375,-1.140625
692,1695772820788,-0.23242188,-0.942688,0.26409912,2.0625,3.578125,0.25
693,1695772820819,-0.20532227,-0.972229,0.2514038,0.34375,2.453125,-2.546875
694,1695772820861,-0.19555664,-0.9697876,0.24749756,0.046875,1.15625,-2.4375
695,1695772820907,-0.19702148,-0.972229,0.26776123,1.671875,2.453125,-0.359375
696,1695772820938,-0.18969727,-0.9522095,0.246521,0.71875,2.203125,-0.1875
697,1695772820983,-0.20483398,-0.9788208,0.23968506,-0.875,-0.84375,-0.671875
698,1695772821027,-0.20678711,-0.9741821,0.2584839,0.40625,0.21875,-1.171875
699,1695772821058,-0.2084961,-0.972229,0.24725342,-1.0,-0.734375,-0.21875
700,1695772821103,-0.19921875,-0.9602661,0.25238037,-0.71875,-1.703125,-1.671875
701,1695772821132,-0.21166992,-0.97369385,0.24798584,-0.265625,-1.0625,-1.390625
702,1695772821176,-0.20996094,-0.9680786,0.23382568,-1.859375,-1.828125,-2.09375
703,1695772821222,-0.23852539,-0.9636841,0.2567749,-0.765625,-0.859375,0.875
704,1695772821252,-0.23754883,-0.95928955,0.25726318,-0.03125,-0.296875,-0.15625
705,1695772821300,-0.22924805,-0.96539307,0.24359131,-4.0,-0.828125,-1.40625
706,1695772821330,-0.20605469,-0.9807739,0.2658081,-1.84375,0.265625,-2.203125
707,1695772821371,-0.22241211,-0.97076416,0.23895264,-3.5,-0.671875,-0.171875
708,1695772821419,-0.23510742,-0.9663696,0.25482178,-2.40625,-0.84375,0.140625
709,1695772821447,-0.20996094,-0.96954346,0.24212646,-3.875,0.140625,0.1875
710,1695772821494,-0.22924805,-0.96466064,0.25604248,-1.859375,-0.171875,0.765625
711,1695772821537,-0.2133789,-0.9614868,0.2477417,-2.296875,0.875,0.53125
712,1695772821566,-0.23852539,-0.9439087,0.25360107,-1.8125,-0.015625,1.375
713,1695772821613,-0.22705078,-0.97979736,0.26434326,-3.25,3.78125,2.3125
714,1695772821642,-0.21289062,-0.9536743,0.25775146,-0.953125,3.5625,2.59375
715,1695772821689,-0.203125,-0.97857666,0.27215576,-6.265625,1.890625,-0.03125
716,1695772821734,-0.18701172,-0.98565674,0.2772827,-6.859375,-0.984375,-0.5
717,1695772821766,-0.19311523,-0.9248657,0.29412842,-6.828125,-2.40625,-1.78125
718,1695772821812,-0.21557617,-0.9553833,0.27801514,-3.21875,0.265625,1.640625
719,1695772821855,-0.16967773,-0.9458618,0.2987671,-4.484375,1.40625,-3.921875
720,1695772821885,-0.25268555,-0.9727173,0.32635498,-3.140625,-0.5625,4.140625
721,1695772821928,-0.20898438,-0.9729614,0.33099365,16.390625,-1.0625,-10.140625
722,1695772821959,-0.28466797,-0.9258423,0.32269287,3.84375,-4.453125,0.890625
723,1695772822001,-0.23339844,-0.87042236,0.23968506,6.1875,-4.265625,-3.890625
724,1695772822047,-0.19458008,-0.95196533,0.21356201,0.5,-10.609375,0.984375
725,1695772822076,-0.24487305,-0.9800415,0.26556396,4.34375,-2.828125,3.265625
726,1695772822121,-0.22314453,-1.000061,0.23284912,0.46875,-2.1875,6.875
727,1695772822167,-0.22705078,-0.9146118,0.27801514,-1.09375,-3.453125,1.703125
728,1695772822203,-0.24072266,-0.97662354,0.18572998,-4.0625,-4.03125,-0.421875
729,1695772822240,-0.21557617,-0.95635986,0.2543335,-1.5625,-1.984375,-2.21875
730,1695772822274,-0.203125,-0.99053955,0.27044678,-1.171875,-1.25,-0.421875
731,1695772822316,-0.24682617,-0.9627075,0.27947998,-0.09375,-1.375,4.375
732,1695772822361,-0.22363281,-0.9446411,0.24725342,-0.78125,-1.5625,2.625
733,1695772822390,-0.21606445,-0.94488525,0.25213623,1.1875,0.375,1.359375
734,1695772822441,-0.22631836,-0.99053955,0.2658081,1.5625,0.453125,1.671875
735,1695772822483,-0.1928711,-0.972229,0.24603271,-2.109375,-0.578125,0.984375
736,1695772822511,-0.20141602,-0.9714966,0.25335693,-1.140625,-0.296875,3.0
737,1695772822557,-0.23803711,-0.991272,0.24676514,-2.796875,1.671875,5.90625
738,1695772822588,-0.20043945,-0.9849243,0.22601318,-6.34375,0.453125,0.515625
739,1695772822632,-0.18579102,-0.96417236,0.26287842,-4.640625,2.890625,-0.703125
740,1695772822680,-0.16113281,-0.96759033,0.2723999,-3.046875,2.734375,-0.421875
741,1695772822713,-0.19677734,-0.94366455,0.27386475,-2.703125,1.96875,1.015625
742,1695772822754,-0.20947266,-0.9534302,0.25531006,-5.125,0.890625,-1.109375
743,1695772822797,-0.18701172,-0.9763794,0.28753662,-4.90625,1.65625,-2.40625
744,1695772822826,-0.17480469,-0.93927,0.30023193,-2.21875,2.890625,-0.125
745,1695772822874,-0.19042969,-0.99420166,0.29510498,-1.9375,2.375,1.640625
746,1695772822903,-0.17285156,-0.93414307,0.2579956,-4.453125,0.40625,0.421875
747,1695772822952,-0.1665039,-0.9746704,0.30316162,-3.390625,-0.46875,-3.0625
748,1695772822995,-0.18115234,-0.97052,0.29901123,1.625,2.0625,2.109375
749,1695772823024,-0.16894531,-0.94781494,0.28582764,-3.59375,-0.859375,-2.234375
750,1695772823067,-0.19238281,-0.95147705,0.3053589,0.25,0.515625,-0.796875
751,1695772823112,-0.17944336,-0.9824829,0.32025146,-0.25,-0.40625,0.6875
752,1695772823141,-0.19726562,-0.95025635,0.27801514,-4.5625,-0.171875,1.015625
753,1695772823185,-0.16870117,-0.94366455,0.28656006,-2.5,0.25,-2.34375
754,1695772823216,-0.17260742,-0.986145,0.3287964,0.75,0.703125,-0.5625
755,1695772823259,-0.17871094,-0.9402466,0.30023193,-3.484375,-1.453125,-0.890625
756,1695772823305,-0.17773438,-0.9487915,0.29388428,-6.140625,-2.953125,-4.953125
757,1695772823340,-0.1887207,-0.96710205,0.33441162,-1.46875,-1.71875,-1.375
758,1695772823381,-0.19897461,-0.95684814,0.3336792,-0.6875,-0.15625,-0.390625
759,1695772823427,-0.20092773,-0.98638916,0.28826904,-8.5,-2.40625,-1.953125
760,1695772823457,-0.15600586,-0.95196533,0.34490967,-1.328125,-3.34375,-5.953125
761,1695772823501,-0.16821289,-0.9500122,0.30560303,-4.609375,-8.46875,-4.0
762,1695772823534,-0.20410156,-0.90460205,0.32513428,4.96875,-0.484375,-6.09375
763,1695772823580,-0.2824707,-0.9590454,0.3793335,13.125,0.984375,6.546875
764,1695772823622,-0.29101562,-0.8936157,0.27093506,3.359375,-0.3125,0.953125
765,1695772823653,-0.21582031,-0.96661377,0.27752686,1.71875,-2.9375,-3.734375
766,1695772823704,-0.20141602,-0.9194946,0.3065796,5.359375,2.484375,-0.015625
767,1695772823744,-0.18432617,-0.95196533,0.27313232,-0.234375,1.375,-0.640625
768,1695772823775,-0.24560547,-0.989563,0.31341553,-0.90625,-1.015625,1.453125
769,1695772823821,-0.25,-0.97125244,0.26727295,-2.84375,1.25,2.078125
770,1695772823852,-0.21850586,-0.92193604,0.27508545,-2.84375,-0.125,-3.40625
771,1695772823894,-0.18188477,-0.96099854,0.32244873,0.3125,0.203125,-5.546875
772,1695772823940,-0.21899414,-0.98272705,0.29510498,-1.3125,1.171875,-0.828125
773,1695772823970,-0.24243164,-0.923645,0.28411865,1.03125,0.34375,1.234375
774,1695772824012,-0.22705078,-0.99468994,0.29852295,-2.453125,-0.25,-2.390625
775,1695772824058,-0.2607422,-0.9229126,0.2999878,0.15625,2.015625,1.015625
776,1695772824088,-0.2133789,-0.9558716,0.28656006,-1.9375,1.5,-3.375
777,1695772824132,-0.24389648,-0.972229,0.31414795,0.03125,1.5,1.53125
778,1695772824209,-0.21142578,-0.93585205,0.2868042,0.03125,0.0,-0.546875
779,1695772824214,-0.23388672,-0.9734497,0.28631592,-1.4375,1.375,0.265625
780,1695772824255,-0.23144531,-0.8821411,0.2633667,-3.3125,1.578125,-2.53125
781,1695772824280,-0.23925781,-1.0042114,0.35662842,0.609375,1.078125,-1.796875
782,1695772824326,-0.22851562,-0.9639282,0.27752686,-0.375,0.21875,0.90625
783,1695772824403,-0.21582031,-0.9331665,0.26898193,-3.734375,0.46875,-0.78125
784,1695772824408,-0.22949219,-0.9668579,0.31854248,1.3125,1.578125,1.234375
785,1695772824447,-0.25512695,-0.94659424,0.31121826,1.65625,2.21875,4.5625
786,1695772824477,-0.23266602,-0.93756104,0.28094482,-3.4375,0.734375,0.015625
787,1695772824522,-0.20507812,-0.9636841,0.2994995,-0.28125,0.75,-1.84375
788,1695772824566,-0.20751953,-0.96881104,0.31292725,2.9375,2.03125,3.03125
789,1695772824598,-0.22924805,-0.92388916,0.27825928,0.390625,0.796875,2.40625
790,1695772824641,-0.24243164,-0.94317627,0.29364014,-1.4375,0.75,-2.484375
791,1695772824695,-0.22436523,-0.96051025,0.29315186,2.375,2.375,-0.71875
792,1695772824718,-0.21728516,-0.9541626,0.2999878,0.484375,2.734375,-0.15625
793,1695772824762,-0.21899414,-0.94366455,0.2789917,0.328125,1.265625,-2.6875
794,1695772824795,-0.22070312,-0.9729614,0.30828857,1.84375,1.234375,-1.59375
795,1695772824838,-0.21142578,-0.95928955,0.27508545,-2.0625,0.15625,-1.46875
796,1695772824881,-0.21606445,-0.96881104,0.2748413,-0.296875,-1.765625,-2.0
797,1695772824916,-0.23583984,-0.975647,0.29071045,-1.328125,1.84375,3.390625
798,1695772824956,-0.20385742,-0.94854736,0.27947998,-2.75,0.125,-0.3125
799,1695772825002,-0.23852539,-0.9661255,0.29974365,0.234375,2.578125,3.40625
800,1695772825033,-0.21557617,-0.9307251,0.26727295,-4.34375,-0.015625,-0.03125
801,1695772825085,-0.22387695,-0.9534302,0.30047607,0.671875,0.96875,0.21875
802,1695772825105,-0.21777344,-0.97784424,0.30438232,1.4375,2.3125,3.390625
803,1695772825151,-0.22363281,-0.94537354,0.2819214,-2.734375,0.46875,1.71875
804,1695772825198,-0.2043457,-0.9714966,0.2789917,-2.515625,-0.734375,0.0625
805,1695772825227,-0.20214844,-0.9624634,0.30950928,-1.5625,-0.171875,2.4375
806,1695772825273,-0.17016602,-0.9636841,0.26556396,-4.203125,-0.03125,-0.40625
807,1695772825300,-0.19555664,-0.9517212,0.30047607,-1.78125,-2.609375,0.03125
808,1695772825347,-0.20825195,-0.9487915,0.30316162,-0.890625,-0.296875,0.375
809,1695772825395,-0.20605469,-0.9216919,0.28607178,-2.78125,-2.09375,-3.15625
810,1695772825421,-0.20996094,-0.98223877,0.29193115,0.96875,1.484375,-2.84375
811,1695772825465,-0.19897461,-0.942688,0.29510498,-0.5625,-0.578125,-3.109375
812,1695772825512,-0.21533203,-0.96417236,0.31170654,-2.6875,-1.78125,-4.96875
813,1695772825545,-0.203125,-0.9627075,0.2814331,-4.21875,-1.8125,-3.921875
814,1695772825584,-0.22949219,-0.93756104,0.32440186,-3.078125,0.0625,-1.8125
815,1695772825614,-0.23950195,-0.94488525,0.30950928,2.75,2.3125,-1.296875
816,1695772825661,-0.24584961,-0.9607544,0.3139038,2.515625,1.59375,-0.765625
817,1695772825709,-0.20043945,-0.9324341,0.29779053,-1.9375,3.171875,-3.234375
818,1695772825736,-0.19628906,-0.9475708,0.30389404,-0.703125,0.65625,-2.265625
819,1695772825780,-0.20117188,-0.96417236,0.3102417,-2.296875,0.453125,-2.59375
820,1695772825828,-0.22729492,-0.93096924,0.28363037,1.59375,3.359375,-1.15625
821,1695772825855,-0.21704102,-1.0234985,0.37249756,5.828125,2.09375,-1.34375
822,1695772825903,-0.2998047,-0.87384033,0.30340576,-3.5,0.296875,0.421875
823,1695772825930,-0.24023438,-0.96099854,0.29315186,9.015625,-0.265625,-4.078125
824,1695772825977,-0.17236328,-0.88409424,0.27508545,12.203125,3.328125,-0.953125
825,1695772826023,-0.2619629,-0.96295166,0.2880249,15.109375,-1.734375,2.75
826,1695772826055,-0.28833008,-0.9800415,0.23626709,4.234375,-1.828125,-0.953125
827,1695772826099,-0.23632812,-0.96881104,0.2074585,-0.046875,-1.59375,-1.578125
828,1695772826143,-0.23632812,-0.95147705,0.2670288,2.0,0.484375,-0.234375
829,1695772826174,-0.23730469,-0.9898071,0.22235107,0.734375,1.8125,3.0625
830,1695772826218,-0.21948242,-0.97491455,0.26068115,-0.984375,0.78125,-0.21875
831,1695772826249,-0.25927734,-0.98760986,0.24969482,-1.53125,1.6875,1.28125
832,1695772826292,-0.2541504,-0.911438,0.23699951,-0.90625,0.484375,1.0
833,1695772826336,-0.22509766,-0.94659424,0.24334717,-1.4375,-0.25,-1.5625
834,1695772826364,-0.23071289,-0.989563,0.27313232,-2.46875,-2.015625,0.65625
835,1695772826412,-0.23242188,-0.99224854,0.25360107,-2.375,-0.765625,1.03125
836,1695772826457,-0.25390625,-0.94122314,0.24627686,-3.09375,-0.421875,0.8125
837,1695772826485,-0.24121094,-0.96466064,0.26556396,-2.953125,-0.328125,-0.9375
838,1695772826533,-0.21704102,-0.96466064,0.25653076,-2.578125,-0.9375,1.875
839,1695772826562,-0.21948242,-0.96588135,0.26312256,-4.875,-0.625,0.984375
840,1695772826610,-0.2409668,-0.975647,0.26312256,-2.53125,0.046875,3.390625
841,1695772826659,-0.22485352,-0.9639282,0.27264404,-5.390625,0.421875,2.5
842,1695772826684,-0.21972656,-0.9368286,0.25531006,-5.359375,-0.21875,1.234375
843,1695772826729,-0.22851562,-0.95684814,0.29803467,-3.40625,1.515625,2.09375
844,1695772826774,-0.2121582,-0.99591064,0.27508545,-5.578125,0.765625,2.0
845,1695772826800,-0.2163086,-0.90582275,0.28753662,-4.625,2.328125,1.828125
846,1695772826851,-0.2084961,-0.9624634,0.30462646,-4.40625,1.5625,-1.265625
847,1695772826878,-0.22094727,-0.9209595,0.30706787,-0.171875,1.9375,1.921875
848,1695772826921,-0.19189453,-0.94854736,0.29730225,-4.125,2.421875,-1.625
849,1695772826968,-0.21459961,-0.95806885,0.29656982,-2.28125,-0.5625,-0.625
850,1695772826998,-0.19580078,-0.9414673,0.3012085,-4.03125,1.8125,-2.453125
851,1695772827041,-0.21777344,-0.9529419,0.3114624,2.671875,1.59375,0.3125
852,1695772827088,-0.22436523,-0.93951416,0.31488037,-1.625,0.78125,-0.421875
853,1695772827121,-0.21362305,-0.93707275,0.28875732,-1.65625,0.6875,-3.25
854,1695772827166,-0.19604492,-0.95025635,0.29730225,1.03125,1.203125,-3.15625
855,1695772827192,-0.20605469,-0.98150635,0.30560303,0.4375,0.984375,0.6875
856,1695772827237,-0.23046875,-0.93536377,0.30316162,-1.03125,1.359375,0.1875
857,1695772827286,-0.27416992,-0.9998169,0.309021,2.46875,9.96875,3.5
858,1695772827313,-0.20043945,-0.8731079,0.277771,0.640625,12.875,6.375
859,1695772827360,-0.13916016,-1.0025024,0.31072998,6.296875,7.875,6.796875
860,1695772827403,-0.14916992,-0.9841919,0.30682373,3.203125,4.4375,9.734375
861,1695772827431,-0.14453125,-0.92388916,0.28997803,-4.015625,-4.640625,-1.921875
862,1695772827477,-0.1550293,-0.9939575,0.26727295,-3.96875,-5.75,-10.203125
863,1695772827505,-0.16796875,-1.0752563,0.39300537,7.765625,-2.25,0.65625
864,1695772827553,-0.28515625,-0.8538208,0.215271,-8.4375,-4.359375,3.71875
865,1695772827598,-0.23706055,-0.9697876,0.31707764,9.265625,4.328125,-0.75
866,1695772827630,-0.14257812,-0.93829346,0.24407959,8.71875,4.75,8.0
867,1695772827672,-0.14282227,-0.91729736,0.22259521,5.109375,-2.34375,-0.28125
868,1695772827717,-0.13208008,-0.9846802,0.27874756,-3.5625,-1.84375,-4.828125
869,1695772827749,-0.18408203,-1.006897,0.28167725,1.125,-3.265625,4.3125
870,1695772827794,-0.19335938,-0.9534302,0.29364014,-1.078125,-2.859375,0.921875
871,1695772827825,-0.18432617,-0.9590454,0.26605225,-1.171875,-0.21875,-1.984375
872,1695772827872,-0.17504883,-0.98565674,0.26116943,-2.421875,-0.859375,-3.046875
873,1695772827913,-0.16015625,-0.96710205,0.26239014,-1.953125,-1.78125,-1.828125
874,1695772827942,-0.16259766,-0.96051025,0.2772827,-0.421875,-2.859375,-1.0
875,1695772827987,-0.17285156,-0.98516846,0.26385498,-0.671875,-1.546875,-0.4375
876,1695772828035,-0.18115234,-0.954895,0.27459717,-3.359375,-2.53125,-2.71875
877,1695772828062,-0.21386719,-0.9829712,0.2868042,-0.90625,-2.453125,-0.96875
878,1695772828108,-0.19165039,-0.96343994,0.2741089,-1.78125,-1.59375,-0.59375
879,1695772828138,-0.18676758,-0.97125244,0.26287842,-3.75,-1.71875,-1.078125
880,1695772828182,-0.18383789,-0.95318604,0.27874756,-1.375,-1.953125,-2.203125
881,1695772828227,-0.20532227,-0.97735596,0.28289795,-1.875,-0.953125,-0.890625
882,1695772828256,-0.19677734,-0.9495239,0.2711792,-4.296875,-0.71875,-1.046875
883,1695772828301,-0.2097168,-0.9649048,0.2970581,-2.671875,-0.203125,-0.3125
884,1695772828348,-0.2055664,-0.96588135,0.28607178,-2.5625,0.5625,1.453125
885,1695772828379,-0.1928711,-0.94244385,0.27703857,-3.296875,1.0,-1.21875
886,1695772828422,-0.19946289,-0.9714966,0.28704834,-0.5625,2.484375,-0.59375
887,1695772828450,-0.20385742,-0.9336548,0.28753662,-1.78125,2.046875,-0.96875
888,1695772828498,-0.19042969,-0.96759033,0.28778076,-1.875,1.71875,-3.078125
889,1695772828542,-0.18432617,-0.95318604,0.29559326,-1.71875,1.234375,-2.25
890,1695772828571,-0.19580078,-0.97735596,0.29388428,-1.8125,1.0625,-0.828125
891,1695772828617,-0.19946289,-0.95513916,0.28240967,-4.078125,-1.46875,-1.8125
892,1695772828664,-0.22509766,-0.95758057,0.30340576,-0.84375,0.671875,-0.3125
893,1695772828692,-0.1899414,-0.95880127,0.28094482,-1.40625,1.96875,-0.5
894,1695772828737,-0.2006836,-0.9302368,0.2975464,-4.578125,-0.84375,-2.734375
895,1695772828769,-0.21044922,-0.9644165,0.31976318,-1.171875,1.109375,-2.875
896,1695772828813,-0.2043457,-0.9570923,0.3065796,-1.578125,-0.375,-3.015625
897,1695772828857,-0.19189453,-0.9661255,0.29730225,-2.609375,-1.171875,-3.3125
898,1695772828890,-0.22949219,-0.94244385,0.31292725,-2.390625,-2.421875,-1.234375
899,1695772828932,-0.2241211,-0.9451294,0.32806396,-1.53125,-0.140625,-1.5
900,1695772828978,-0.22949219,-0.95391846,0.29144287,-4.328125,-1.0625,-2.78125
901,1695772829007,-0.22338867,-0.97906494,0.36883545,0.25,1.421875,-1.421875
902,1695772829050,-0.25048828,-0.9343872,0.2975464,-2.46875,-1.828125,0.828125
903,1695772829079,-0.22827148,-0.9404907,0.32489014,0.515625,-1.015625,0.125
