,timestamp,accel_x,accel_y,accel_z,gyro_x,gyro_y,gyro_z
0,1695772480316,-0.19628906,-0.960022,0.25213623,-1.296875,1.03125,-0.9375
1,1695772480362,-0.171875,-0.9729614,0.2399292,-0.890625,1.53125,-0.984375
2,1695772480390,-0.19360352,-0.96759033,0.24676514,1.171875,1.09375,0.15625
3,1695772480435,-0.17089844,-0.9800415,0.25531006,1.5,2.90625,-1.234375
4,1695772480481,-0.19213867,-0.9783325,0.23895264,-2.0,-1.703125,-0.96875
5,1695772480511,-0.20166016,-0.94122314,0.23358154,-4.203125,-2.1875,-2.78125
6,1695772480556,-0.17944336,-0.95977783,0.2345581,0.640625,-0.6875,-4.203125
7,1695772480586,-0.1706543,-1.0171509,0.2453003,0.53125,-1.984375,-1.6875
8,1695772480631,-0.2019043,-0.93951416,0.23065186,-4.296875,-3.9375,-3.15625
9,1695772480676,-0.21826172,-0.9483032,0.24310303,1.0625,-1.75,-3.453125
10,1695772480706,-0.20361328,-0.97076416,0.25653076,1.40625,-1.71875,-1.1875
11,1695772480752,-0.23217773,-0.9776001,0.2489624,-2.71875,-4.125,-0.640625
12,1695772480796,-0.24707031,-0.9636841,0.2694702,1.90625,-1.34375,4.875
13,1695772480827,-0.20141602,-0.9639282,0.23651123,-3.21875,-1.078125,1.4375
14,1695772480871,-0.19848633,-1.0025024,0.26068115,-1.75,-4.796875,1.578125
15,1695772480901,-0.17993164,-0.9668579,0.21624756,-4.828125,-2.359375,1.4375
16,1695772480946,-0.17553711,-0.9944458,0.22210693,-9.234375,-7.78125,-0.515625
17,1695772480993,-0.20532227,-0.98272705,0.2675171,-5.25,-5.953125,2.890625
18,1695772481023,-0.20703125,-0.95025635,0.2538452,-5.03125,-4.765625,1.5
19,1695772481067,-0.24194336,-0.94073486,0.26849365,-3.953125,-0.96875,1.296875
20,1695772481115,-0.21704102,-0.958313,0.2597046,0.578125,1.84375,4.109375
21,1695772481149,-0.18920898,-0.9434204,0.26507568,-5.09375,2.375,4.6875
22,1695772481190,-0.16381836,-0.9578247,0.28485107,0.296875,1.984375,6.015625
23,1695772481219,-0.15844727,-0.9685669,0.27166748,-1.515625,-1.859375,4.828125
24,1695772481266,-0.17016602,-0.95758057,0.30755615,1.09375,0.53125,6.0625
25,1695772481310,-0.16918945,-0.9727173,0.24627686,-0.71875,-0.796875,3.265625
26,1695772481339,-0.19335938,-0.9627075,0.26239014,-2.734375,-0.375,3.90625
27,1695772481383,-0.15673828,-0.9776001,0.26971436,-0.671875,1.515625,2.3125
28,1695772481428,-0.13305664,-0.97442627,0.291687,-0.265625,3.109375,1.515625
29,1695772481460,-0.095703125,-0.98883057,0.26556396,-0.671875,1.890625,0.046875
30,1695772481519,-0.076416016,-0.9800415,0.26434326,-3.40625,-2.765625,-0.53125
31,1695772481550,-0.19970703,-0.9846802,0.29656982,-3.078125,-2.359375,7.09375
32,1695772481577,-0.16796875,-0.9209595,0.2909546,3.59375,6.34375,9.03125
33,1695772481625,-0.11254883,-0.9612427,0.27581787,0.375,4.296875,4.203125
34,1695772481654,-0.08618164,-0.9944458,0.26605225,-0.109375,3.546875,2.921875
35,1695772481702,-0.07543945,-0.9561157,0.27874756,-1.015625,3.921875,-0.703125
36,1695772481748,-0.11035156,-0.9636841,0.26531982,2.96875,6.65625,0.71875
37,1695772481774,-0.115478516,-0.9439087,0.2633667,6.328125,5.65625,-1.34375
38,1695772481819,-0.12817383,-1.0383911,0.2850952,4.765625,8.078125,0.296875
39,1695772481851,-0.13549805,-0.93756104,0.23406982,0.96875,6.453125,2.796875
40,1695772481898,-0.09692383,-0.97320557,0.24945068,0.296875,10.25,-2.25
41,1695772481936,-0.0546875,-0.9673462,0.25823975,0.609375,10.796875,-2.59375
42,1695772481967,-0.050048828,-0.9627075,0.25482178,-3.421875,7.21875,-6.5625
43,1695772482013,-0.103271484,-1.0222778,0.25653076,0.296875,6.453125,-6.796875
44,1695772482060,-0.13867188,-1.0144653,0.28485107,-5.359375,8.203125,-5.734375
45,1695772482088,-0.19458008,-0.9976196,0.29193115,0.53125,8.15625,-0.9375
46,1695772482132,-0.18408203,-0.91070557,0.27020264,1.34375,7.046875,-4.984375
47,1695772482164,-0.08618164,-1.0479126,0.2518921,1.96875,9.203125,-0.828125
48,1695772482209,-0.044189453,-0.95318604,0.23480225,3.890625,4.53125,8.578125
49,1695772482256,-0.09667969,-0.9678345,0.22796631,2.703125,9.53125,2.03125
50,1695772482285,-0.119628906,-0.9417114,0.2489624,8.359375,10.671875,2.984375
51,1695772482330,-0.043945312,-0.97247314,0.23382568,-0.296875,8.515625,-4.6875
52,1695772482372,-0.07861328,-1.0012817,0.25823975,-1.5,3.015625,-7.015625
53,1695772482405,-0.071777344,-0.97735596,0.2086792,-2.4375,5.5,-5.0
54,1695772482447,-0.07446289,-1.0044556,0.25482178,-0.9375,6.0,-1.5
55,1695772482478,-0.11816406,-0.97320557,0.24090576,-1.90625,1.015625,-0.453125
56,1695772482522,-0.095703125,-0.9614868,0.23309326,-4.0625,1.53125,-6.171875
57,1695772482566,-0.118652344,-0.9771118,0.28070068,-2.078125,2.71875,-3.96875
58,1695772482596,-0.09667969,-0.98150635,0.22357178,-3.40625,0.71875,-4.546875
59,1695772482643,-0.14208984,-0.97247314,0.26507568,-3.40625,2.5,-4.171875
60,1695772482677,-0.1381836,-0.9871216,0.28216553,0.875,3.640625,-1.75
61,1695772482722,-0.14404297,-0.95562744,0.2711792,-2.875,1.046875,-2.71875
62,1695772482761,-0.11425781,-0.9534302,0.24432373,-4.8125,-0.515625,-5.515625
63,1695772482791,-0.13598633,-1.005188,0.29852295,0.4375,1.140625,-4.671875
64,1695772482837,-0.13452148,-0.956604,0.2675171,-1.796875,-1.640625,-4.90625
65,1695772482882,-0.16064453,-0.975647,0.2489624,-3.09375,-2.421875,-7.984375
66,1695772482912,-0.1821289,-0.9505005,0.28704834,0.390625,-3.015625,-4.34375
67,1695772482957,-0.18603516,-0.99884033,0.28631592,-0.546875,-2.515625,-3.6875
68,1695772482987,-0.18945312,-0.9468384,0.24822998,-2.75,-0.09375,-2.734375
69,1695772483037,-0.16015625,-0.9678345,0.2567749,-5.390625,-4.109375,-5.484375
70,1695772483077,-0.17822266,-0.9636841,0.2909546,-4.15625,-4.6875,-4.0625
71,1695772483107,-0.16235352,-0.98760986,0.2531128,-4.4375,-7.9375,-2.3125
72,1695772483152,-0.20678711,-0.9209595,0.2892456,-4.578125,-7.0625,-2.078125
73,1695772483200,-0.25732422,-0.94732666,0.2765503,0.96875,-5.5,0.46875
74,1695772483227,-0.28637695,-0.9314575,0.30950928,2.28125,1.109375,1.53125
75,1695772483271,-0.18383789,-1.0735474,0.29144287,13.46875,7.46875,1.90625
76,1695772483306,-0.17944336,-0.9116821,0.20892334,-3.484375,-7.140625,0.390625
77,1695772483347,-0.1628418,-0.9578247,0.26385498,7.640625,-4.515625,-2.453125
78,1695772483409,-0.12182617,-0.9458618,0.21160889,9.109375,-6.03125,5.984375
79,1695772483424,-0.23852539,-0.9031372,0.20281982,-3.78125,-8.328125,2.1875
80,1695772483469,-0.20336914,-1.019104,0.22479248,-2.390625,-10.609375,-10.0625
81,1695772483511,-0.2541504,-0.972229,0.21990967,-5.4375,-7.265625,-7.8125
82,1695772483541,-0.17480469,-0.9993286,0.28167725,0.953125,-0.296875,-4.3125
83,1695772483590,-0.19580078,-0.97613525,0.22332764,-1.8125,-4.59375,1.90625
84,1695772483621,-0.23754883,-0.9116821,0.21624756,-0.5625,-7.71875,2.8125
85,1695772483665,-0.21777344,-0.9990845,0.26483154,2.21875,-6.015625,-2.875
86,1695772483708,-0.2565918,-0.9663696,0.21478271,-6.5625,-7.796875,-1.796875
87,1695772483739,-0.2541504,-0.9507446,0.24920654,-1.890625,-4.5625,-0.9375
88,1695772483794,-0.2578125,-0.9404907,0.24798584,-0.484375,1.078125,-1.84375
89,1695772483827,-0.23730469,-1.0120239,0.25628662,0.375,-0.3125,2.59375
90,1695772483856,-0.22631836,-0.9446411,0.22210693,-2.96875,-2.90625,0.828125
91,1695772483900,-0.22460938,-0.98565674,0.2514038,-1.640625,-3.421875,0.21875
92,1695772483931,-0.23730469,-0.96417236,0.2531128,-0.125,-1.328125,2.421875
93,1695772483977,-0.24121094,-0.9536743,0.22625732,-3.546875,0.625,4.65625
94,1695772484036,-0.23291016,-0.9751587,0.2592163,1.265625,1.109375,8.046875
95,1695772484055,-0.19995117,-0.9534302,0.25213623,2.265625,4.484375,5.765625
96,1695772484098,-0.19018555,-0.97857666,0.24163818,-2.28125,0.703125,1.3125
97,1695772484145,-0.20727539,-0.96466064,0.22918701,-1.34375,0.640625,2.703125
98,1695772484177,-0.16845703,-0.97662354,0.24359131,0.0,1.34375,1.40625
99,1695772484218,-0.21777344,-0.973938,0.2321167,-3.03125,2.078125,4.75
100,1695772484250,-0.19946289,-0.94488525,0.22381592,-1.34375,5.09375,0.046875
101,1695772484293,-0.18066406,-0.98150635,0.24066162,-0.796875,4.578125,0.90625
102,1695772484339,-0.17529297,-0.9800415,0.23797607,-2.59375,3.75,-0.78125
103,1695772484370,-0.14501953,-1.0159302,0.260437,3.25,9.046875,0.125
104,1695772484416,-0.21728516,-0.99298096,0.27679443,1.859375,2.5625,10.828125
105,1695772484462,-0.2199707,-0.91363525,0.21746826,0.546875,3.6875,7.1875
106,1695772484488,-0.11645508,-0.95806885,0.22259521,4.15625,6.3125,1.0
107,1695772484531,-0.11450195,-0.9795532,0.24285889,1.953125,4.953125,-0.796875
108,1695772484561,-0.1496582,-0.9241333,0.19793701,-5.734375,-0.71875,-3.921875
109,1695772484606,-0.13598633,-1.0359497,0.24285889,-2.4375,0.453125,-7.390625
110,1695772484650,-0.13427734,-0.9898071,0.24481201,-2.03125,0.390625,-0.765625
111,1695772484681,-0.17675781,-0.97198486,0.24945068,-2.25,-0.546875,3.8125
112,1695772484727,-0.122558594,-0.94781494,0.23529053,-1.625,-1.828125,-0.953125
113,1695772484774,-0.11401367,-0.98223877,0.24749756,-7.609375,-4.640625,-6.171875
114,1695772484804,-0.1394043,-0.9949341,0.25604248,-4.53125,-5.40625,-4.8125
115,1695772484851,-0.18237305,-0.96539307,0.27752686,-4.0,-6.3125,-2.96875
116,1695772484880,-0.2265625,-0.9651489,0.23797607,-8.3125,-8.0625,-0.96875
117,1695772484922,-0.2055664,-0.91656494,0.29925537,-1.359375,-3.90625,-0.703125
118,1695772484968,-0.1875,-0.9578247,0.29608154,-0.53125,-1.296875,-3.546875
119,1695772484999,-0.16772461,-0.9558716,0.28167725,-2.390625,-4.15625,-5.5625
120,1695772485048,-0.16796875,-0.9800415,0.26556396,-1.640625,-4.203125,-7.40625
121,1695772485092,-0.21240234,-0.9651489,0.2682495,-2.859375,-6.765625,-4.9375
122,1695772485123,-0.25927734,-0.94781494,0.29364014,0.421875,-4.90625,-1.40625
123,1695772485160,-0.25756836,-0.94976807,0.29632568,1.078125,-1.0625,1.5
124,1695772485238,-0.21704102,-0.99176025,0.28070068,1.140625,-1.484375,-2.453125
125,1695772485240,-0.20922852,-1.010315,0.2843628,2.0,2.625,-0.71875
126,1695772485282,-0.16894531,-0.9312134,0.215271,2.6875,-4.734375,-3.6875
127,1695772485315,-0.23486328,-0.96099854,0.24359131,4.265625,1.15625,5.5
128,1695772485359,-0.20898438,-0.9170532,0.19769287,-2.0625,-0.46875,2.15625
129,1695772485434,-0.24365234,-0.9956665,0.29510498,1.46875,-1.390625,3.59375
130,1695772485437,-0.22143555,-1.0418091,0.2687378,-0.6875,3.25,6.453125
131,1695772485486,-0.21899414,-0.911438,0.23822021,-2.28125,0.921875,8.09375
132,1695772485511,-0.14990234,-0.9536743,0.18377686,-6.796875,-4.421875,3.265625
133,1695772485557,-0.14916992,-0.99713135,0.27508545,-0.734375,-5.234375,1.640625
134,1695772485597,-0.16064453,-0.97247314,0.31365967,8.015625,2.78125,4.5
135,1695772485629,-0.18701172,-0.9824829,0.24188232,4.359375,1.625,-0.28125
136,1695772485675,-0.25634766,-0.93927,0.17156982,-3.15625,-7.0,-6.0625
137,1695772485725,-0.25317383,-0.98638916,0.26727295,1.03125,2.53125,-2.96875
138,1695772485748,-0.23095703,-0.9854126,0.1906128,-2.03125,5.34375,-1.359375
139,1695772485794,-0.19067383,-0.95318604,0.23504639,-8.890625,2.296875,-5.1875
140,1695772485824,-0.16870117,-0.9763794,0.2543335,-4.859375,8.0,-1.953125
141,1695772485871,-0.18359375,-0.9829712,0.2838745,-2.796875,6.015625,2.046875
142,1695772485914,-0.24243164,-0.9055786,0.30340576,-4.0,9.78125,-2.203125
143,1695772485944,-0.22314453,-0.9783325,0.30194092,-0.203125,12.203125,-5.546875
144,1695772485994,-0.18261719,-0.95147705,0.2765503,-4.8125,10.453125,-4.375
145,1695772486017,-0.15356445,-0.99542236,0.29656982,-0.15625,9.703125,-0.234375
146,1695772486063,-0.15429688,-0.9536743,0.293396,-2.234375,9.265625,0.1875
147,1695772486110,-0.16430664,-0.98101807,0.2374878,-1.890625,6.296875,-0.90625
148,1695772486142,-0.171875,-0.9368286,0.3078003,-3.15625,5.359375,-0.46875
149,1695772486200,-0.21240234,-0.9636841,0.31829834,2.171875,11.671875,3.375
150,1695772486229,-0.18334961,-1.0271606,0.33465576,4.65625,7.65625,3.921875
151,1695772486257,-0.21655273,-0.8765259,0.23406982,-0.90625,7.5,1.75
152,1695772486301,-0.103027344,-0.9480591,0.26776123,8.4375,6.59375,-3.765625
153,1695772486332,-0.14624023,-0.95318604,0.2814331,-3.59375,5.890625,-8.109375
154,1695772486376,-0.1809082,-0.99005127,0.29144287,1.171875,2.953125,-8.140625
155,1695772486422,-0.23583984,-0.95513916,0.27874756,-2.75,3.9375,-4.875
156,1695772486452,-0.20043945,-0.97076416,0.29681396,2.875,4.96875,-1.09375
157,1695772486499,-0.20019531,-0.9507446,0.26800537,-6.453125,-0.0625,-1.75
158,1695772486552,-0.17285156,-0.9685669,0.3336792,-0.9375,1.109375,0.265625
159,1695772486572,-0.15649414,-0.9260864,0.28851318,-3.03125,-2.578125,-3.40625
160,1695772486617,-0.22290039,-0.9446411,0.29925537,-7.859375,-6.203125,-8.703125
161,1695772486646,-0.24584961,-0.95806885,0.3300171,2.140625,-1.75,-3.21875
162,1695772486692,-0.2121582,-0.923645,0.25823975,-7.8125,-8.328125,-7.03125
163,1695772486737,-0.24389648,-0.9151001,0.3673706,1.375,-2.28125,-4.3125
164,1695772486767,-0.18823242,-0.9944458,0.3036499,6.328125,-3.609375,-5.5
165,1695772486814,-0.24731445,-0.9104614,0.23797607,-10.921875,-13.546875,-5.328125
166,1695772486857,-0.31030273,-0.93218994,0.33709717,3.0,-5.25,-1.6875
167,1695772486888,-0.28442383,-0.9505005,0.2892456,6.140625,-3.84375,-2.28125
168,1695772486934,-0.22583008,-0.9258423,0.2501831,-7.390625,-11.34375,-7.703125
169,1695772486965,-0.30273438,-0.98565674,0.30877686,5.546875,-0.953125,0.953125
170,1695772487008,-0.18164062,-1.0339966,0.2765503,8.421875,-4.859375,-2.375
171,1695772487055,-0.40039062,-0.8677368,0.2868042,-2.609375,-3.578125,8.734375
172,1695772487084,-0.23339844,-0.86383057,0.18963623,16.578125,3.9375,-5.515625
173,1695772487130,-0.23925781,-1.0361938,0.33953857,6.03125,-5.234375,-0.09375
174,1695772487176,-0.24487305,-0.9338989,0.15130615,-4.96875,-8.734375,-1.171875
175,1695772487206,-0.28588867,-0.93707275,0.19866943,-3.828125,-11.265625,-8.34375
176,1695772487253,-0.33569336,-1.0515747,0.31341553,1.0,-4.90625,-1.609375
177,1695772487279,-0.29052734,-0.97857666,0.23114014,-0.625,1.609375,9.84375
178,1695772487323,-0.2998047,-0.9216919,0.20965576,-2.890625,-1.265625,9.59375
179,1695772487372,-0.31469727,-0.89019775,0.24285889,-0.6875,-3.0625,0.90625
180,1695772487399,-0.2890625,-0.960022,0.23944092,-4.5,-0.828125,-4.546875
181,1695772487444,-0.25976562,-1.0015259,0.26361084,-4.84375,0.0625,-2.8125
182,1695772487488,-0.2890625,-0.99176025,0.26531982,-2.421875,2.78125,6.0
183,1695772487519,-0.2734375,-0.9248657,0.24578857,-1.953125,1.59375,3.765625
184,1695772487568,-0.3005371,-0.927063,0.2489624,-0.375,3.328125,4.171875
185,1695772487596,-0.25585938,-0.9282837,0.22918701,-0.84375,4.171875,1.96875
186,1695772487642,-0.24023438,-1.0020142,0.26849365,-2.28125,3.890625,2.3125
187,1695772487683,-0.24023438,-0.93536377,0.24139404,-0.890625,5.875,2.28125
188,1695772487715,-0.23266602,-0.95562744,0.25872803,3.53125,3.03125,1.296875
189,1695772487759,-0.22558594,-0.93341064,0.2543335,0.734375,2.109375,1.546875
190,1695772487803,-0.23022461,-0.98516846,0.28216553,1.8125,0.125,1.875
191,1695772487832,-0.25854492,-0.94610596,0.2543335,1.703125,1.34375,4.296875
192,1695772487882,-0.23535156,-0.9397583,0.24554443,-2.03125,1.078125,-2.5
193,1695772487908,-0.2368164,-0.9673462,0.28167725,-0.390625,1.1875,-2.90625
194,1695772487957,-0.2409668,-0.95391846,0.25457764,-1.390625,2.125,-1.796875
195,1695772487998,-0.22485352,-0.94122314,0.24993896,-2.75,3.875,-1.84375
196,1695772488029,-0.22167969,-0.98101807,0.25946045,-2.015625,2.1875,-2.71875
197,1695772488074,-0.24072266,-0.9517212,0.27337646,-1.203125,-0.453125,-1.421875
198,1695772488118,-0.22851562,-0.9512329,0.24725342,-4.390625,-0.265625,-4.390625
199,1695772488148,-0.22338867,-0.97247314,0.25994873,0.234375,-1.984375,-1.53125
200,1695772488192,-0.23828125,-0.9524536,0.27215576,2.5,2.09375,3.296875
201,1695772488223,-0.22363281,-0.9536743,0.24554443,-1.203125,0.078125,1.15625
202,1695772488269,-0.25341797,-0.95977783,0.34100342,3.265625,1.03125,0.59375
203,1695772488315,-0.2614746,-1.019104,0.28289795,5.0625,-0.125,1.546875
204,1695772488344,-0.26342773,-0.90289307,0.20819092,-2.828125,-8.140625,1.09375
205,1695772488389,-0.2529297,-0.9014282,0.23529053,1.96875,-1.546875,-3.3125
206,1695772488464,-0.24047852,-1.0205688,0.25506592,3.109375,1.984375,3.265625
207,1695772488468,-0.24243164,-0.9536743,0.2230835,-2.484375,1.515625,4.84375
208,1695772488508,-0.21728516,-0.9631958,0.23114014,-4.0,-1.1875,-0.203125
209,1695772488539,-0.25024414,-0.98028564,0.2526245,-3.59375,-1.671875,2.234375
210,1695772488582,-0.2368164,-0.94610596,0.2736206,-1.046875,3.078125,1.5625
211,1695772488628,-0.24926758,-0.9507446,0.26141357,1.75,3.171875,4.640625
212,1695772488656,-0.22290039,-0.95758057,0.20404053,-5.3125,0.125,2.375
213,1695772488701,-0.19140625,-0.96221924,0.26312256,-1.765625,2.609375,-1.484375
214,1695772488749,-0.19726562,-0.99102783,0.26287842,1.765625,3.75,2.125
215,1695772488779,-0.21875,-0.94366455,0.24456787,-2.546875,-1.40625,0.140625
216,1695772488825,-0.20117188,-0.96295166,0.25482178,-2.421875,-0.90625,-1.234375
217,1695772488857,-0.2175293,-0.97125244,0.25408936,-1.34375,-1.828125,1.875
218,1695772488901,-0.2475586,-0.93707275,0.27264404,-0.53125,0.796875,1.609375
219,1695772488943,-0.19750977,-0.9492798,0.2592163,-1.234375,2.859375,-3.0
220,1695772488975,-0.19213867,-0.99468994,0.25653076,-2.25,-0.125,-2.890625
221,1695772489019,-0.20507812,-0.9417114,0.26434326,-1.671875,-0.359375,-0.546875
222,1695772489064,-0.22631836,-0.9439087,0.2567749,-1.140625,-0.9375,-1.0625
223,1695772489094,-0.22680664,-0.972229,0.2711792,0.0,-0.25,-0.71875
224,1695772489139,-0.2043457,-0.9680786,0.26434326,-0.828125,-0.34375,-0.8125
225,1695772489170,-0.22167969,-0.9483032,0.25726318,-1.453125,-1.171875,-0.0625
226,1695772489214,-0.23510742,-0.95147705,0.26116943,1.453125,1.25,-0.328125
227,1695772489259,-0.21704102,-0.9585571,0.26531982,-1.015625,-0.265625,-2.40625
228,1695772489292,-0.23168945,-0.9524536,0.24285889,-1.78125,-0.6875,-3.375
229,1695772489334,-0.23242188,-0.9717407,0.2772827,1.390625,-0.5,0.03125
230,1695772489379,-0.22753906,-0.93878174,0.26776123,0.765625,-1.125,0.546875
231,1695772489424,-0.25927734,-0.9907837,0.25726318,-4.703125,-1.125,-1.234375
232,1695772489454,-0.23583984,-0.99664307,0.3241577,2.046875,2.34375,0.625
233,1695772489493,-0.22753906,-0.94415283,0.20477295,-3.71875,-4.40625,1.546875
234,1695772489529,-0.19946289,-0.96539307,0.26385498,2.4375,-2.390625,2.1875
235,1695772489575,-0.21313477,-0.9085083,0.23382568,2.46875,0.15625,4.015625
236,1695772489605,-0.22387695,-0.9414673,0.24822998,1.765625,-1.484375,-1.0625
237,1695772489647,-0.22924805,-0.9627075,0.24432373,-4.484375,-3.171875,-6.359375
238,1695772489679,-0.20458984,-0.99591064,0.26678467,-0.328125,-2.21875,-5.03125
239,1695772489723,-0.24023438,-0.9807739,0.2826538,-0.328125,-0.578125,0.0
240,1695772489769,-0.25268555,-0.93341064,0.246521,-0.765625,-0.78125,0.421875
241,1695772489807,-0.23803711,-0.93048096,0.25823975,-0.0625,-1.6875,-2.109375
242,1695772489845,-0.22680664,-0.98760986,0.2616577,-0.96875,-1.9375,-0.296875
243,1695772489888,-0.23486328,-0.95269775,0.246521,-0.671875,-0.625,0.59375
244,1695772489919,-0.24316406,-0.9776001,0.25775146,-0.8125,-0.34375,0.0625
245,1695772489967,-0.24389648,-0.95684814,0.24017334,-0.515625,0.328125,1.84375
246,1695772489996,-0.22290039,-0.9348755,0.24627686,-1.640625,-0.546875,-1.46875
247,1695772490046,-0.2355957,-0.9697876,0.25872803,-0.921875,-0.546875,-1.796875
248,1695772490084,-0.2619629,-0.96661377,0.26434326,-0.5,0.265625,0.40625
249,1695772490113,-0.24902344,-0.9439087,0.23895264,-1.90625,0.390625,-1.203125
250,1695772490159,-0.2487793,-0.9692993,0.25506592,-0.640625,0.765625,-0.875
251,1695772490204,-0.26123047,-0.9492798,0.27166748,-0.890625,2.9375,0.640625
252,1695772490235,-0.21142578,-0.96051025,0.23895264,-3.9375,2.59375,-3.578125
253,1695772490279,-0.21899414,-0.9714966,0.26361084,-4.0625,2.921875,1.421875
254,1695772490313,-0.20947266,-0.9763794,0.29119873,-1.28125,1.546875,2.109375
255,1695772490353,-0.21435547,-0.96710205,0.29632568,-0.1875,3.09375,3.796875
256,1695772490397,-0.24047852,-0.9439087,0.27215576,-1.8125,0.09375,2.9375
257,1695772490429,-0.21240234,-0.9517212,0.26849365,-1.828125,0.015625,1.203125
258,1695772490473,-0.21386719,-0.9522095,0.27191162,-0.4375,-0.140625,1.9375
259,1695772490519,-0.21020508,-0.9673462,0.28338623,-0.703125,1.59375,1.09375
260,1695772490548,-0.22167969,-0.9495239,0.28167725,-0.28125,0.921875,1.9375
261,1695772490594,-0.22216797,-0.93756104,0.2609253,-0.015625,-0.390625,-1.90625
262,1695772490624,-0.2211914,-0.9837036,0.2526245,-3.640625,-2.890625,-3.4375
263,1695772490667,-0.2290039,-0.97247314,0.2921753,0.890625,1.375,-1.234375
264,1695772490713,-0.23046875,-0.95513916,0.2687378,-1.5625,-0.3125,-0.46875
265,1695772490741,-0.2607422,-0.9639282,0.26922607,-1.515625,0.984375,0.84375
266,1695772490787,-0.23413086,-0.97125244,0.2531128,-0.828125,1.515625,3.578125
267,1695772490833,-0.22436523,-0.93218994,0.28118896,-3.5625,1.359375,-0.71875
268,1695772490864,-0.21459961,-0.96295166,0.26483154,-1.375,3.15625,-1.015625
269,1695772490907,-0.17773438,-0.9602661,0.26605225,-0.984375,2.515625,-1.0
270,1695772490944,-0.20776367,-0.9619751,0.2855835,-0.921875,1.828125,-1.5625
271,1695772490986,-0.2553711,-0.9602661,0.29412842,1.625,2.625,-0.6875
272,1695772491044,-0.24389648,-0.9295044,0.260437,-0.765625,2.390625,-2.375
273,1695772491060,-0.20874023,-0.97857666,0.28656006,-0.578125,5.5625,-4.796875
274,1695772491103,-0.19238281,-1.0186157,0.28900146,5.3125,5.953125,1.046875
275,1695772491150,-0.26635742,-0.9168091,0.2387085,2.484375,0.9375,4.765625
276,1695772491184,-0.23779297,-0.9573364,0.31414795,4.765625,-0.09375,3.96875
277,1695772491222,-0.203125,-0.909729,0.25042725,-3.078125,5.09375,-1.1875
278,1695772491254,-0.2109375,-0.9624634,0.2477417,-2.234375,-2.125,-0.8125
279,1695772491300,-0.19799805,-0.96343994,0.28070068,-1.78125,-0.890625,-5.25
280,1695772491346,-0.203125,-1.0032349,0.27947998,-3.125,-0.640625,-2.8125
281,1695772491372,-0.2175293,-0.93878174,0.27435303,-3.3125,-3.546875,-0.046875
282,1695772491418,-0.22216797,-0.9212036,0.25042725,-4.34375,-4.140625,-2.546875
283,1695772491462,-0.23046875,-0.96759033,0.29071045,-1.109375,-3.8125,-3.546875
284,1695772491491,-0.22387695,-0.9817505,0.3085327,-0.078125,-2.0,-2.140625
285,1695772491538,-0.24658203,-0.9612427,0.25653076,-3.078125,-2.828125,-2.53125
286,1695772491567,-0.23706055,-0.91778564,0.26654053,-2.453125,-2.9375,-4.109375
287,1695772491612,-0.24682617,-0.9483032,0.30218506,0.625,-1.828125,-2.34375
288,1695772491658,-0.24169922,-0.97613525,0.26849365,-1.28125,-1.9375,-3.5625
289,1695772491693,-0.24511719,-0.94610596,0.27142334,-2.53125,-3.859375,-3.734375
290,1695772491735,-0.25170898,-0.9524536,0.31829834,1.890625,-4.28125,-1.796875
291,1695772491777,-0.2770996,-0.9619751,0.2694702,-4.765625,-2.390625,-0.78125
292,1695772491807,-0.26586914,-0.9783325,0.34735107,5.5,1.21875,0.71875
293,1695772491855,-0.2783203,-0.9380493,0.23968506,-3.546875,-0.09375,4.578125
294,1695772491883,-0.26171875,-0.9126587,0.2670288,2.03125,-6.03125,-0.03125
295,1695772491930,-0.25610352,-0.93170166,0.27508545,8.265625,5.6875,3.625
296,1695772491972,-0.26489258,-0.9649048,0.25994873,0.46875,1.921875,3.34375
297,1695772492004,-0.27319336,-0.94488525,0.24359131,-1.046875,-0.515625,-0.25
298,1695772492054,-0.24414062,-0.9607544,0.25042725,-0.5,4.734375,-2.3125
299,1695772492123,-0.24047852,-1.0105591,0.30584717,3.671875,5.71875,2.09375
300,1695772492127,-0.2536621,-0.91656494,0.23138428,-0.28125,6.34375,4.15625
301,1695772492168,-0.2524414,-0.94122314,0.25286865,3.140625,4.421875,1.265625
302,1695772492197,-0.22509766,-0.96710205,0.28045654,5.046875,4.125,0.96875
303,1695772492247,-0.21606445,-1.003479,0.22381592,8.203125,1.96875,3.953125
304,1695772492295,-0.22729492,-0.9612427,0.2399292,8.0,6.0625,6.71875
305,1695772492319,-0.22167969,-0.95440674,0.20159912,2.0625,5.40625,2.171875
306,1695772492363,-0.2319336,-0.9614868,0.20428467,0.578125,5.640625,2.453125
307,1695772492410,-0.20019531,-0.96173096,0.21136475,1.8125,7.46875,1.875
308,1695772492441,-0.18579102,-0.9817505,0.22406006,-0.0625,4.984375,-0.234375
309,1695772492487,-0.18457031,-0.96295166,0.21600342,-2.046875,3.5625,-0.59375
310,1695772492511,-0.18847656,-0.95562744,0.21868896,-0.296875,3.0,-1.03125
311,1695772492556,-0.20458984,-0.96881104,0.21942139,-1.09375,0.53125,-3.046875
312,1695772492600,-0.20629883,-0.9710083,0.22210693,-3.328125,0.3125,-4.578125
313,1695772492631,-0.19970703,-0.9663696,0.22821045,-1.96875,1.296875,-2.546875
314,1695772492676,-0.20141602,-0.9668579,0.23162842,-0.046875,0.734375,-1.6875
315,1695772492720,-0.20214844,-0.9541626,0.22137451,-1.140625,0.6875,-3.328125
316,1695772492752,-0.21728516,-0.9841919,0.23284912,-1.21875,-1.8125,-4.078125
317,1695772492796,-0.24047852,-0.96954346,0.24041748,-1.671875,-1.46875,-2.109375
318,1695772492825,-0.22436523,-0.95147705,0.22528076,-0.796875,0.578125,-3.6875
319,1695772492870,-0.23217773,-0.99542236,0.22235107,-3.71875,-1.5,-3.203125
320,1695772492915,-0.22558594,-0.9949341,0.27874756,4.5625,1.421875,-0.78125
321,1695772492945,-0.25268555,-0.97735596,0.22943115,-4.0,-2.84375,3.796875
322,1695772492991,-0.25732422,-0.8599243,0.2008667,-0.625,-3.75,1.046875
323,1695772493035,-0.18017578,-0.991272,0.26556396,2.640625,-4.015625,-0.859375
324,1695772493066,-0.22167969,-0.9680786,0.20941162,1.96875,-3.890625,2.25
325,1695772493110,-0.24682617,-0.9258423,0.20697021,-4.546875,-5.921875,-1.0
326,1695772493140,-0.22729492,-0.9714966,0.22039795,-0.953125,-7.5,-7.625
327,1695772493186,-0.23364258,-1.0176392,0.27020264,1.296875,-3.671875,-3.8125
328,1695772493230,-0.25756836,-0.93756104,0.2243042,-0.734375,-3.5625,1.671875
329,1695772493262,-0.25634766,-0.9260864,0.21942139,2.03125,-5.203125,-0.171875
330,1695772493306,-0.25219727,-0.99053955,0.21258545,-1.109375,-5.515625,-1.109375
331,1695772493336,-0.2590332,-0.986145,0.24163818,1.03125,-2.171875,0.71875
332,1695772493381,-0.26367188,-0.97857666,0.22161865,-1.515625,0.703125,1.34375
333,1695772493426,-0.27539062,-0.95269775,0.20257568,1.25,-0.671875,2.078125
334,1695772493456,-0.24194336,-0.9729614,0.22650146,1.40625,1.734375,0.4375
335,1695772493500,-0.26513672,-0.96539307,0.19696045,0.5625,-0.390625,3.109375
336,1695772493546,-0.26220703,-0.94854736,0.20697021,0.265625,0.796875,1.921875
337,1695772493576,-0.25708008,-0.97125244,0.199646,-1.9375,2.203125,0.40625
338,1695772493620,-0.2578125,-0.97369385,0.20379639,-1.90625,3.40625,-1.421875
339,1695772493651,-0.24365234,-0.95025635,0.20843506,-5.046875,4.09375,-3.28125
340,1695772493696,-0.24926758,-0.9834595,0.2374878,-0.59375,3.171875,-0.421875
341,1695772493742,-0.24829102,-0.9771118,0.22332764,-3.3125,4.03125,0.78125
342,1695772493772,-0.23339844,-0.9343872,0.21600342,-3.90625,3.9375,-1.15625
343,1695772493816,-0.25341797,-0.97540283,0.23651123,-3.34375,4.296875,-1.0
344,1695772493861,-0.2614746,-0.94781494,0.2567749,0.109375,5.90625,1.234375
345,1695772493890,-0.23754883,-0.9578247,0.20770264,-5.6875,4.875,-1.96875
346,1695772493935,-0.20996094,-0.98028564,0.25213623,-1.765625,6.21875,-2.359375
347,1695772493965,-0.22924805,-0.97491455,0.27435303,0.046875,6.109375,2.828125
348,1695772494010,-0.23828125,-0.9265747,0.23065186,-2.59375,4.25,-0.6875
349,1695772494056,-0.22290039,-0.96099854,0.2543335,-1.03125,3.140625,-3.375
350,1695772494085,-0.21704102,-0.9578247,0.25238037,-0.3125,2.296875,-0.4375
351,1695772494130,-0.23486328,-0.9639282,0.24578857,-0.390625,1.828125,0.125
352,1695772494175,-0.25610352,-0.9612427,0.24383545,-3.09375,0.0625,1.21875
353,1695772494205,-0.23266602,-0.95684814,0.25701904,-2.0,0.15625,-0.171875
354,1695772494250,-0.21728516,-0.9602661,0.23480225,-3.609375,-0.71875,-1.03125
355,1695772494280,-0.22094727,-0.97076416,0.23846436,-3.765625,-0.53125,-0.8125
356,1695772494325,-0.2211914,-0.95977783,0.25482178,-2.84375,-1.625,-0.234375
357,1695772494370,-0.24047852,-0.97125244,0.2765503,-3.0625,-2.84375,-0.265625
358,1695772494400,-0.24291992,-0.9338989,0.25994873,-2.6875,-2.640625,1.140625
359,1695772494445,-0.22998047,-0.9458618,0.2609253,-3.296875,-4.546875,-1.90625
360,1695772494490,-0.22583008,-0.97857666,0.2831421,-1.5,-4.828125,3.265625
361,1695772494520,-0.20629883,-0.9229126,0.27044678,-8.359375,-6.8125,-0.109375
362,1695772494565,-0.2512207,-0.96881104,0.2975464,-3.21875,-6.375,4.078125
363,1695772494595,-0.20996094,-0.8989868,0.2855835,-1.484375,-7.6875,0.265625
364,1695772494640,-0.21655273,-0.99835205,0.29925537,-5.609375,-7.28125,-2.875
365,1695772494686,-0.25073242,-0.9546509,0.29144287,-0.234375,-7.515625,0.84375
366,1695772494715,-0.24780273,-0.93218994,0.2814331,-2.09375,-7.0625,-2.515625
367,1695772494760,-0.2529297,-0.9710083,0.2711792,-3.421875,-6.796875,-2.328125
368,1695772494805,-0.27661133,-0.9421997,0.29779053,-2.09375,-5.375,-0.125
369,1695772494836,-0.27734375,-0.9522095,0.28216553,-3.109375,-2.71875,-1.125
370,1695772494880,-0.25317383,-0.95196533,0.28607178,-2.625,-2.640625,-1.59375
371,1695772494925,-0.25952148,-0.972229,0.31829834,1.421875,-0.328125,0.96875
372,1695772494955,-0.25732422,-0.9343872,0.29364014,-2.34375,-0.421875,1.03125
373,1695772495000,-0.27416992,-0.9212036,0.291687,-3.078125,-2.03125,-1.640625
374,1695772495030,-0.27197266,-0.95318604,0.293396,-0.5625,1.1875,-0.1875
375,1695772495075,-0.25390625,-0.9487915,0.2929077,-0.6875,0.46875,1.015625
376,1695772495120,-0.26367188,-0.94781494,0.28875732,-1.59375,2.453125,0.890625
377,1695772495151,-0.22827148,-0.9451294,0.2929077,-0.984375,1.265625,0.078125
378,1695772495195,-0.25341797,-0.9378052,0.30926514,-1.09375,0.1875,-0.015625
379,1695772495225,-0.25195312,-0.96417236,0.29632568,-1.328125,0.453125,-0.234375
380,1695772495270,-0.24584961,-0.9290161,0.3024292,-1.359375,0.109375,-1.03125
381,1695772495315,-0.25024414,-0.95391846,0.29022217,0.515625,0.59375,-0.15625
382,1695772495345,-0.2565918,-0.93536377,0.31610107,2.15625,2.78125,2.3125
383,1695772495392,-0.2397461,-0.9487915,0.28826904,-0.03125,1.328125,0.5
384,1695772495435,-0.24731445,-0.91192627,0.2909546,0.953125,0.671875,-0.921875
385,1695772495465,-0.23779297,-0.9487915,0.28460693,0.4375,1.875,-2.796875
386,1695772495511,-0.24609375,-0.91534424,0.31488037,4.28125,1.140625,-2.03125
387,1695772495540,-0.24707031,-0.96099854,0.28338623,3.703125,2.46875,-4.234375
388,1695772495584,-0.2697754,-0.954895,0.2765503,5.453125,0.203125,-1.9375
389,1695772495630,-0.24658203,-0.9434204,0.2736206,2.71875,3.765625,-3.484375
390,1695772495660,-0.27490234,-0.98394775,0.26263428,5.375,2.953125,0.078125
391,1695772495705,-0.29174805,-0.97052,0.25872803,6.296875,5.203125,2.828125
392,1695772495751,-0.27148438,-0.95318604,0.22723389,0.5,6.3125,-1.0625
393,1695772495780,-0.24169922,-0.97198486,0.24578857,1.671875,6.515625,-0.53125
394,1695772495826,-0.25073242,-0.9595337,0.26361084,4.828125,10.9375,-1.375
395,1695772495855,-0.23217773,-1.11969,0.276062,5.140625,9.3125,2.109375
396,1695772495900,-0.28710938,-0.8814087,0.22210693,5.078125,4.6875,10.296875
397,1695772495945,-0.24975586,-0.8735962,0.21380615,3.328125,0.78125,2.9375
398,1695772495975,-0.18164062,-0.9993286,0.23846436,1.875,3.109375,6.0625
399,1695772496022,-0.18725586,-0.9234009,0.18450928,-1.75,-0.015625,0.078125
400,1695772496066,-0.19702148,-1.0090942,0.25628662,-1.09375,-1.84375,-2.234375
401,1695772496095,-0.23168945,-0.9873657,0.22259521,-0.84375,-1.53125,1.890625
402,1695772496141,-0.21264648,-0.9624634,0.23651123,-1.40625,0.828125,2.609375
403,1695772496170,-0.23095703,-0.94366455,0.22528076,-1.65625,-0.375,3.828125
404,1695772496215,-0.20874023,-0.9492798,0.24188232,-1.984375,-1.5625,-2.0
405,1695772496260,-0.18261719,-1.0029907,0.23846436,-4.984375,-3.328125,-2.328125
406,1695772496290,-0.20922852,-0.9651489,0.22357178,-1.453125,-2.84375,0.375
407,1695772496336,-0.22290039,-0.98223877,0.23919678,-1.75,-2.15625,2.84375
408,1695772496380,-0.2487793,-0.94976807,0.2387085,-4.296875,-1.359375,2.546875
409,1695772496410,-0.22070312,-0.9673462,0.24798584,-6.09375,-2.625,1.015625
410,1695772496455,-0.24560547,-0.9800415,0.27142334,-1.890625,1.4375,5.171875
411,1695772496485,-0.14404297,-0.9841919,0.25457764,-3.4375,0.640625,3.921875
412,1695772496530,-0.15844727,-0.91656494,0.21673584,-10.75,-5.125,-5.21875
413,1695772496576,-0.15161133,-0.9639282,0.28900146,-3.171875,-1.84375,-8.46875
414,1695772496605,-0.19799805,-0.9561157,0.29315186,-1.25,-3.171875,-1.34375
415,1695772496650,-0.20703125,-0.9338989,0.28094482,-0.40625,-1.0625,-2.65625
416,1695772496695,-0.22753906,-0.93170166,0.29071045,6.953125,-0.0625,-6.359375
417,1695772496725,-0.27294922,-0.97076416,0.27093506,0.34375,0.375,-6.015625
418,1695772496770,-0.2253418,-0.94317627,0.2387085,0.59375,-0.625,-2.46875
419,1695772496800,-0.22143555,-0.98101807,0.23968506,-2.125,0.703125,-2.609375
420,1695772496845,-0.2253418,-1.0217896,0.26239014,0.515625,-1.234375,0.6875
421,1695772496890,-0.22680664,-0.9417114,0.23382568,-3.828125,-0.84375,-2.203125
422,1695772496920,-0.22314453,-0.9783325,0.23382568,-2.234375,-2.984375,0.046875
423,1695772496965,-0.2578125,-0.9397583,0.25897217,-4.484375,-1.484375,1.109375
424,1695772496995,-0.27734375,-1.000061,0.32269287,-0.9375,2.0,2.921875
425,1695772497040,-0.24414062,-0.94317627,0.22406006,-3.65625,0.765625,5.140625
426,1695772497085,-0.18359375,-0.940979,0.2658081,-3.546875,-0.84375,-2.703125
427,1695772497115,-0.20800781,-0.97247314,0.31292725,-0.796875,1.5625,-1.875
428,1695772497160,-0.21582031,-0.9314575,0.23284912,-2.90625,-0.890625,-1.78125
429,1695772497205,-0.24780273,-0.9590454,0.28338623,0.390625,-2.046875,-1.25
430,1695772497235,-0.30639648,-0.96173096,0.2987671,-2.078125,0.875,1.65625
431,1695772497280,-0.24926758,-0.9273071,0.25238037,2.78125,6.21875,0.34375
432,1695772497311,-0.22143555,-0.9439087,0.2789917,1.421875,3.015625,-4.203125
433,1695772497355,-0.23754883,-0.986145,0.31585693,4.03125,5.390625,-0.859375
434,1695772497400,-0.21166992,-0.93048096,0.22845459,0.046875,2.359375,-2.796875
435,1695772497430,-0.22680664,-0.9751587,0.2543335,-2.625,-0.421875,-5.25
436,1695772497475,-0.25585938,-0.9612427,0.26922607,-0.484375,-0.375,-2.484375
437,1695772497520,-0.25610352,-0.97125244,0.28460693,-0.078125,1.046875,0.46875
438,1695772497550,-0.25195312,-0.94366455,0.28070068,-3.015625,1.109375,1.28125
439,1695772497596,-0.25341797,-0.91485596,0.262146,-1.359375,1.53125,-0.984375
440,1695772497626,-0.22021484,-0.9812622,0.2826538,1.03125,-0.296875,-3.65625
441,1695772497670,-0.22045898,-0.9492798,0.29119873,-3.6875,-3.671875,-3.921875
442,1695772497715,-0.24438477,-0.9795532,0.25238037,-6.125,-3.296875,-3.828125
443,1695772497745,-0.26635742,-0.9570923,0.34588623,9.46875,2.109375,3.5625
444,1695772497790,-0.2697754,-0.9837036,0.24676514,-0.125,0.578125,4.234375
445,1695772497835,-0.30615234,-0.9116821,0.32244873,-1.296875,-3.046875,6.25
446,1695772497866,-0.23632812,-0.911438,0.230896,0.46875,-0.015625,-2.625
447,1695772497910,-0.28076172,-0.98883057,0.2789917,2.5625,-3.1875,3.375
448,1695772497940,-0.26171875,-0.88726807,0.21624756,8.359375,4.75,3.859375
449,1695772497985,-0.25170898,-0.972229,0.2633667,4.828125,4.015625,3.703125
450,1695772498030,-0.23144531,-0.958313,0.25164795,-0.0625,2.265625,-1.5625
451,1695772498060,-0.19995117,-0.97613525,0.19598389,-6.09375,-2.171875,-6.609375
452,1695772498107,-0.21484375,-1.0056763,0.25091553,-2.890625,-1.40625,-8.71875
453,1695772498153,-0.24560547,-0.96710205,0.23626709,-1.5,1.296875,1.546875
454,1695772498180,-0.22802734,-0.9417114,0.21722412,1.328125,-0.15625,4.125
455,1695772498226,-0.25,-0.9776001,0.25994873,-2.859375,-0.84375,3.265625
456,1695772498256,-0.24707031,-0.954895,0.24163818,-2.4375,-0.5,4.859375
457,1695772498301,-0.20629883,-0.96221924,0.24822998,-5.4375,-4.0,3.5
458,1695772498345,-0.2319336,-0.98223877,0.23822021,-2.0,-1.921875,4.421875
459,1695772498375,-0.21264648,-0.9331665,0.26800537,-2.671875,-2.390625,0.34375
460,1695772498422,-0.25024414,-0.96295166,0.2814331,-2.078125,-1.4375,0.015625
461,1695772498467,-0.2434082,-0.9500122,0.2675171,2.546875,4.109375,-2.734375
462,1695772498498,-0.24780273,-1.0083618,0.3036499,1.953125,1.5,0.84375
463,1695772498542,-0.2680664,-0.9221802,0.2267456,0.203125,-1.015625,-0.234375
464,1695772498573,-0.19238281,-0.8887329,0.24407959,0.484375,3.53125,-0.984375
465,1695772498622,-0.2253418,-0.9429321,0.2633667,-0.9375,5.203125,-2.625
466,1695772498665,-0.23583984,-0.98809814,0.27020264,1.234375,1.265625,-1.015625
467,1695772498692,-0.22363281,-1.0027466,0.2531128,-0.5625,4.765625,-3.828125
468,1695772498740,-0.22143555,-0.9849243,0.24139404,-5.140625,1.828125,0.9375
469,1695772498781,-0.20898438,-0.90631104,0.27313232,-1.15625,1.5625,3.53125
470,1695772498813,-0.23754883,-0.9573364,0.27972412,-0.546875,3.5,6.171875
471,1695772498856,-0.17700195,-0.9421997,0.27923584,1.015625,0.859375,0.890625
472,1695772498887,-0.17749023,-1.0203247,0.26531982,-3.359375,0.421875,-2.734375
473,1695772498931,-0.1875,-0.91729736,0.27801514,-0.75,-2.15625,-1.3125
474,1695772498978,-0.18603516,-0.95758057,0.27752686,0.28125,-3.3125,-3.078125
475,1695772499008,-0.21459961,-0.9368286,0.26898193,-0.65625,-9.734375,-2.296875
476,1695772499052,-0.25830078,-0.9541626,0.32318115,3.1875,-4.25,0.9375
477,1695772499096,-0.21044922,-1.008606,0.2423706,-1.578125,-6.1875,0.84375
478,1695772499127,-0.25830078,-0.913147,0.24066162,-6.3125,-3.734375,-0.65625
479,1695772499172,-0.25683594,-0.9570923,0.31072998,7.640625,5.0,2.953125
480,1695772499203,-0.19335938,-0.954895,0.24334717,-1.046875,-2.1875,-6.40625
481,1695772499249,-0.24389648,-0.9993286,0.26019287,-3.203125,-3.84375,-5.15625
482,1695772499292,-0.27124023,-0.9656372,0.24627686,-0.140625,-1.75,2.515625
483,1695772499324,-0.26367188,-0.9356079,0.246521,-3.1875,2.265625,-0.484375
484,1695772499370,-0.22680664,-0.94854736,0.2814331,6.078125,4.453125,-0.1875
485,1695772499414,-0.18408203,-0.9985962,0.24822998,-2.0,1.171875,-7.328125
486,1695772499448,-0.22729492,-0.9746704,0.24627686,-2.640625,-4.515625,-2.96875
487,1695772499489,-0.2512207,-0.95025635,0.2399292,-1.015625,-3.953125,-1.40625
488,1695772499564,-0.26391602,-0.9834595,0.23675537,-4.59375,-5.640625,-0.109375
489,1695772499568,-0.23388672,-0.9663696,0.24359131,-4.4375,-3.34375,0.40625
490,1695772499610,-0.2475586,-0.9817505,0.260437,-6.28125,-3.328125,2.671875
491,1695772499639,-0.27807617,-0.9902954,0.23602295,-7.21875,-4.125,5.328125
492,1695772499685,-0.23754883,-0.9326782,0.2592163,-5.765625,-2.484375,0.859375
493,1695772499758,-0.23657227,-0.9558716,0.2736206,-6.640625,-1.453125,-3.359375
494,1695772499763,-0.22094727,-0.8713989,0.29388428,1.921875,-2.046875,1.71875
495,1695772499803,-0.27905273,-0.9031372,0.30096436,-2.875,1.203125,-2.9375
496,1695772499833,-0.36108398,-1.0007935,0.33172607,4.875,3.9375,10.21875
497,1695772499878,-0.24780273,-0.90997314,0.27459717,0.328125,5.1875,4.546875
498,1695772499923,-0.17504883,-0.9819946,0.27313232,-7.234375,0.46875,-4.765625
499,1695772499953,-0.19482422,-0.98150635,0.3204956,0.828125,3.015625,0.140625
500,1695772499996,-0.19262695,-0.90948486,0.2682495,2.0625,1.953125,4.234375
501,1695772500042,-0.22973633,-0.93585205,0.2645874,-1.609375,0.390625,0.046875
502,1695772500072,-0.26391602,-0.97979736,0.29193115,1.046875,2.234375,1.4375
503,1695772500117,-0.23266602,-0.9385376,0.29412842,0.78125,4.453125,-1.71875
504,1695772500149,-0.21728516,-0.9602661,0.2831421,-1.265625,3.484375,-4.078125
505,1695772500194,-0.23242188,-0.9607544,0.28485107,-0.078125,2.046875,-0.34375
506,1695772500239,-0.1875,-0.9595337,0.2904663,1.234375,2.1875,0.328125
507,1695772500270,-0.22802734,-0.95562744,0.28216553,-1.734375,-0.265625,-0.578125
508,1695772500312,-0.23950195,-0.92803955,0.2723999,0.828125,0.578125,-2.09375
509,1695772500342,-0.22045898,-0.96343994,0.2819214,-1.5625,2.34375,-3.84375
510,1695772500385,-0.2397461,-0.96173096,0.27459717,1.34375,1.859375,-2.390625
511,1695772500434,-0.21923828,-0.98028564,0.26654053,-1.21875,0.375,-4.734375
512,1695772500464,-0.23901367,-0.9697876,0.27703857,-3.3125,-1.484375,-2.5625
513,1695772500509,-0.25854492,-0.93927,0.26800537,2.71875,1.125,4.578125
514,1695772500557,-0.2685547,-0.91534424,0.2765503,2.765625,7.4375,7.046875
515,1695772500591,-0.19165039,-0.9829712,0.27996826,3.765625,3.734375,0.734375
516,1695772500625,-0.18139648,-0.9871216,0.28460693,-3.625,-0.703125,-6.046875
517,1695772500655,-0.22924805,-0.9492798,0.26971436,-3.296875,-2.0625,-4.890625
518,1695772500700,-0.24511719,-0.95880127,0.2658081,-3.03125,-1.15625,-1.9375
519,1695772500745,-0.26782227,-0.9692993,0.27020264,-2.203125,-0.25,1.484375
520,1695772500775,-0.25170898,-0.956604,0.26019287,-2.59375,3.328125,2.0625
521,1695772500821,-0.26098633,-0.96221924,0.30633545,-3.5,2.328125,2.34375
522,1695772500865,-0.24291992,-0.9546509,0.3217163,1.0625,5.484375,9.375
523,1695772500895,-0.2685547,-0.86676025,0.2838745,3.140625,8.75,14.421875
524,1695772500940,-0.18945312,-0.9378052,0.32489014,5.953125,10.921875,12.5625
525,1695772500970,-0.071777344,-0.9212036,0.28948975,5.34375,4.953125,2.953125
526,1695772501015,-0.013183594,-1.0786743,0.29315186,-1.21875,-5.21875,-8.625
527,1695772501064,-0.15234375,-0.9793091,0.2711792,-4.4375,-8.203125,-6.03125
528,1695772501092,-0.24731445,-0.9229126,0.24700928,-4.875,-8.5,-5.265625
529,1695772501135,-0.2800293,-0.98443604,0.27874756,-4.46875,-6.0625,-1.765625
530,1695772501180,-0.29174805,-0.9180298,0.33099365,1.953125,3.28125,5.5
531,1695772501210,-0.20751953,-0.96417236,0.30438232,1.703125,10.640625,3.921875
532,1695772501255,-0.13989258,-0.92803955,0.28289795,2.15625,5.28125,-4.71875
533,1695772501291,-0.0949707,-0.986145,0.27386475,-1.40625,2.09375,-11.0
534,1695772501330,-0.16357422,-0.98883057,0.25775146,-4.65625,-7.625,-7.875
535,1695772501375,-0.21923828,-0.9573364,0.28778076,-1.546875,-4.0,-4.640625
536,1695772501406,-0.23046875,-0.9973755,0.25042725,-4.421875,-6.375,-1.46875
537,1695772501451,-0.24414062,-0.9553833,0.2819214,-2.546875,-5.171875,-1.59375
538,1695772501496,-0.23486328,-0.9649048,0.2506714,-5.609375,-1.625,-3.5625
539,1695772501527,-0.2277832,-0.9673462,0.29119873,-3.890625,-3.96875,-2.234375
540,1695772501573,-0.22216797,-0.92974854,0.2868042,-6.703125,-3.59375,-4.84375
541,1695772501603,-0.25585938,-0.93634033,0.31341553,-3.625,-4.875,-3.859375
542,1695772501645,-0.2541504,-0.87042236,0.2772827,-1.0625,-3.96875,-6.625
543,1695772501691,-0.30737305,-0.9859009,0.3439331,2.375,0.3125,-0.421875
544,1695772501721,-0.3479004,-0.9373169,0.30999756,6.421875,0.796875,9.515625
545,1695772501767,-0.26904297,-0.9351196,0.28948975,-4.015625,3.078125,1.109375
546,1695772501811,-0.23291016,-0.9536743,0.29925537,0.484375,2.9375,-0.3125
547,1695772501840,-0.21166992,-0.9326782,0.29681396,2.671875,3.671875,0.484375
548,1695772501885,-0.2019043,-0.94000244,0.2748413,-0.671875,0.859375,-0.96875
549,1695772501915,-0.23535156,-0.987854,0.28900146,-0.71875,-2.75,-0.8125
550,1695772501960,-0.27124023,-0.9390259,0.30560303,0.9375,1.015625,-1.71875
551,1695772502006,-0.2709961,-0.93463135,0.30438232,0.03125,2.25,-2.6875
552,1695772502036,-0.23876953,-0.9378052,0.2921753,0.40625,0.65625,-1.859375
553,1695772502081,-0.22363281,-0.98321533,0.28753662,-2.40625,0.015625,-2.015625
554,1695772502126,-0.2578125,-0.9458618,0.2880249,-0.875,-0.25,-0.171875
555,1695772502156,-0.27905273,-0.9470825,0.30560303,1.3125,1.96875,1.671875
556,1695772502200,-0.25683594,-0.9299927,0.27337646,-0.796875,0.390625,-0.609375
557,1695772502230,-0.22998047,-0.9680786,0.30584717,-2.46875,0.21875,-1.640625
558,1695772502276,-0.2397461,-0.9639282,0.28826904,-2.796875,0.234375,0.171875
559,1695772502320,-0.25219727,-0.92926025,0.29974365,-0.390625,-0.46875,1.171875
560,1695772502351,-0.2524414,-0.956604,0.30950928,0.453125,0.328125,-0.78125
561,1695772502395,-0.27172852,-0.9439087,0.27801514,-1.75,-1.578125,0.046875
562,1695772502440,-0.2680664,-0.9365845,0.29534912,-0.359375,0.421875,-0.765625
563,1695772502471,-0.2722168,-0.95880127,0.29925537,1.15625,1.484375,2.578125
564,1695772502515,-0.22631836,-0.94195557,0.2909546,0.296875,1.921875,1.0625
565,1695772502546,-0.22607422,-0.9673462,0.28167725,-0.078125,-0.984375,-1.0625
566,1695772502590,-0.25146484,-0.9326782,0.28631592,-0.03125,0.03125,-1.125
567,1695772502636,-0.25439453,-0.94976807,0.28704834,0.0625,-0.078125,-2.25
568,1695772502666,-0.26367188,-0.95391846,0.2970581,0.390625,0.328125,-0.375
569,1695772502710,-0.26733398,-0.95196533,0.3012085,-0.984375,0.109375,0.734375
570,1695772502785,-0.25634766,-0.9446411,0.29534912,-1.21875,-0.40625,-2.046875
571,1695772502786,-0.23706055,-0.9534302,0.27337646,0.34375,0.78125,0.1875
572,1695772502845,-0.25610352,-0.93536377,0.29730225,1.484375,1.046875,0.796875
573,1695772502860,-0.25341797,-0.9470825,0.2711792,-1.484375,1.0625,-2.203125
574,1695772502905,-0.24389648,-0.9661255,0.30096436,-2.890625,0.328125,-3.578125
575,1695772502950,-0.24902344,-0.9492798,0.29730225,0.109375,1.328125,0.265625
576,1695772502980,-0.25341797,-0.9505005,0.2814331,-0.46875,1.265625,0.0625
577,1695772503026,-0.27075195,-0.9199829,0.29364014,1.671875,-0.640625,-1.5625
578,1695772503071,-0.2487793,-0.960022,0.28411865,-0.078125,1.484375,-2.28125
579,1695772503101,-0.2644043,-0.9546509,0.29315186,1.28125,0.109375,3.0
580,1695772503145,-0.27856445,-0.95196533,0.2850952,-0.46875,0.765625,2.65625
581,1695772503176,-0.27124023,-0.9541626,0.28240967,0.90625,1.15625,3.484375
582,1695772503222,-0.22436523,-0.91729736,0.26800537,-0.078125,2.5625,-1.046875
583,1695772503266,-0.21264648,-0.9793091,0.28533936,-2.34375,0.34375,-4.515625
584,1695772503295,-0.25561523,-0.9500122,0.28900146,0.609375,-0.421875,-0.328125
585,1695772503342,-0.2619629,-0.9397583,0.2897339,-1.78125,0.921875,-3.46875
586,1695772503387,-0.26049805,-0.94073486,0.2855835,-1.109375,0.015625,-3.4375
587,1695772503416,-0.24145508,-0.9553833,0.27142334,-4.140625,1.921875,-6.65625
588,1695772503461,-0.25048828,-0.9976196,0.32855225,-8.46875,0.484375,-3.96875
589,1695772503492,-0.2919922,-0.9290161,0.30291748,-7.46875,-5.953125,-1.25
590,1695772503538,-0.30932617,-0.9673462,0.32269287,-5.046875,0.375,2.375
591,1695772503584,-0.28222656,-0.92510986,0.2584839,3.078125,-0.125,3.625
592,1695772503614,-0.3005371,-0.9209595,0.28070068,11.9375,5.078125,5.0625
593,1695772503659,-0.27368164,-0.9492798,0.31756592,7.3125,5.703125,4.078125
594,1695772503706,-0.21508789,-0.92144775,0.21307373,-1.6875,0.5625,-4.484375
595,1695772503733,-0.24194336,-0.97442627,0.29559326,-0.390625,-1.78125,-1.75
596,1695772503779,-0.27416992,-0.95391846,0.27288818,0.3125,-0.125,1.1875
597,1695772503808,-0.2607422,-0.94976807,0.26727295,-2.390625,0.96875,-1.890625
598,1695772503856,-0.2644043,-0.97320557,0.27923584,-2.109375,-0.6875,-0.046875
599,1695772503899,-0.2397461,-0.9326782,0.28948975,-0.625,-0.15625,0.9375
600,1695772503929,-0.25146484,-0.95635986,0.27069092,-2.984375,-2.609375,-2.109375
601,1695772503975,-0.265625,-0.92755127,0.27386475,-3.75,-2.890625,-2.734375
602,1695772504006,-0.2783203,-0.96466064,0.28607178,-1.53125,-1.125,-1.03125
603,1695772504053,-0.27490234,-0.925354,0.28216553,-0.953125,-0.921875,-1.75
604,1695772504091,-0.27246094,-0.9524536,0.27996826,-1.921875,-0.078125,-2.59375
605,1695772504123,-0.26464844,-0.93829346,0.31097412,1.609375,-1.78125,1.90625
606,1695772504183,-0.25585938,-0.94073486,0.28411865,-1.578125,-0.625,-0.21875
607,1695772504214,-0.2783203,-0.96173096,0.29681396,-1.1875,-3.203125,0.3125
608,1695772504243,-0.2705078,-0.91607666,0.3156128,1.921875,-0.765625,0.8125
609,1695772504289,-0.24243164,-0.9956665,0.28631592,-0.703125,1.953125,0.171875
610,1695772504323,-0.26367188,-0.9529419,0.30194092,2.296875,0.0,3.703125
611,1695772504368,-0.25878906,-0.92926025,0.30560303,0.8125,6.703125,-0.03125
612,1695772504411,-0.22924805,-0.94317627,0.2164917,2.015625,-7.125,0.75
613,1695772504441,-0.27294922,-0.9216919,0.31610107,6.609375,-7.828125,5.390625
614,1695772504483,-0.26660156,-0.9348755,0.21868896,-4.90625,-2.890625,-1.078125
615,1695772504529,-0.26220703,-0.96099854,0.2855835,-4.859375,-4.671875,-0.34375
616,1695772504558,-0.27075195,-0.9480591,0.27972412,-2.296875,-2.640625,-4.265625
617,1695772504619,-0.25170898,-0.9636841,0.2987671,1.515625,-0.640625,-0.484375
618,1695772504634,-0.25854492,-0.9216919,0.2514038,-4.203125,-2.28125,2.125
619,1695772504681,-0.25390625,-0.94854736,0.2670288,1.328125,-2.046875,1.578125
620,1695772504722,-0.27856445,-0.9746704,0.28729248,-0.96875,-2.765625,0.84375
621,1695772504752,-0.26049805,-0.9561157,0.26019287,-5.90625,-3.953125,-2.0
622,1695772504797,-0.26391602,-0.96343994,0.27972412,0.21875,-2.375,0.171875
623,1695772504843,-0.27661133,-0.96539307,0.28704834,-0.203125,-0.25,5.0625
624,1695772504871,-0.27807617,-0.92071533,0.246521,-3.234375,-0.421875,2.609375
625,1695772504917,-0.28637695,-0.94903564,0.293396,-1.5625,0.96875,1.421875
626,1695772504947,-0.26367188,-0.93292236,0.29901123,0.296875,3.0,1.3125
627,1695772504991,-0.26171875,-0.9793091,0.27020264,-3.203125,3.234375,0.03125
628,1695772505040,-0.25830078,-0.9524536,0.2819214,0.796875,6.78125,3.78125
629,1695772505070,-0.24316406,-0.96588135,0.30096436,-2.34375,10.453125,6.28125
630,1695772505112,-0.21533203,-0.92315674,0.28070068,-0.171875,7.640625,7.546875
631,1695772505159,-0.19897461,-0.94195557,0.35076904,3.171875,6.140625,8.671875
632,1695772505187,-0.13110352,-0.913147,0.28460693,-1.578125,0.875,-1.203125
633,1695772505233,-0.19580078,-1.0276489,0.322937,-1.3125,-6.359375,-5.125
634,1695772505265,-0.2590332,-0.9290161,0.31121826,2.125,0.75,0.484375
635,1695772505310,-0.23730469,-0.9343872,0.25408936,-2.328125,3.9375,-1.734375
636,1695772505355,-0.19140625,-0.987854,0.27825928,3.65625,0.953125,2.3125
637,1695772505383,-0.19238281,-0.97784424,0.28582764,-1.84375,-0.90625,-0.296875
638,1695772505430,-0.20214844,-0.9483032,0.2748413,-1.25,0.9375,-3.421875
639,1695772505477,-0.2524414,-0.9546509,0.27679443,-0.40625,1.28125,-1.390625
640,1695772505502,-0.2487793,-0.9295044,0.276062,1.796875,1.96875,-2.8125
641,1695772505548,-0.25,-0.97540283,0.29852295,-0.4375,5.21875,-2.28125
642,1695772505580,-0.22363281,-0.9517212,0.25726318,-2.21875,3.765625,-2.46875
643,1695772505628,-0.2355957,-0.96295166,0.29364014,-3.015625,2.953125,-0.75
644,1695772505667,-0.21557617,-0.9483032,0.2904663,0.71875,5.421875,0.984375
645,1695772505699,-0.21826172,-0.9378052,0.2850952,1.3125,4.09375,2.46875
646,1695772505743,-0.22021484,-0.94610596,0.2880249,-4.75,2.1875,-3.75
647,1695772505788,-0.2175293,-0.9463501,0.3012085,-1.8125,0.109375,-5.0
648,1695772505819,-0.2199707,-0.9656372,0.30169678,0.609375,1.484375,-2.984375
649,1695772505863,-0.21191406,-0.9644165,0.28411865,-0.90625,0.203125,-2.125
650,1695772505892,-0.25195312,-0.9483032,0.29071045,0.6875,-0.625,0.84375
651,1695772505940,-0.24047852,-0.9356079,0.28045654,-1.28125,-0.015625,0.578125
652,1695772505983,-0.21362305,-0.94903564,0.28704834,-2.6875,-0.203125,-2.859375
653,1695772506014,-0.2253418,-0.96832275,0.30023193,-0.671875,-0.84375,-1.75
654,1695772506060,-0.22680664,-0.9492798,0.28656006,-0.203125,-1.0625,0.578125
655,1695772506104,-0.25878906,-0.954895,0.29681396,-1.734375,-1.3125,-0.015625
656,1695772506134,-0.26171875,-0.94122314,0.29071045,1.546875,0.625,0.71875
657,1695772506177,-0.26171875,-0.960022,0.30584717,-0.984375,0.9375,2.15625
658,1695772506215,-0.22338867,-0.9378052,0.29608154,0.34375,2.46875,1.84375
659,1695772506257,-0.20751953,-0.9500122,0.2892456,0.578125,-0.328125,0.171875
660,1695772506298,-0.2133789,-0.93878174,0.2838745,-1.65625,-0.765625,0.6875
661,1695772506328,-0.20727539,-0.97003174,0.27850342,1.09375,-0.4375,0.84375
662,1695772506373,-0.21850586,-0.9505005,0.29656982,-0.484375,-1.828125,0.6875
663,1695772506451,-0.22753906,-0.94903564,0.28656006,-0.46875,-0.90625,-0.1875
664,1695772506461,-0.22851562,-0.9651489,0.29364014,-1.109375,-0.484375,-0.625
665,1695772506493,-0.21044922,-0.9414673,0.2970581,1.421875,0.640625,1.328125
666,1695772506522,-0.22338867,-0.97247314,0.2909546,-1.53125,-1.625,0.5625
667,1695772506569,-0.21850586,-0.95318604,0.2975464,0.0,-1.1875,1.640625
668,1695772506615,-0.2331543,-0.92144775,0.27508545,-3.21875,-0.921875,1.46875
669,1695772506643,-0.19726562,-0.9536743,0.32659912,3.296875,1.75,0.625
670,1695772506688,-0.19433594,-0.97198486,0.2946167,2.609375,-0.296875,-1.765625
671,1695772506733,-0.19165039,-0.9932251,0.28094482,-2.6875,-3.0625,-3.765625
672,1695772506766,-0.20385742,-0.94317627,0.27752686,-1.703125,-4.53125,-3.921875
673,1695772506808,-0.24633789,-0.94073486,0.26849365,0.40625,-3.609375,-1.6875
674,1695772506839,-0.25634766,-0.94488525,0.29144287,2.953125,-0.328125,-1.59375
675,1695772506883,-0.24023438,-0.9522095,0.2831421,0.8125,0.5,-2.046875
676,1695772506926,-0.23120117,-0.954895,0.26776123,-1.21875,-0.796875,-5.25
677,1695772506956,-0.2631836,-0.9841919,0.29022217,1.03125,0.578125,0.359375
678,1695772507002,-0.2578125,-0.93951416,0.24578857,-0.71875,1.125,-1.046875
679,1695772507048,-0.24584961,-0.9573364,0.2584839,-1.84375,1.125,-2.3125
680,1695772507085,-0.25634766,-0.9685669,0.27215576,-0.140625,2.484375,-0.734375
681,1695772507128,-0.24658203,-0.96099854,0.26507568,0.328125,3.1875,0.09375
682,1695772507153,-0.24658203,-0.9483032,0.26409912,-0.78125,2.59375,-0.921875
683,1695772507197,-0.25146484,-0.9817505,0.2723999,0.3125,1.625,1.046875
684,1695772507244,-0.2331543,-0.92755127,0.2609253,0.453125,2.375,-0.171875
685,1695772507293,-0.2548828,-0.98883057,0.2579956,-3.03125,-0.34375,-0.328125
686,1695772507318,-0.25073242,-0.94366455,0.2609253,-1.40625,4.21875,1.09375
687,1695772507363,-0.25048828,-0.98809814,0.2645874,-2.015625,4.421875,0.75
688,1695772507395,-0.23242188,-0.96417236,0.2616577,-5.0625,0.890625,-2.21875
689,1695772507440,-0.24584961,-0.98394775,0.29388428,-6.0,2.28125,-1.453125
690,1695772507469,-0.22705078,-0.96173096,0.27972412,-3.4375,2.078125,4.0
691,1695772507517,-0.22192383,-0.9351196,0.28778076,-6.984375,1.234375,-0.3125
692,1695772507559,-0.22827148,-0.94195557,0.32611084,1.09375,2.765625,2.421875
693,1695772507588,-0.23486328,-0.9077759,0.3053589,-6.578125,0.03125,-5.265625
694,1695772507638,-0.25463867,-0.9714966,0.32269287,0.40625,2.453125,1.640625
695,1695772507667,-0.2133789,-0.8960571,0.307312,-1.1875,-0.71875,-0.1875
696,1695772507714,-0.20483398,-0.96832275,0.30999756,-2.03125,0.03125,-1.640625
697,1695772507753,-0.2607422,-0.97125244,0.32025146,0.328125,-2.609375,2.171875
698,1695772507784,-0.23364258,-0.92437744,0.29925537,-2.390625,-0.078125,-0.90625
699,1695772507829,-0.22216797,-0.9434204,0.30462646,0.0,1.25,-2.15625
700,1695772507873,-0.21264648,-0.93756104,0.3168335,2.828125,-0.640625,-1.8125
701,1695772507904,-0.2163086,-0.96588135,0.31610107,0.15625,-0.15625,0.328125
702,1695772507948,-0.22973633,-0.91851807,0.29364014,-0.40625,-4.15625,-2.125
703,1695772507977,-0.28393555,-0.9824829,0.34881592,0.25,-1.828125,0.4375
704,1695772508021,-0.28466797,-0.9146118,0.32977295,5.15625,1.078125,5.125
705,1695772508071,-0.25805664,-0.9312134,0.29241943,2.609375,3.640625,1.921875
706,1695772508098,-0.21850586,-0.9312134,0.27581787,3.015625,3.96875,-4.34375
707,1695772508147,-0.19873047,-0.9883423,0.2929077,2.453125,2.53125,-7.1875
708,1695772508193,-0.20703125,-0.972229,0.26409912,0.015625,0.28125,-7.40625
709,1695772508219,-0.24829102,-0.95928955,0.27264404,-1.75,-2.265625,-3.484375
710,1695772508262,-0.27294922,-0.94244385,0.26654053,1.25,-0.734375,-0.46875
711,1695772508293,-0.27197266,-0.96417236,0.27215576,-0.84375,-0.953125,-1.359375
712,1695772508338,-0.24487305,-0.9607544,0.25579834,-2.09375,-1.078125,-1.109375
713,1695772508383,-0.23217773,-0.975647,0.27996826,-1.359375,-1.6875,1.609375
714,1695772508416,-0.2763672,-0.956604,0.28045654,-1.1875,-1.375,6.375
715,1695772508461,-0.25341797,-0.94244385,0.26531982,-2.234375,-2.140625,3.53125
716,1695772508502,-0.26513672,-0.9480591,0.27459717,-3.859375,-1.421875,0.359375
717,1695772508533,-0.2578125,-0.9495239,0.27264404,-2.96875,-0.375,0.453125
718,1695772508576,-0.22485352,-0.95269775,0.29388428,-3.515625,0.453125,0.140625
719,1695772508611,-0.23754883,-0.94854736,0.2970581,-0.578125,-0.21875,1.859375
720,1695772508653,-0.27075195,-0.944397,0.29559326,-3.078125,-0.140625,1.0
721,1695772508698,-0.24975586,-0.9331665,0.2982788,-0.578125,0.15625,0.0625
722,1695772508729,-0.234375,-0.9446411,0.29388428,-2.390625,1.265625,-0.890625
723,1695772508776,-0.24267578,-0.96343994,0.30975342,-1.078125,0.90625,1.390625
724,1695772508823,-0.22998047,-0.9397583,0.2982788,-0.390625,1.609375,0.890625
725,1695772508848,-0.22949219,-0.9463501,0.293396,-1.765625,1.0625,1.5
726,1695772508919,-0.24536133,-0.9446411,0.31048584,1.1875,1.40625,1.265625
727,1695772508924,-0.2355957,-0.956604,0.30877686,-0.640625,2.015625,0.390625
728,1695772508968,-0.23095703,-0.9331665,0.30682373,1.09375,2.125,-0.4375
729,1695772509012,-0.21313477,-0.93829346,0.27947998,0.578125,1.078125,-2.40625
730,1695772509042,-0.1940918,-0.96710205,0.3078003,0.625,0.78125,-4.8125
731,1695772509087,-0.23754883,-0.9546509,0.29974365,1.28125,-1.375,1.859375
732,1695772509132,-0.2541504,-0.9505005,0.29559326,-0.890625,-1.328125,2.203125
733,1695772509163,-0.26098633,-0.9463501,0.2831421,-0.34375,-0.203125,3.875
734,1695772509210,-0.24194336,-0.93756104,0.322937,3.59375,3.5625,5.453125
735,1695772509240,-0.22338867,-0.9529419,0.30438232,6.578125,5.796875,5.703125
736,1695772509281,-0.21386719,-0.91900635,0.27459717,1.265625,3.25,-3.796875
737,1695772509328,-0.21679688,-0.99591064,0.29266357,0.046875,1.71875,-9.703125
738,1695772509356,-0.23730469,-0.9585571,0.2538452,-2.359375,1.578125,-10.09375
739,1695772509421,-0.20874023,-0.9841919,0.26483154,-1.0625,2.59375,-6.28125
740,1695772509447,-0.21826172,-0.9783325,0.25823975,-0.1875,0.671875,-0.328125
741,1695772509479,-0.25195312,-0.93585205,0.26190186,-2.046875,1.421875,-1.0625
742,1695772509526,-0.21826172,-0.9402466,0.2658081,-2.703125,-0.484375,-3.8125
743,1695772509554,-0.22290039,-0.975647,0.26409912,-2.6875,-3.28125,-0.109375
744,1695772509599,-0.21801758,-0.97198486,0.2765503,-2.421875,-3.921875,1.0625
745,1695772509648,-0.25341797,-0.9805298,0.27923584,-1.921875,-4.125,5.984375
746,1695772509674,-0.26831055,-0.92071533,0.28411865,1.25,-2.015625,7.09375
747,1695772509716,-0.23046875,-0.9194946,0.2255249,-4.046875,-2.03125,0.9375
748,1695772509765,-0.22021484,-0.93536377,0.3139038,-2.28125,-3.140625,-3.078125
749,1695772509794,-0.24926758,-0.9859009,0.31829834,-2.921875,-3.328125,-1.296875
750,1695772509837,-0.2692871,-0.9558716,0.2987671,-0.21875,-0.484375,-0.875
751,1695772509869,-0.25097656,-0.9768677,0.31878662,-3.015625,-0.03125,-0.453125
752,1695772509916,-0.28198242,-0.91729736,0.29559326,-1.0,-6.703125,0.0625
753,1695772509963,-0.29370117,-0.9480591,0.2982788,3.5625,0.25,6.953125
754,1695772509992,-0.23291016,-0.91900635,0.2670288,2.40625,9.46875,-2.25
755,1695772510034,-0.2446289,-0.9915161,0.27996826,2.125,5.359375,3.0625
756,1695772510110,-0.17211914,-0.9517212,0.27313232,2.953125,3.984375,1.453125
757,1695772510114,-0.22021484,-0.9492798,0.27288818,-3.140625,0.609375,-0.15625
758,1695772510155,-0.19238281,-0.96539307,0.27264404,1.203125,0.09375,0.984375
759,1695772510183,-0.2163086,-0.91900635,0.2741089,2.328125,1.359375,2.0625
760,1695772510233,-0.21826172,-0.93707275,0.22454834,-4.390625,0.75,2.28125
761,1695772510277,-0.20703125,-1.0169067,0.27703857,-5.8125,-5.09375,2.609375
762,1695772510303,-0.14282227,-0.94366455,0.29315186,-8.53125,-5.21875,-1.421875
763,1695772510347,-0.17529297,-0.9846802,0.31536865,-5.46875,-4.8125,2.390625
764,1695772510392,-0.37524414,-0.80548096,0.40570068,5.953125,3.078125,22.59375
765,1695772510423,-0.24633789,-0.8999634,0.32781982,13.484375,14.125,10.234375
766,1695772510467,-0.20751953,-0.9143677,0.2711792,-5.875,-1.921875,-2.359375
767,1695772510498,-0.018798828,-0.99713135,0.3065796,0.8125,7.9375,-22.984375
768,1695772510543,-0.07543945,-1.050354,0.26556396,-1.734375,-4.5,-18.390625
769,1695772510588,-0.1784668,-0.93634033,0.21942139,-0.984375,-6.390625,-12.84375
770,1695772510620,-0.24194336,-1.0064087,0.262146,1.515625,-5.484375,-3.59375
771,1695772510663,-0.34643555,-0.9678345,0.30096436,2.515625,-3.703125,8.859375
772,1695772510709,-0.2680664,-0.9067993,0.2748413,-1.53125,-0.1875,-2.6875
773,1695772510739,-0.20385742,-0.9907837,0.28778076,-7.609375,-4.265625,-8.359375
774,1695772510785,-0.18652344,-0.9639282,0.26409912,-2.078125,-5.53125,-3.765625
775,1695772510814,-0.25830078,-0.9685669,0.30145264,-0.15625,-4.859375,2.453125
776,1695772510862,-0.3251953,-0.9138794,0.27825928,-1.59375,-3.984375,2.265625
777,1695772510903,-0.29248047,-0.92755127,0.293396,-2.234375,-1.359375,-3.359375
778,1695772510933,-0.2529297,-0.9595337,0.2909546,-3.03125,-1.34375,-5.359375
779,1695772510980,-0.25073242,-0.95025635,0.29388428,-0.984375,-1.015625,-2.109375
780,1695772511022,-0.27441406,-0.93829346,0.30389404,-1.609375,0.484375,-0.125
781,1695772511052,-0.3076172,-0.97076416,0.29632568,-2.421875,-1.078125,3.171875
782,1695772511096,-0.30029297,-0.90948486,0.2909546,-1.53125,1.75,1.484375
783,1695772511126,-0.2626953,-0.9421997,0.26385498,-2.40625,2.3125,-2.109375
784,1695772511175,-0.24389648,-0.9536743,0.2892456,-2.0,2.125,-4.125
785,1695772511232,-0.26049805,-0.9505005,0.31781006,-0.578125,2.125,1.171875
786,1695772511248,-0.25878906,-0.9397583,0.2843628,-1.109375,3.078125,0.3125
787,1695772511294,-0.28125,-0.9273071,0.30169678,0.78125,2.71875,1.609375
788,1695772511322,-0.25170898,-0.94195557,0.2987671,0.453125,2.59375,-1.265625
789,1695772511368,-0.25048828,-0.9783325,0.29266357,-2.890625,-0.90625,-3.609375
790,1695772511413,-0.25927734,-0.94976807,0.2892456,-2.1875,1.6875,-0.640625
791,1695772511444,-0.25708008,-0.93414307,0.2868042,-2.375,1.703125,0.671875
792,1695772511492,-0.24267578,-0.9336548,0.2994995,-1.4375,0.359375,-2.59375
793,1695772511532,-0.2626953,-0.95269775,0.31072998,-0.625,0.765625,-3.5
794,1695772511566,-0.27197266,-0.92852783,0.3060913,0.328125,0.515625,-1.484375
795,1695772511610,-0.27954102,-0.90460205,0.31243896,1.296875,1.3125,-1.859375
796,1695772511638,-0.28686523,-0.9429321,0.31365967,2.203125,2.15625,-0.84375
797,1695772511688,-0.2734375,-0.95196533,0.31414795,0.53125,0.0625,0.25
798,1695772511730,-0.26049805,-0.928772,0.2904663,-1.296875,0.5625,-1.8125
799,1695772511762,-0.24023438,-0.9680786,0.2850952,-0.921875,-1.484375,-1.71875
800,1695772511803,-0.2529297,-0.9495239,0.30218506,-2.15625,-4.3125,-1.1875
801,1695772511850,-0.28222656,-0.9517212,0.2987671,-2.875,-2.5,-1.296875
802,1695772511880,-0.29614258,-0.93048096,0.29071045,-3.484375,-6.671875,-0.625
803,1695772511924,-0.33325195,-0.92266846,0.33929443,2.125,1.609375,2.859375
804,1695772511955,-0.3244629,-0.9663696,0.30438232,1.390625,0.203125,11.203125
805,1695772512002,-0.31152344,-0.8809204,0.30413818,-0.828125,5.34375,9.25
806,1695772512045,-0.20727539,-0.97540283,0.2929077,-0.671875,3.453125,-1.046875
807,1695772512078,-0.22387695,-0.9651489,0.31951904,0.140625,-0.0625,-1.015625
808,1695772512119,-0.23706055,-0.9458618,0.30023193,0.625,3.21875,3.296875
809,1695772512162,-0.24658203,-0.9483032,0.28582764,-3.828125,-2.125,-0.46875
810,1695772512192,-0.29052734,-0.93927,0.30194092,-2.15625,1.546875,1.828125
811,1695772512239,-0.25341797,-0.95196533,0.3307495,0.796875,5.0,0.859375
812,1695772512269,-0.24511719,-0.940979,0.28118896,-2.390625,1.4375,1.3125
813,1695772512318,-0.2133789,-0.94415283,0.3060913,-1.90625,3.46875,-0.546875
814,1695772512361,-0.22875977,-0.9573364,0.309021,-0.578125,0.90625,-0.140625
815,1695772512387,-0.2446289,-0.90289307,0.3060913,0.75,1.671875,-2.703125
816,1695772512432,-0.22802734,-0.95318604,0.29510498,-1.4375,0.875,-6.34375
817,1695772512480,-0.23217773,-0.95635986,0.3036499,2.3125,-1.375,-0.9375
818,1695772512511,-0.24780273,-0.940979,0.30462646,1.109375,-0.828125,1.375
819,1695772512553,-0.23339844,-0.9458618,0.30511475,0.5,-2.234375,1.46875
820,1695772512583,-0.25024414,-0.9590454,0.28533936,0.03125,-0.375,0.59375
821,1695772512628,-0.22924805,-1.015686,0.3192749,4.625,-0.171875,1.15625
822,1695772512674,-0.28344727,-0.925354,0.27557373,-0.4375,-6.421875,4.59375
823,1695772512706,-0.25024414,-0.92388916,0.27947998,-2.5,-5.28125,-1.09375
824,1695772512751,-0.21411133,-1.0095825,0.30633545,0.953125,-5.140625,-0.328125
825,1695772512799,-0.24536133,-0.92633057,0.2753296,1.734375,-1.703125,1.96875
826,1695772512827,-0.28100586,-0.94415283,0.2670288,1.96875,-1.125,0.078125
827,1695772512870,-0.25341797,-0.9182739,0.27337646,0.640625,0.484375,-1.296875
828,1695772512919,-0.21484375,-0.9729614,0.27435303,-2.28125,-0.25,-3.4375
829,1695772512947,-0.25317383,-0.9246216,0.26727295,-1.96875,-2.0,-0.65625
830,1695772512989,-0.2680664,-0.9480591,0.27972412,-1.828125,-1.21875,-2.53125
831,1695772513021,-0.23535156,-0.9915161,0.29388428,-1.390625,2.0,-4.03125
832,1695772513062,-0.24682617,-0.92755127,0.2675171,-2.4375,1.875,-2.078125
833,1695772513108,-0.2619629,-0.9429321,0.29608154,-0.140625,1.078125,-1.828125
834,1695772513147,-0.26391602,-0.9495239,0.2975464,-2.75,-0.3125,-2.3125
835,1695772513183,-0.2746582,-0.9512329,0.2982788,-2.609375,1.484375,-1.625
836,1695772513213,-0.28076172,-0.9807739,0.31292725,-1.96875,2.21875,-0.296875
837,1695772513257,-0.25146484,-0.9338989,0.2723999,-5.203125,2.234375,-1.484375
838,1695772513303,-0.21948242,-0.92755127,0.30682373,-4.1875,2.296875,-3.828125
839,1695772513334,-0.25561523,-0.9456177,0.31243896,-0.140625,0.421875,0.84375
840,1695772513383,-0.2446289,-0.8850708,0.29119873,0.859375,-0.25,-2.84375
841,1695772513423,-0.28857422,-0.9783325,0.33050537,1.765625,1.328125,-0.578125
842,1695772513452,-0.30444336,-0.91729736,0.3143921,1.78125,1.5,2.1875
843,1695772513498,-0.2722168,-0.9373169,0.30316162,-3.140625,-0.5625,-3.34375
844,1695772513527,-0.2602539,-0.9331665,0.33050537,0.1875,0.671875,-0.078125
845,1695772513574,-0.2355957,-0.92974854,0.2897339,0.859375,1.546875,-0.765625
846,1695772513619,-0.2783203,-0.9663696,0.30413818,1.40625,-1.609375,0.90625
847,1695772513653,-0.27075195,-0.9307251,0.30975342,2.78125,-2.65625,-1.109375
848,1695772513693,-0.25683594,-0.9180298,0.2736206,-1.40625,-2.921875,-5.265625
849,1695772513738,-0.3071289,-0.9614868,0.31878662,3.453125,-2.1875,1.375
850,1695772513767,-0.30981445,-0.94000244,0.28729248,1.546875,-1.296875,5.34375
851,1695772513814,-0.26391602,-0.9529419,0.2682495,-5.015625,-1.671875,-1.546875
852,1695772513843,-0.25976562,-0.97076416,0.2897339,-1.96875,-2.578125,-2.21875
853,1695772513887,-0.25756836,-0.928772,0.27386475,0.90625,-0.671875,1.765625
854,1695772513932,-0.26000977,-0.9324341,0.2711792,-1.984375,-2.625,-1.125
855,1695772513969,-0.2607422,-0.9649048,0.29681396,1.625,-1.0,0.296875
856,1695772514008,-0.2841797,-0.93585205,0.27850342,-2.5,-2.515625,-2.65625
857,1695772514054,-0.3088379,-0.92193604,0.29071045,1.5625,-2.359375,-0.625
858,1695772514081,-0.29541016,-0.9758911,0.28900146,-0.59375,-0.921875,2.359375
859,1695772514131,-0.29052734,-0.9697876,0.2609253,-1.890625,-0.734375,6.140625
860,1695772514158,-0.27783203,-0.9348755,0.27166748,-2.125,3.0625,3.109375
861,1695772514202,-0.25585938,-0.9480591,0.2819214,-1.203125,1.8125,0.78125
862,1695772514248,-0.23242188,-0.9429321,0.276062,-2.015625,1.703125,1.28125
863,1695772514281,-0.24169922,-0.93536377,0.26678467,-4.265625,-1.40625,-2.015625
864,1695772514324,-0.2824707,-0.96099854,0.32073975,-0.078125,1.09375,1.59375
865,1695772514369,-0.26879883,-0.93414307,0.27581787,-1.09375,0.28125,1.125
866,1695772514397,-0.27124023,-0.94854736,0.28826904,-1.109375,0.8125,4.09375
867,1695772514444,-0.24926758,-0.94000244,0.2868042,-0.734375,0.375,2.9375
868,1695772514476,-0.26879883,-0.9570923,0.30340576,-3.453125,1.453125,3.046875
869,1695772514516,-0.2277832,-0.92437744,0.28045654,-0.703125,3.234375,1.796875
870,1695772514562,-0.22363281,-0.9859009,0.29559326,-4.296875,1.375,-0.9375
871,1695772514592,-0.26416016,-0.958313,0.3053589,-3.265625,1.078125,5.625
872,1695772514638,-0.25317383,-0.92315674,0.31707764,-1.078125,4.828125,5.265625
873,1695772514683,-0.24169922,-0.9546509,0.32122803,-1.0,5.140625,3.015625
874,1695772514716,-0.19824219,-0.9414673,0.3143921,-1.828125,6.296875,1.75
875,1695772514757,-0.17089844,-0.95880127,0.30633545,-5.015625,-0.46875,-4.875
876,1695772514786,-0.21850586,-0.942688,0.31854248,-4.015625,0.21875,-3.359375
877,1695772514834,-0.25439453,-0.94317627,0.322937,0.359375,2.203125,1.609375
878,1695772514880,-0.23339844,-0.9614868,0.3192749,-2.5,3.015625,0.484375
879,1695772514907,-0.21923828,-0.9319458,0.3180542,-6.015625,2.125,-1.984375
880,1695772514953,-0.20727539,-0.9595337,0.3456421,-1.546875,4.953125,3.265625
881,1695772514986,-0.19458008,-0.8870239,0.33807373,1.5,3.71875,5.90625
882,1695772515029,-0.15649414,-0.93707275,0.33026123,-3.109375,0.375,-3.25
883,1695772515072,-0.17260742,-0.9429321,0.36444092,1.21875,-3.203125,-4.828125
884,1695772515102,-0.18237305,-0.954895,0.34100342,0.171875,-3.25,-3.328125
885,1695772515147,-0.21923828,-0.9451294,0.32196045,-1.59375,-5.578125,-3.96875
886,1695772515195,-0.24121094,-0.9429321,0.33709717,1.03125,-3.78125,-3.3125
887,1695772515222,-0.23364258,-0.95635986,0.30291748,0.625,-2.15625,-2.90625
888,1695772515266,-0.23608398,-0.94610596,0.31707764,0.4375,-1.25,-2.203125
889,1695772515296,-0.23388672,-0.9402466,0.3168335,1.28125,-1.890625,-3.5
890,1695772515342,-0.22143555,-0.9368286,0.31463623,0.984375,-2.796875,-5.109375
891,1695772515392,-0.25317383,-0.95147705,0.31610107,-0.734375,-4.75,-2.78125
892,1695772515418,-0.28125,-0.94366455,0.31048584,1.078125,-4.40625,-1.390625
893,1695772515471,-0.28271484,-0.9607544,0.28631592,0.0625,-2.53125,-2.21875
894,1695772515509,-0.26831055,-0.93414307,0.3007202,-0.5,-0.21875,-3.140625
895,1695772515537,-0.28100586,-0.95269775,0.31170654,0.4375,0.796875,-2.546875
896,1695772515583,-0.2998047,-0.9212036,0.31072998,4.40625,2.140625,3.375
897,1695772515611,-0.28710938,-0.9446411,0.30975342,0.59375,1.0,-0.578125
898,1695772515657,-0.28857422,-0.944397,0.31048584,-0.234375,2.140625,0.5
899,1695772515704,-0.24584961,-0.92974854,0.30194092,-0.96875,1.484375,-2.03125
900,1695772515732,-0.24902344,-0.9351196,0.3024292,-0.625,1.09375,-1.15625
901,1695772515780,-0.27563477,-0.94000244,0.3085327,-0.359375,1.21875,-2.203125
902,1695772515825,-0.29248047,-0.96343994,0.28729248,-1.484375,1.75,-1.203125
903,1695772515852,-0.31030273,-0.9168091,0.31219482,0.09375,4.734375,1.1875
904,1695772515897,-0.28344727,-0.95391846,0.31707764,0.3125,6.5625,1.203125
905,1695772515930,-0.24951172,-0.9417114,0.29803467,-1.453125,4.65625,0.859375
906,1695772515973,-0.22338867,-0.9421997,0.3024292,-2.671875,4.203125,-2.296875
907,1695772516020,-0.24047852,-0.9483032,0.30438232,-2.3125,1.984375,-1.640625
