,timestamp,accel_x,accel_y,accel_z,gyro_x,gyro_y,gyro_z,ind
0,1695772480316,-0.19628906,-0.960022,0.25213623,-1.296875,1.03125,-0.9375,0
1,1695772480356,-0.171875,-0.9729614,0.2399292,-0.890625,1.53125,-0.984375,1
2,1695772480396,-0.19360352,-0.96759033,0.24676514,1.171875,1.09375,0.15625,2
3,1695772480436,-0.17089844,-0.9800415,0.25531006,1.5,2.90625,-1.234375,3
4,1695772480476,-0.19213867,-0.9783325,0.23895264,-2.0,-1.703125,-0.96875,4
5,1695772480516,-0.20166016,-0.94122314,0.23358154,-4.203125,-2.1875,-2.78125,5
6,1695772480556,-0.17944336,-0.95977783,0.2345581,0.640625,-0.6875,-4.203125,6
7,1695772480596,-0.1706543,-1.0171509,0.2453003,0.53125,-1.984375,-1.6875,7
8,1695772480636,-0.2019043,-0.93951416,0.23065186,-4.296875,-3.9375,-3.15625,8
9,1695772480676,-0.21826172,-0.9483032,0.24310303,1.0625,-1.75,-3.453125,9
10,1695772480716,-0.20361328,-0.97076416,0.25653076,1.40625,-1.71875,-1.1875,10
11,1695772480756,-0.23217773,-0.9776001,0.2489624,-2.71875,-4.125,-0.640625,11
12,1695772480796,-0.24707031,-0.9636841,0.2694702,1.90625,-1.34375,4.875,12
13,1695772480836,-0.20141602,-0.9639282,0.23651123,-3.21875,-1.078125,1.4375,13
14,1695772480876,-0.19848633,-1.0025024,0.26068115,-1.75,-4.796875,1.578125,14
15,1695772480916,-0.17993164,-0.9668579,0.21624756,-4.828125,-2.359375,1.4375,15
16,1695772480956,-0.17553711,-0.9944458,0.22210693,-9.234375,-7.78125,-0.515625,16
17,1695772480996,-0.20532227,-0.98272705,0.2675171,-5.25,-5.953125,2.890625,17
18,1695772481036,-0.20703125,-0.95025635,0.2538452,-5.03125,-4.765625,1.5,18
19,1695772481076,-0.24194336,-0.94073486,0.26849365,-3.953125,-0.96875,1.296875,19
20,1695772481116,-0.21704102,-0.958313,0.2597046,0.578125,1.84375,4.109375,20
21,1695772481156,-0.18920898,-0.9434204,0.26507568,-5.09375,2.375,4.6875,21
22,1695772481196,-0.16381836,-0.9578247,0.28485107,0.296875,1.984375,6.015625,22
23,1695772481236,-0.15844727,-0.9685669,0.27166748,-1.515625,-1.859375,4.828125,23
24,1695772481276,-0.17016602,-0.95758057,0.30755615,1.09375,0.53125,6.0625,24
25,1695772481316,-0.16918945,-0.9727173,0.24627686,-0.71875,-0.796875,3.265625,25
26,1695772481356,-0.19335938,-0.9627075,0.26239014,-2.734375,-0.375,3.90625,26
27,1695772481396,-0.15673828,-0.9776001,0.26971436,-0.671875,1.515625,2.3125,27
28,1695772481436,-0.13305664,-0.97442627,0.291687,-0.265625,3.109375,1.515625,28
29,1695772481476,-0.095703125,-0.98883057,0.26556396,-0.671875,1.890625,0.046875,29
30,1695772481516,-0.076416016,-0.9800415,0.26434326,-3.40625,-2.765625,-0.53125,30
31,1695772481556,-0.19970703,-0.9846802,0.29656982,-3.078125,-2.359375,7.09375,31
32,1695772481596,-0.16796875,-0.9209595,0.2909546,3.59375,6.34375,9.03125,32
33,1695772481636,-0.11254883,-0.9612427,0.27581787,0.375,4.296875,4.203125,33
34,1695772481676,-0.08618164,-0.9944458,0.26605225,-0.109375,3.546875,2.921875,34
35,1695772481716,-0.07543945,-0.9561157,0.27874756,-1.015625,3.921875,-0.703125,35
36,1695772481756,-0.11035156,-0.9636841,0.26531982,2.96875,6.65625,0.71875,36
37,1695772481796,-0.115478516,-0.9439087,0.2633667,6.328125,5.65625,-1.34375,37
38,1695772481836,-0.12817383,-1.0383911,0.2850952,4.765625,8.078125,0.296875,38
39,1695772481876,-0.13549805,-0.93756104,0.23406982,0.96875,6.453125,2.796875,39
40,1695772481916,-0.09692383,-0.97320557,0.24945068,0.296875,10.25,-2.25,40
41,1695772481956,-0.0546875,-0.9673462,0.25823975,0.609375,10.796875,-2.59375,41
42,1695772481996,-0.050048828,-0.9627075,0.25482178,-3.421875,7.21875,-6.5625,42
43,1695772482036,-0.103271484,-1.0222778,0.25653076,0.296875,6.453125,-6.796875,43
44,1695772482076,-0.13867188,-1.0144653,0.28485107,-5.359375,8.203125,-5.734375,44
45,1695772482116,-0.19458008,-0.9976196,0.29193115,0.53125,8.15625,-0.9375,45
46,1695772482156,-0.18408203,-0.91070557,0.27020264,1.34375,7.046875,-4.984375,46
47,1695772482196,-0.08618164,-1.0479126,0.2518921,1.96875,9.203125,-0.828125,47
48,1695772482236,-0.044189453,-0.95318604,0.23480225,3.890625,4.53125,8.578125,48
49,1695772482276,-0.09667969,-0.9678345,0.22796631,2.703125,9.53125,2.03125,49
50,1695772482316,-0.119628906,-0.9417114,0.2489624,8.359375,10.671875,2.984375,50
51,1695772482356,-0.043945312,-0.97247314,0.23382568,-0.296875,8.515625,-4.6875,51
52,1695772482396,-0.07861328,-1.0012817,0.25823975,-1.5,3.015625,-7.015625,52
53,1695772482436,-0.071777344,-0.97735596,0.2086792,-2.4375,5.5,-5.0,53
54,1695772482476,-0.07446289,-1.0044556,0.25482178,-0.9375,6.0,-1.5,54
55,1695772482516,-0.11816406,-0.97320557,0.24090576,-1.90625,1.015625,-0.453125,55
56,1695772482556,-0.095703125,-0.9614868,0.23309326,-4.0625,1.53125,-6.171875,56
57,1695772482596,-0.118652344,-0.9771118,0.28070068,-2.078125,2.71875,-3.96875,57
58,1695772482636,-0.09667969,-0.98150635,0.22357178,-3.40625,0.71875,-4.546875,58
59,1695772482676,-0.14208984,-0.97247314,0.26507568,-3.40625,2.5,-4.171875,59
60,1695772482716,-0.1381836,-0.9871216,0.28216553,0.875,3.640625,-1.75,60
61,1695772482756,-0.14404297,-0.95562744,0.2711792,-2.875,1.046875,-2.71875,61
62,1695772482796,-0.11425781,-0.9534302,0.24432373,-4.8125,-0.515625,-5.515625,62
63,1695772482836,-0.13598633,-1.005188,0.29852295,0.4375,1.140625,-4.671875,63
64,1695772482876,-0.13452148,-0.956604,0.2675171,-1.796875,-1.640625,-4.90625,64
65,1695772482916,-0.16064453,-0.975647,0.2489624,-3.09375,-2.421875,-7.984375,65
66,1695772482956,-0.1821289,-0.9505005,0.28704834,0.390625,-3.015625,-4.34375,66
67,1695772482996,-0.18603516,-0.99884033,0.28631592,-0.546875,-2.515625,-3.6875,67
68,1695772483036,-0.18945312,-0.9468384,0.24822998,-2.75,-0.09375,-2.734375,68
69,1695772483076,-0.16015625,-0.9678345,0.2567749,-5.390625,-4.109375,-5.484375,69
70,1695772483116,-0.17822266,-0.9636841,0.2909546,-4.15625,-4.6875,-4.0625,70
71,1695772483156,-0.16235352,-0.98760986,0.2531128,-4.4375,-7.9375,-2.3125,71
72,1695772483196,-0.20678711,-0.9209595,0.2892456,-4.578125,-7.0625,-2.078125,72
73,1695772483236,-0.25732422,-0.94732666,0.2765503,0.96875,-5.5,0.46875,73
74,1695772483276,-0.28637695,-0.9314575,0.30950928,2.28125,1.109375,1.53125,74
75,1695772483316,-0.18383789,-1.0735474,0.29144287,13.46875,7.46875,1.90625,75
76,1695772483356,-0.17944336,-0.9116821,0.20892334,-3.484375,-7.140625,0.390625,76
77,1695772483396,-0.1628418,-0.9578247,0.26385498,7.640625,-4.515625,-2.453125,77
78,1695772483436,-0.12182617,-0.9458618,0.21160889,9.109375,-6.03125,5.984375,78
79,1695772483476,-0.23852539,-0.9031372,0.20281982,-3.78125,-8.328125,2.1875,79
80,1695772483516,-0.20336914,-1.019104,0.22479248,-2.390625,-10.609375,-10.0625,80
81,1695772483556,-0.2541504,-0.972229,0.21990967,-5.4375,-7.265625,-7.8125,81
82,1695772483596,-0.17480469,-0.9993286,0.28167725,0.953125,-0.296875,-4.3125,82
83,1695772483636,-0.19580078,-0.97613525,0.22332764,-1.8125,-4.59375,1.90625,83
84,1695772483676,-0.23754883,-0.9116821,0.21624756,-0.5625,-7.71875,2.8125,84
85,1695772483716,-0.21777344,-0.9990845,0.26483154,2.21875,-6.015625,-2.875,85
86,1695772483756,-0.2565918,-0.9663696,0.21478271,-6.5625,-7.796875,-1.796875,86
87,1695772483796,-0.2541504,-0.9507446,0.24920654,-1.890625,-4.5625,-0.9375,87
88,1695772483836,-0.2578125,-0.9404907,0.24798584,-0.484375,1.078125,-1.84375,88
89,1695772483876,-0.23730469,-1.0120239,0.25628662,0.375,-0.3125,2.59375,89
90,1695772483916,-0.22631836,-0.9446411,0.22210693,-2.96875,-2.90625,0.828125,90
91,1695772483956,-0.22460938,-0.98565674,0.2514038,-1.640625,-3.421875,0.21875,91
92,1695772483996,-0.23730469,-0.96417236,0.2531128,-0.125,-1.328125,2.421875,92
93,1695772484036,-0.24121094,-0.9536743,0.22625732,-3.546875,0.625,4.65625,93
94,1695772484076,-0.23291016,-0.9751587,0.2592163,1.265625,1.109375,8.046875,94
95,1695772484116,-0.19995117,-0.9534302,0.25213623,2.265625,4.484375,5.765625,95
96,1695772484156,-0.19018555,-0.97857666,0.24163818,-2.28125,0.703125,1.3125,96
97,1695772484196,-0.20727539,-0.96466064,0.22918701,-1.34375,0.640625,2.703125,97
98,1695772484236,-0.16845703,-0.97662354,0.24359131,0.0,1.34375,1.40625,98
99,1695772484276,-0.21777344,-0.973938,0.2321167,-3.03125,2.078125,4.75,99
100,1695772484316,-0.19946289,-0.94488525,0.22381592,-1.34375,5.09375,0.046875,100
101,1695772484356,-0.18066406,-0.98150635,0.24066162,-0.796875,4.578125,0.90625,101
102,1695772484396,-0.17529297,-0.9800415,0.23797607,-2.59375,3.75,-0.78125,102
103,1695772484436,-0.14501953,-1.0159302,0.260437,3.25,9.046875,0.125,103
104,1695772484476,-0.21728516,-0.99298096,0.27679443,1.859375,2.5625,10.828125,104
105,1695772484516,-0.2199707,-0.91363525,0.21746826,0.546875,3.6875,7.1875,105
106,1695772484556,-0.11645508,-0.95806885,0.22259521,4.15625,6.3125,1.0,106
107,1695772484596,-0.11450195,-0.9795532,0.24285889,1.953125,4.953125,-0.796875,107
108,1695772484636,-0.1496582,-0.9241333,0.19793701,-5.734375,-0.71875,-3.921875,108
109,1695772484676,-0.13598633,-1.0359497,0.24285889,-2.4375,0.453125,-7.390625,109
110,1695772484716,-0.13427734,-0.9898071,0.24481201,-2.03125,0.390625,-0.765625,110
111,1695772484756,-0.17675781,-0.97198486,0.24945068,-2.25,-0.546875,3.8125,111
112,1695772484796,-0.122558594,-0.94781494,0.23529053,-1.625,-1.828125,-0.953125,112
113,1695772484836,-0.11401367,-0.98223877,0.24749756,-7.609375,-4.640625,-6.171875,113
114,1695772484876,-0.1394043,-0.9949341,0.25604248,-4.53125,-5.40625,-4.8125,114
115,1695772484916,-0.18237305,-0.96539307,0.27752686,-4.0,-6.3125,-2.96875,115
116,1695772484956,-0.2265625,-0.9651489,0.23797607,-8.3125,-8.0625,-0.96875,116
117,1695772484996,-0.2055664,-0.91656494,0.29925537,-1.359375,-3.90625,-0.703125,117
118,1695772485036,-0.1875,-0.9578247,0.29608154,-0.53125,-1.296875,-3.546875,118
119,1695772485076,-0.16772461,-0.9558716,0.28167725,-2.390625,-4.15625,-5.5625,119
120,1695772485116,-0.16796875,-0.9800415,0.26556396,-1.640625,-4.203125,-7.40625,120
121,1695772485156,-0.21240234,-0.9651489,0.2682495,-2.859375,-6.765625,-4.9375,121
122,1695772485196,-0.25927734,-0.94781494,0.29364014,0.421875,-4.90625,-1.40625,122
123,1695772485236,-0.25756836,-0.94976807,0.29632568,1.078125,-1.0625,1.5,123
124,1695772485276,-0.21704102,-0.99176025,0.28070068,1.140625,-1.484375,-2.453125,124
125,1695772485316,-0.20922852,-1.010315,0.2843628,2.0,2.625,-0.71875,125
126,1695772485356,-0.16894531,-0.9312134,0.215271,2.6875,-4.734375,-3.6875,126
127,1695772485396,-0.23486328,-0.96099854,0.24359131,4.265625,1.15625,5.5,127
128,1695772485436,-0.20898438,-0.9170532,0.19769287,-2.0625,-0.46875,2.15625,128
129,1695772485476,-0.24365234,-0.9956665,0.29510498,1.46875,-1.390625,3.59375,129
130,1695772485516,-0.22143555,-1.0418091,0.2687378,-0.6875,3.25,6.453125,130
131,1695772485556,-0.21899414,-0.911438,0.23822021,-2.28125,0.921875,8.09375,131
132,1695772485596,-0.14990234,-0.9536743,0.18377686,-6.796875,-4.421875,3.265625,132
133,1695772485636,-0.14916992,-0.99713135,0.27508545,-0.734375,-5.234375,1.640625,133
134,1695772485676,-0.16064453,-0.97247314,0.31365967,8.015625,2.78125,4.5,134
135,1695772485716,-0.18701172,-0.9824829,0.24188232,4.359375,1.625,-0.28125,135
136,1695772485756,-0.25634766,-0.93927,0.17156982,-3.15625,-7.0,-6.0625,136
137,1695772485796,-0.25317383,-0.98638916,0.26727295,1.03125,2.53125,-2.96875,137
138,1695772485836,-0.23095703,-0.9854126,0.1906128,-2.03125,5.34375,-1.359375,138
139,1695772485876,-0.19067383,-0.95318604,0.23504639,-8.890625,2.296875,-5.1875,139
140,1695772485916,-0.16870117,-0.9763794,0.2543335,-4.859375,8.0,-1.953125,140
141,1695772485956,-0.18359375,-0.9829712,0.2838745,-2.796875,6.015625,2.046875,141
142,1695772485996,-0.24243164,-0.9055786,0.30340576,-4.0,9.78125,-2.203125,142
143,1695772486036,-0.22314453,-0.9783325,0.30194092,-0.203125,12.203125,-5.546875,143
144,1695772486076,-0.18261719,-0.95147705,0.2765503,-4.8125,10.453125,-4.375,144
145,1695772486116,-0.15356445,-0.99542236,0.29656982,-0.15625,9.703125,-0.234375,145
146,1695772486156,-0.15429688,-0.9536743,0.293396,-2.234375,9.265625,0.1875,146
147,1695772486196,-0.16430664,-0.98101807,0.2374878,-1.890625,6.296875,-0.90625,147
148,1695772486236,-0.171875,-0.9368286,0.3078003,-3.15625,5.359375,-0.46875,148
149,1695772486276,-0.21240234,-0.9636841,0.31829834,2.171875,11.671875,3.375,149
150,1695772486316,-0.18334961,-1.0271606,0.33465576,4.65625,7.65625,3.921875,150
151,1695772486356,-0.21655273,-0.8765259,0.23406982,-0.90625,7.5,1.75,151
152,1695772486396,-0.103027344,-0.9480591,0.26776123,8.4375,6.59375,-3.765625,152
153,1695772486436,-0.14624023,-0.95318604,0.2814331,-3.59375,5.890625,-8.109375,153
154,1695772486476,-0.1809082,-0.99005127,0.29144287,1.171875,2.953125,-8.140625,154
155,1695772486516,-0.23583984,-0.95513916,0.27874756,-2.75,3.9375,-4.875,155
156,1695772486556,-0.20043945,-0.97076416,0.29681396,2.875,4.96875,-1.09375,156
157,1695772486596,-0.20019531,-0.9507446,0.26800537,-6.453125,-0.0625,-1.75,157
158,1695772486636,-0.17285156,-0.9685669,0.3336792,-0.9375,1.109375,0.265625,158
159,1695772486676,-0.15649414,-0.9260864,0.28851318,-3.03125,-2.578125,-3.40625,159
160,1695772486716,-0.22290039,-0.9446411,0.29925537,-7.859375,-6.203125,-8.703125,160
161,1695772486756,-0.24584961,-0.95806885,0.3300171,2.140625,-1.75,-3.21875,161
162,1695772486796,-0.2121582,-0.923645,0.25823975,-7.8125,-8.328125,-7.03125,162
163,1695772486836,-0.24389648,-0.9151001,0.3673706,1.375,-2.28125,-4.3125,163
164,1695772486876,-0.18823242,-0.9944458,0.3036499,6.328125,-3.609375,-5.5,164
165,1695772486916,-0.24731445,-0.9104614,0.23797607,-10.921875,-13.546875,-5.328125,165
166,1695772486956,-0.31030273,-0.93218994,0.33709717,3.0,-5.25,-1.6875,166
167,1695772486996,-0.28442383,-0.9505005,0.2892456,6.140625,-3.84375,-2.28125,167
168,1695772487036,-0.22583008,-0.9258423,0.2501831,-7.390625,-11.34375,-7.703125,168
169,1695772487076,-0.30273438,-0.98565674,0.30877686,5.546875,-0.953125,0.953125,169
170,1695772487116,-0.18164062,-1.0339966,0.2765503,8.421875,-4.859375,-2.375,170
171,1695772487156,-0.40039062,-0.8677368,0.2868042,-2.609375,-3.578125,8.734375,171
172,1695772487196,-0.23339844,-0.86383057,0.18963623,16.578125,3.9375,-5.515625,172
173,1695772487236,-0.23925781,-1.0361938,0.33953857,6.03125,-5.234375,-0.09375,173
174,1695772487276,-0.24487305,-0.9338989,0.15130615,-4.96875,-8.734375,-1.171875,174
175,1695772487316,-0.28588867,-0.93707275,0.19866943,-3.828125,-11.265625,-8.34375,175
176,1695772487356,-0.33569336,-1.0515747,0.31341553,1.0,-4.90625,-1.609375,176
177,1695772487396,-0.29052734,-0.97857666,0.23114014,-0.625,1.609375,9.84375,177
178,1695772487436,-0.2998047,-0.9216919,0.20965576,-2.890625,-1.265625,9.59375,178
179,1695772487476,-0.31469727,-0.89019775,0.24285889,-0.6875,-3.0625,0.90625,179
180,1695772487516,-0.2890625,-0.960022,0.23944092,-4.5,-0.828125,-4.546875,180
181,1695772487556,-0.25976562,-1.0015259,0.26361084,-4.84375,0.0625,-2.8125,181
182,1695772487596,-0.2890625,-0.99176025,0.26531982,-2.421875,2.78125,6.0,182
183,1695772487636,-0.2734375,-0.9248657,0.24578857,-1.953125,1.59375,3.765625,183
184,1695772487676,-0.3005371,-0.927063,0.2489624,-0.375,3.328125,4.171875,184
185,1695772487716,-0.25585938,-0.9282837,0.22918701,-0.84375,4.171875,1.96875,185
186,1695772487756,-0.24023438,-1.0020142,0.26849365,-2.28125,3.890625,2.3125,186
187,1695772487796,-0.24023438,-0.93536377,0.24139404,-0.890625,5.875,2.28125,187
188,1695772487836,-0.23266602,-0.95562744,0.25872803,3.53125,3.03125,1.296875,188
189,1695772487876,-0.22558594,-0.93341064,0.2543335,0.734375,2.109375,1.546875,189
190,1695772487916,-0.23022461,-0.98516846,0.28216553,1.8125,0.125,1.875,190
191,1695772487956,-0.25854492,-0.94610596,0.2543335,1.703125,1.34375,4.296875,191
192,1695772487996,-0.23535156,-0.9397583,0.24554443,-2.03125,1.078125,-2.5,192
193,1695772488036,-0.2368164,-0.9673462,0.28167725,-0.390625,1.1875,-2.90625,193
194,1695772488076,-0.2409668,-0.95391846,0.25457764,-1.390625,2.125,-1.796875,194
195,1695772488116,-0.22485352,-0.94122314,0.24993896,-2.75,3.875,-1.84375,195
196,1695772488156,-0.22167969,-0.98101807,0.25946045,-2.015625,2.1875,-2.71875,196
197,1695772488196,-0.24072266,-0.9517212,0.27337646,-1.203125,-0.453125,-1.421875,197
198,1695772488236,-0.22851562,-0.9512329,0.24725342,-4.390625,-0.265625,-4.390625,198
199,1695772488276,-0.22338867,-0.97247314,0.25994873,0.234375,-1.984375,-1.53125,199
200,1695772488316,-0.23828125,-0.9524536,0.27215576,2.5,2.09375,3.296875,200
201,1695772488356,-0.22363281,-0.9536743,0.24554443,-1.203125,0.078125,1.15625,201
202,1695772488396,-0.25341797,-0.95977783,0.34100342,3.265625,1.03125,0.59375,202
203,1695772488436,-0.2614746,-1.019104,0.28289795,5.0625,-0.125,1.546875,203
204,1695772488476,-0.26342773,-0.90289307,0.20819092,-2.828125,-8.140625,1.09375,204
205,1695772488516,-0.2529297,-0.9014282,0.23529053,1.96875,-1.546875,-3.3125,205
206,1695772488556,-0.24047852,-1.0205688,0.25506592,3.109375,1.984375,3.265625,206
207,1695772488596,-0.24243164,-0.9536743,0.2230835,-2.484375,1.515625,4.84375,207
208,1695772488636,-0.21728516,-0.9631958,0.23114014,-4.0,-1.1875,-0.203125,208
209,1695772488676,-0.25024414,-0.98028564,0.2526245,-3.59375,-1.671875,2.234375,209
210,1695772488716,-0.2368164,-0.94610596,0.2736206,-1.046875,3.078125,1.5625,210
211,1695772488756,-0.24926758,-0.9507446,0.26141357,1.75,3.171875,4.640625,211
212,1695772488796,-0.22290039,-0.95758057,0.20404053,-5.3125,0.125,2.375,212
213,1695772488836,-0.19140625,-0.96221924,0.26312256,-1.765625,2.609375,-1.484375,213
214,1695772488876,-0.19726562,-0.99102783,0.26287842,1.765625,3.75,2.125,214
215,1695772488916,-0.21875,-0.94366455,0.24456787,-2.546875,-1.40625,0.140625,215
216,1695772488956,-0.20117188,-0.96295166,0.25482178,-2.421875,-0.90625,-1.234375,216
217,1695772488996,-0.2175293,-0.97125244,0.25408936,-1.34375,-1.828125,1.875,217
218,1695772489036,-0.2475586,-0.93707275,0.27264404,-0.53125,0.796875,1.609375,218
219,1695772489076,-0.19750977,-0.9492798,0.2592163,-1.234375,2.859375,-3.0,219
220,1695772489116,-0.19213867,-0.99468994,0.25653076,-2.25,-0.125,-2.890625,220
221,1695772489156,-0.20507812,-0.9417114,0.26434326,-1.671875,-0.359375,-0.546875,221
222,1695772489196,-0.22631836,-0.9439087,0.2567749,-1.140625,-0.9375,-1.0625,222
223,1695772489236,-0.22680664,-0.972229,0.2711792,0.0,-0.25,-0.71875,223
224,1695772489276,-0.2043457,-0.9680786,0.26434326,-0.828125,-0.34375,-0.8125,224
225,1695772489316,-0.22167969,-0.9483032,0.25726318,-1.453125,-1.171875,-0.0625,225
226,1695772489356,-0.23510742,-0.95147705,0.26116943,1.453125,1.25,-0.328125,226
227,1695772489396,-0.21704102,-0.9585571,0.26531982,-1.015625,-0.265625,-2.40625,227
228,1695772489436,-0.23168945,-0.9524536,0.24285889,-1.78125,-0.6875,-3.375,228
229,1695772489476,-0.23242188,-0.9717407,0.2772827,1.390625,-0.5,0.03125,229
230,1695772489516,-0.22753906,-0.93878174,0.26776123,0.765625,-1.125,0.546875,230
231,1695772489556,-0.25927734,-0.9907837,0.25726318,-4.703125,-1.125,-1.234375,231
232,1695772489596,-0.23583984,-0.99664307,0.3241577,2.046875,2.34375,0.625,232
233,1695772489636,-0.22753906,-0.94415283,0.20477295,-3.71875,-4.40625,1.546875,233
234,1695772489676,-0.19946289,-0.96539307,0.26385498,2.4375,-2.390625,2.1875,234
235,1695772489716,-0.21313477,-0.9085083,0.23382568,2.46875,0.15625,4.015625,235
236,1695772489756,-0.22387695,-0.9414673,0.24822998,1.765625,-1.484375,-1.0625,236
237,1695772489796,-0.22924805,-0.9627075,0.24432373,-4.484375,-3.171875,-6.359375,237
238,1695772489836,-0.20458984,-0.99591064,0.26678467,-0.328125,-2.21875,-5.03125,238
239,1695772489876,-0.24023438,-0.9807739,0.2826538,-0.328125,-0.578125,0.0,239
240,1695772489916,-0.25268555,-0.93341064,0.246521,-0.765625,-0.78125,0.421875,240
241,1695772489956,-0.23803711,-0.93048096,0.25823975,-0.0625,-1.6875,-2.109375,241
242,1695772489996,-0.22680664,-0.98760986,0.2616577,-0.96875,-1.9375,-0.296875,242
243,1695772490036,-0.23486328,-0.95269775,0.246521,-0.671875,-0.625,0.59375,243
244,1695772490076,-0.24316406,-0.9776001,0.25775146,-0.8125,-0.34375,0.0625,244
245,1695772490116,-0.24389648,-0.95684814,0.24017334,-0.515625,0.328125,1.84375,245
246,1695772490156,-0.22290039,-0.9348755,0.24627686,-1.640625,-0.546875,-1.46875,246
247,1695772490196,-0.2355957,-0.9697876,0.25872803,-0.921875,-0.546875,-1.796875,247
248,1695772490236,-0.2619629,-0.96661377,0.26434326,-0.5,0.265625,0.40625,248
249,1695772490276,-0.24902344,-0.9439087,0.23895264,-1.90625,0.390625,-1.203125,249
250,1695772490316,-0.2487793,-0.9692993,0.25506592,-0.640625,0.765625,-0.875,250
251,1695772490356,-0.26123047,-0.9492798,0.27166748,-0.890625,2.9375,0.640625,251
252,1695772490396,-0.21142578,-0.96051025,0.23895264,-3.9375,2.59375,-3.578125,252
253,1695772490436,-0.21899414,-0.9714966,0.26361084,-4.0625,2.921875,1.421875,253
254,1695772490476,-0.20947266,-0.9763794,0.29119873,-1.28125,1.546875,2.109375,254
255,1695772490516,-0.21435547,-0.96710205,0.29632568,-0.1875,3.09375,3.796875,255
256,1695772490556,-0.24047852,-0.9439087,0.27215576,-1.8125,0.09375,2.9375,256
257,1695772490596,-0.21240234,-0.9517212,0.26849365,-1.828125,0.015625,1.203125,257
258,1695772490636,-0.21386719,-0.9522095,0.27191162,-0.4375,-0.140625,1.9375,258
259,1695772490676,-0.21020508,-0.9673462,0.28338623,-0.703125,1.59375,1.09375,259
260,1695772490716,-0.22167969,-0.9495239,0.28167725,-0.28125,0.921875,1.9375,260
261,1695772490756,-0.22216797,-0.93756104,0.2609253,-0.015625,-0.390625,-1.90625,261
262,1695772490796,-0.2211914,-0.9837036,0.2526245,-3.640625,-2.890625,-3.4375,262
263,1695772490836,-0.2290039,-0.97247314,0.2921753,0.890625,1.375,-1.234375,263
264,1695772490876,-0.23046875,-0.95513916,0.2687378,-1.5625,-0.3125,-0.46875,264
265,1695772490916,-0.2607422,-0.9639282,0.26922607,-1.515625,0.984375,0.84375,265
266,1695772490956,-0.23413086,-0.97125244,0.2531128,-0.828125,1.515625,3.578125,266
267,1695772490996,-0.22436523,-0.93218994,0.28118896,-3.5625,1.359375,-0.71875,267
268,1695772491036,-0.21459961,-0.96295166,0.26483154,-1.375,3.15625,-1.015625,268
269,1695772491076,-0.17773438,-0.9602661,0.26605225,-0.984375,2.515625,-1.0,269
270,1695772491116,-0.20776367,-0.9619751,0.2855835,-0.921875,1.828125,-1.5625,270
271,1695772491156,-0.2553711,-0.9602661,0.29412842,1.625,2.625,-0.6875,271
272,1695772491196,-0.24389648,-0.9295044,0.260437,-0.765625,2.390625,-2.375,272
273,1695772491236,-0.20874023,-0.97857666,0.28656006,-0.578125,5.5625,-4.796875,273
274,1695772491276,-0.19238281,-1.0186157,0.28900146,5.3125,5.953125,1.046875,274
275,1695772491316,-0.26635742,-0.9168091,0.2387085,2.484375,0.9375,4.765625,275
276,1695772491356,-0.23779297,-0.9573364,0.31414795,4.765625,-0.09375,3.96875,276
277,1695772491396,-0.203125,-0.909729,0.25042725,-3.078125,5.09375,-1.1875,277
278,1695772491436,-0.2109375,-0.9624634,0.2477417,-2.234375,-2.125,-0.8125,278
279,1695772491476,-0.19799805,-0.96343994,0.28070068,-1.78125,-0.890625,-5.25,279
280,1695772491516,-0.203125,-1.0032349,0.27947998,-3.125,-0.640625,-2.8125,280
281,1695772491556,-0.2175293,-0.93878174,0.27435303,-3.3125,-3.546875,-0.046875,281
282,1695772491596,-0.22216797,-0.9212036,0.25042725,-4.34375,-4.140625,-2.546875,282
283,1695772491636,-0.23046875,-0.96759033,0.29071045,-1.109375,-3.8125,-3.546875,283
284,1695772491676,-0.22387695,-0.9817505,0.3085327,-0.078125,-2.0,-2.140625,284
285,1695772491716,-0.24658203,-0.9612427,0.25653076,-3.078125,-2.828125,-2.53125,285
286,1695772491756,-0.23706055,-0.91778564,0.26654053,-2.453125,-2.9375,-4.109375,286
287,1695772491796,-0.24682617,-0.9483032,0.30218506,0.625,-1.828125,-2.34375,287
288,1695772491836,-0.24169922,-0.97613525,0.26849365,-1.28125,-1.9375,-3.5625,288
289,1695772491876,-0.24511719,-0.94610596,0.27142334,-2.53125,-3.859375,-3.734375,289
290,1695772491916,-0.25170898,-0.9524536,0.31829834,1.890625,-4.28125,-1.796875,290
291,1695772491956,-0.2770996,-0.9619751,0.2694702,-4.765625,-2.390625,-0.78125,291
292,1695772491996,-0.26586914,-0.9783325,0.34735107,5.5,1.21875,0.71875,292
293,1695772492036,-0.2783203,-0.9380493,0.23968506,-3.546875,-0.09375,4.578125,293
294,1695772492076,-0.26171875,-0.9126587,0.2670288,2.03125,-6.03125,-0.03125,294
295,1695772492116,-0.25610352,-0.93170166,0.27508545,8.265625,5.6875,3.625,295
296,1695772492156,-0.26489258,-0.9649048,0.25994873,0.46875,1.921875,3.34375,296
297,1695772492196,-0.27319336,-0.94488525,0.24359131,-1.046875,-0.515625,-0.25,297
298,1695772492236,-0.24414062,-0.9607544,0.25042725,-0.5,4.734375,-2.3125,298
299,1695772492276,-0.24047852,-1.0105591,0.30584717,3.671875,5.71875,2.09375,299
300,1695772492316,-0.2536621,-0.91656494,0.23138428,-0.28125,6.34375,4.15625,300
301,1695772492356,-0.2524414,-0.94122314,0.25286865,3.140625,4.421875,1.265625,301
302,1695772492396,-0.22509766,-0.96710205,0.28045654,5.046875,4.125,0.96875,302
303,1695772492436,-0.21606445,-1.003479,0.22381592,8.203125,1.96875,3.953125,303
304,1695772492476,-0.22729492,-0.9612427,0.2399292,8.0,6.0625,6.71875,304
305,1695772492516,-0.22167969,-0.95440674,0.20159912,2.0625,5.40625,2.171875,305
306,1695772492556,-0.2319336,-0.9614868,0.20428467,0.578125,5.640625,2.453125,306
307,1695772492596,-0.20019531,-0.96173096,0.21136475,1.8125,7.46875,1.875,307
308,1695772492636,-0.18579102,-0.9817505,0.22406006,-0.0625,4.984375,-0.234375,308
309,1695772492676,-0.18457031,-0.96295166,0.21600342,-2.046875,3.5625,-0.59375,309
310,1695772492716,-0.18847656,-0.95562744,0.21868896,-0.296875,3.0,-1.03125,310
311,1695772492756,-0.20458984,-0.96881104,0.21942139,-1.09375,0.53125,-3.046875,311
312,1695772492796,-0.20629883,-0.9710083,0.22210693,-3.328125,0.3125,-4.578125,312
313,1695772492836,-0.19970703,-0.9663696,0.22821045,-1.96875,1.296875,-2.546875,313
314,1695772492876,-0.20141602,-0.9668579,0.23162842,-0.046875,0.734375,-1.6875,314
315,1695772492916,-0.20214844,-0.9541626,0.22137451,-1.140625,0.6875,-3.328125,315
316,1695772492956,-0.21728516,-0.9841919,0.23284912,-1.21875,-1.8125,-4.078125,316
317,1695772492996,-0.24047852,-0.96954346,0.24041748,-1.671875,-1.46875,-2.109375,317
318,1695772493036,-0.22436523,-0.95147705,0.22528076,-0.796875,0.578125,-3.6875,318
319,1695772493076,-0.23217773,-0.99542236,0.22235107,-3.71875,-1.5,-3.203125,319
320,1695772493116,-0.22558594,-0.9949341,0.27874756,4.5625,1.421875,-0.78125,320
321,1695772493156,-0.25268555,-0.97735596,0.22943115,-4.0,-2.84375,3.796875,321
322,1695772493196,-0.25732422,-0.8599243,0.2008667,-0.625,-3.75,1.046875,322
323,1695772493236,-0.18017578,-0.991272,0.26556396,2.640625,-4.015625,-0.859375,323
324,1695772493276,-0.22167969,-0.9680786,0.20941162,1.96875,-3.890625,2.25,324
325,1695772493316,-0.24682617,-0.9258423,0.20697021,-4.546875,-5.921875,-1.0,325
326,1695772493356,-0.22729492,-0.9714966,0.22039795,-0.953125,-7.5,-7.625,326
327,1695772493396,-0.23364258,-1.0176392,0.27020264,1.296875,-3.671875,-3.8125,327
328,1695772493436,-0.25756836,-0.93756104,0.2243042,-0.734375,-3.5625,1.671875,328
329,1695772493476,-0.25634766,-0.9260864,0.21942139,2.03125,-5.203125,-0.171875,329
330,1695772493516,-0.25219727,-0.99053955,0.21258545,-1.109375,-5.515625,-1.109375,330
331,1695772493556,-0.2590332,-0.986145,0.24163818,1.03125,-2.171875,0.71875,331
332,1695772493596,-0.26367188,-0.97857666,0.22161865,-1.515625,0.703125,1.34375,332
333,1695772493636,-0.27539062,-0.95269775,0.20257568,1.25,-0.671875,2.078125,333
334,1695772493676,-0.24194336,-0.9729614,0.22650146,1.40625,1.734375,0.4375,334
335,1695772493716,-0.26513672,-0.96539307,0.19696045,0.5625,-0.390625,3.109375,335
336,1695772493756,-0.26220703,-0.94854736,0.20697021,0.265625,0.796875,1.921875,336
337,1695772493796,-0.25708008,-0.97125244,0.199646,-1.9375,2.203125,0.40625,337
338,1695772493836,-0.2578125,-0.97369385,0.20379639,-1.90625,3.40625,-1.421875,338
339,1695772493876,-0.24365234,-0.95025635,0.20843506,-5.046875,4.09375,-3.28125,339
340,1695772493916,-0.24926758,-0.9834595,0.2374878,-0.59375,3.171875,-0.421875,340
341,1695772493956,-0.24829102,-0.9771118,0.22332764,-3.3125,4.03125,0.78125,341
342,1695772493996,-0.23339844,-0.9343872,0.21600342,-3.90625,3.9375,-1.15625,342
343,1695772494036,-0.25341797,-0.97540283,0.23651123,-3.34375,4.296875,-1.0,343
344,1695772494076,-0.2614746,-0.94781494,0.2567749,0.109375,5.90625,1.234375,344
345,1695772494116,-0.23754883,-0.9578247,0.20770264,-5.6875,4.875,-1.96875,345
346,1695772494156,-0.20996094,-0.98028564,0.25213623,-1.765625,6.21875,-2.359375,346
347,1695772494196,-0.22924805,-0.97491455,0.27435303,0.046875,6.109375,2.828125,347
348,1695772494236,-0.23828125,-0.9265747,0.23065186,-2.59375,4.25,-0.6875,348
349,1695772494276,-0.22290039,-0.96099854,0.2543335,-1.03125,3.140625,-3.375,349
350,1695772494316,-0.21704102,-0.9578247,0.25238037,-0.3125,2.296875,-0.4375,350
351,1695772494356,-0.23486328,-0.9639282,0.24578857,-0.390625,1.828125,0.125,351
352,1695772494396,-0.25610352,-0.9612427,0.24383545,-3.09375,0.0625,1.21875,352
353,1695772494436,-0.23266602,-0.95684814,0.25701904,-2.0,0.15625,-0.171875,353
354,1695772494476,-0.21728516,-0.9602661,0.23480225,-3.609375,-0.71875,-1.03125,354
355,1695772494516,-0.22094727,-0.97076416,0.23846436,-3.765625,-0.53125,-0.8125,355
356,1695772494556,-0.2211914,-0.95977783,0.25482178,-2.84375,-1.625,-0.234375,356
357,1695772494596,-0.24047852,-0.97125244,0.2765503,-3.0625,-2.84375,-0.265625,357
358,1695772494636,-0.24291992,-0.9338989,0.25994873,-2.6875,-2.640625,1.140625,358
359,1695772494676,-0.22998047,-0.9458618,0.2609253,-3.296875,-4.546875,-1.90625,359
360,1695772494716,-0.22583008,-0.97857666,0.2831421,-1.5,-4.828125,3.265625,360
361,1695772494756,-0.20629883,-0.9229126,0.27044678,-8.359375,-6.8125,-0.109375,361
362,1695772494796,-0.2512207,-0.96881104,0.2975464,-3.21875,-6.375,4.078125,362
363,1695772494836,-0.20996094,-0.8989868,0.2855835,-1.484375,-7.6875,0.265625,363
364,1695772494876,-0.21655273,-0.99835205,0.29925537,-5.609375,-7.28125,-2.875,364
365,1695772494916,-0.25073242,-0.9546509,0.29144287,-0.234375,-7.515625,0.84375,365
366,1695772494956,-0.24780273,-0.93218994,0.2814331,-2.09375,-7.0625,-2.515625,366
367,1695772494996,-0.2529297,-0.9710083,0.2711792,-3.421875,-6.796875,-2.328125,367
368,1695772495036,-0.27661133,-0.9421997,0.29779053,-2.09375,-5.375,-0.125,368
369,1695772495076,-0.27734375,-0.9522095,0.28216553,-3.109375,-2.71875,-1.125,369
370,1695772495116,-0.25317383,-0.95196533,0.28607178,-2.625,-2.640625,-1.59375,370
371,1695772495156,-0.25952148,-0.972229,0.31829834,1.421875,-0.328125,0.96875,371
372,1695772495196,-0.25732422,-0.9343872,0.29364014,-2.34375,-0.421875,1.03125,372
373,1695772495236,-0.27416992,-0.9212036,0.291687,-3.078125,-2.03125,-1.640625,373
374,1695772495276,-0.27197266,-0.95318604,0.293396,-0.5625,1.1875,-0.1875,374
375,1695772495316,-0.25390625,-0.9487915,0.2929077,-0.6875,0.46875,1.015625,375
376,1695772495356,-0.26367188,-0.94781494,0.28875732,-1.59375,2.453125,0.890625,376
377,1695772495396,-0.22827148,-0.9451294,0.2929077,-0.984375,1.265625,0.078125,377
378,1695772495436,-0.25341797,-0.9378052,0.30926514,-1.09375,0.1875,-0.015625,378
379,1695772495476,-0.25195312,-0.96417236,0.29632568,-1.328125,0.453125,-0.234375,379
380,1695772495516,-0.24584961,-0.9290161,0.3024292,-1.359375,0.109375,-1.03125,380
381,1695772495556,-0.25024414,-0.95391846,0.29022217,0.515625,0.59375,-0.15625,381
382,1695772495596,-0.2565918,-0.93536377,0.31610107,2.15625,2.78125,2.3125,382
383,1695772495636,-0.2397461,-0.9487915,0.28826904,-0.03125,1.328125,0.5,383
384,1695772495676,-0.24731445,-0.91192627,0.2909546,0.953125,0.671875,-0.921875,384
385,1695772495716,-0.23779297,-0.9487915,0.28460693,0.4375,1.875,-2.796875,385
386,1695772495756,-0.24609375,-0.91534424,0.31488037,4.28125,1.140625,-2.03125,386
387,1695772495796,-0.24707031,-0.96099854,0.28338623,3.703125,2.46875,-4.234375,387
388,1695772495836,-0.2697754,-0.954895,0.2765503,5.453125,0.203125,-1.9375,388
389,1695772495876,-0.24658203,-0.9434204,0.2736206,2.71875,3.765625,-3.484375,389
390,1695772495916,-0.27490234,-0.98394775,0.26263428,5.375,2.953125,0.078125,390
391,1695772495956,-0.29174805,-0.97052,0.25872803,6.296875,5.203125,2.828125,391
392,1695772495996,-0.27148438,-0.95318604,0.22723389,0.5,6.3125,-1.0625,392
393,1695772496036,-0.24169922,-0.97198486,0.24578857,1.671875,6.515625,-0.53125,393
394,1695772496076,-0.25073242,-0.9595337,0.26361084,4.828125,10.9375,-1.375,394
395,1695772496116,-0.23217773,-1.11969,0.276062,5.140625,9.3125,2.109375,395
396,1695772496156,-0.28710938,-0.8814087,0.22210693,5.078125,4.6875,10.296875,396
397,1695772496196,-0.24975586,-0.8735962,0.21380615,3.328125,0.78125,2.9375,397
398,1695772496236,-0.18164062,-0.9993286,0.23846436,1.875,3.109375,6.0625,398
399,1695772496276,-0.18725586,-0.9234009,0.18450928,-1.75,-0.015625,0.078125,399
400,1695772496316,-0.19702148,-1.0090942,0.25628662,-1.09375,-1.84375,-2.234375,400
401,1695772496356,-0.23168945,-0.9873657,0.22259521,-0.84375,-1.53125,1.890625,401
402,1695772496396,-0.21264648,-0.9624634,0.23651123,-1.40625,0.828125,2.609375,402
403,1695772496436,-0.23095703,-0.94366455,0.22528076,-1.65625,-0.375,3.828125,403
404,1695772496476,-0.20874023,-0.9492798,0.24188232,-1.984375,-1.5625,-2.0,404
405,1695772496516,-0.18261719,-1.0029907,0.23846436,-4.984375,-3.328125,-2.328125,405
406,1695772496556,-0.20922852,-0.9651489,0.22357178,-1.453125,-2.84375,0.375,406
407,1695772496596,-0.22290039,-0.98223877,0.23919678,-1.75,-2.15625,2.84375,407
408,1695772496636,-0.2487793,-0.94976807,0.2387085,-4.296875,-1.359375,2.546875,408
409,1695772496676,-0.22070312,-0.9673462,0.24798584,-6.09375,-2.625,1.015625,409
410,1695772496716,-0.24560547,-0.9800415,0.27142334,-1.890625,1.4375,5.171875,410
411,1695772496756,-0.14404297,-0.9841919,0.25457764,-3.4375,0.640625,3.921875,411
412,1695772496796,-0.15844727,-0.91656494,0.21673584,-10.75,-5.125,-5.21875,412
413,1695772496836,-0.15161133,-0.9639282,0.28900146,-3.171875,-1.84375,-8.46875,413
414,1695772496876,-0.19799805,-0.9561157,0.29315186,-1.25,-3.171875,-1.34375,414
415,1695772496916,-0.20703125,-0.9338989,0.28094482,-0.40625,-1.0625,-2.65625,415
416,1695772496956,-0.22753906,-0.93170166,0.29071045,6.953125,-0.0625,-6.359375,416
417,1695772496996,-0.27294922,-0.97076416,0.27093506,0.34375,0.375,-6.015625,417
418,1695772497036,-0.2253418,-0.94317627,0.2387085,0.59375,-0.625,-2.46875,418
419,1695772497076,-0.22143555,-0.98101807,0.23968506,-2.125,0.703125,-2.609375,419
420,1695772497116,-0.2253418,-1.0217896,0.26239014,0.515625,-1.234375,0.6875,420
421,1695772497156,-0.22680664,-0.9417114,0.23382568,-3.828125,-0.84375,-2.203125,421
422,1695772497196,-0.22314453,-0.9783325,0.23382568,-2.234375,-2.984375,0.046875,422
423,1695772497236,-0.2578125,-0.9397583,0.25897217,-4.484375,-1.484375,1.109375,423
424,1695772497276,-0.27734375,-1.000061,0.32269287,-0.9375,2.0,2.921875,424
425,1695772497316,-0.24414062,-0.94317627,0.22406006,-3.65625,0.765625,5.140625,425
426,1695772497356,-0.18359375,-0.940979,0.2658081,-3.546875,-0.84375,-2.703125,426
427,1695772497396,-0.20800781,-0.97247314,0.31292725,-0.796875,1.5625,-1.875,427
428,1695772497436,-0.21582031,-0.9314575,0.23284912,-2.90625,-0.890625,-1.78125,428
429,1695772497476,-0.24780273,-0.9590454,0.28338623,0.390625,-2.046875,-1.25,429
430,1695772497516,-0.30639648,-0.96173096,0.2987671,-2.078125,0.875,1.65625,430
431,1695772497556,-0.24926758,-0.9273071,0.25238037,2.78125,6.21875,0.34375,431
432,1695772497596,-0.22143555,-0.9439087,0.2789917,1.421875,3.015625,-4.203125,432
433,1695772497636,-0.23754883,-0.986145,0.31585693,4.03125,5.390625,-0.859375,433
434,1695772497676,-0.21166992,-0.93048096,0.22845459,0.046875,2.359375,-2.796875,434
435,1695772497716,-0.22680664,-0.9751587,0.2543335,-2.625,-0.421875,-5.25,435
436,1695772497756,-0.25585938,-0.9612427,0.26922607,-0.484375,-0.375,-2.484375,436
437,1695772497796,-0.25610352,-0.97125244,0.28460693,-0.078125,1.046875,0.46875,437
438,1695772497836,-0.25195312,-0.94366455,0.28070068,-3.015625,1.109375,1.28125,438
439,1695772497876,-0.25341797,-0.91485596,0.262146,-1.359375,1.53125,-0.984375,439
440,1695772497916,-0.22021484,-0.9812622,0.2826538,1.03125,-0.296875,-3.65625,440
441,1695772497956,-0.22045898,-0.9492798,0.29119873,-3.6875,-3.671875,-3.921875,441
442,1695772497996,-0.24438477,-0.9795532,0.25238037,-6.125,-3.296875,-3.828125,442
443,1695772498036,-0.26635742,-0.9570923,0.34588623,9.46875,2.109375,3.5625,443
444,1695772498076,-0.2697754,-0.9837036,0.24676514,-0.125,0.578125,4.234375,444
445,1695772498116,-0.30615234,-0.9116821,0.32244873,-1.296875,-3.046875,6.25,445
446,1695772498156,-0.23632812,-0.911438,0.230896,0.46875,-0.015625,-2.625,446
447,1695772498196,-0.28076172,-0.98883057,0.2789917,2.5625,-3.1875,3.375,447
448,1695772498236,-0.26171875,-0.88726807,0.21624756,8.359375,4.75,3.859375,448
449,1695772498276,-0.25170898,-0.972229,0.2633667,4.828125,4.015625,3.703125,449
450,1695772498316,-0.23144531,-0.958313,0.25164795,-0.0625,2.265625,-1.5625,450
451,1695772498356,-0.19995117,-0.97613525,0.19598389,-6.09375,-2.171875,-6.609375,451
452,1695772498396,-0.21484375,-1.0056763,0.25091553,-2.890625,-1.40625,-8.71875,452
453,1695772498436,-0.24560547,-0.96710205,0.23626709,-1.5,1.296875,1.546875,453
454,1695772498476,-0.22802734,-0.9417114,0.21722412,1.328125,-0.15625,4.125,454
455,1695772498516,-0.25,-0.9776001,0.25994873,-2.859375,-0.84375,3.265625,455
456,1695772498556,-0.24707031,-0.954895,0.24163818,-2.4375,-0.5,4.859375,456
457,1695772498596,-0.20629883,-0.96221924,0.24822998,-5.4375,-4.0,3.5,457
458,1695772498636,-0.2319336,-0.98223877,0.23822021,-2.0,-1.921875,4.421875,458
459,1695772498676,-0.21264648,-0.9331665,0.26800537,-2.671875,-2.390625,0.34375,459
460,1695772498716,-0.25024414,-0.96295166,0.2814331,-2.078125,-1.4375,0.015625,460
461,1695772498756,-0.2434082,-0.9500122,0.2675171,2.546875,4.109375,-2.734375,461
462,1695772498796,-0.24780273,-1.0083618,0.3036499,1.953125,1.5,0.84375,462
463,1695772498836,-0.2680664,-0.9221802,0.2267456,0.203125,-1.015625,-0.234375,463
464,1695772498876,-0.19238281,-0.8887329,0.24407959,0.484375,3.53125,-0.984375,464
465,1695772498916,-0.2253418,-0.9429321,0.2633667,-0.9375,5.203125,-2.625,465
466,1695772498956,-0.23583984,-0.98809814,0.27020264,1.234375,1.265625,-1.015625,466
467,1695772498996,-0.22363281,-1.0027466,0.2531128,-0.5625,4.765625,-3.828125,467
468,1695772499036,-0.22143555,-0.9849243,0.24139404,-5.140625,1.828125,0.9375,468
469,1695772499076,-0.20898438,-0.90631104,0.27313232,-1.15625,1.5625,3.53125,469
470,1695772499116,-0.23754883,-0.9573364,0.27972412,-0.546875,3.5,6.171875,470
471,1695772499156,-0.17700195,-0.9421997,0.27923584,1.015625,0.859375,0.890625,471
472,1695772499196,-0.17749023,-1.0203247,0.26531982,-3.359375,0.421875,-2.734375,472
473,1695772499236,-0.1875,-0.91729736,0.27801514,-0.75,-2.15625,-1.3125,473
474,1695772499276,-0.18603516,-0.95758057,0.27752686,0.28125,-3.3125,-3.078125,474
475,1695772499316,-0.21459961,-0.9368286,0.26898193,-0.65625,-9.734375,-2.296875,475
476,1695772499356,-0.25830078,-0.9541626,0.32318115,3.1875,-4.25,0.9375,476
477,1695772499396,-0.21044922,-1.008606,0.2423706,-1.578125,-6.1875,0.84375,477
478,1695772499436,-0.25830078,-0.913147,0.24066162,-6.3125,-3.734375,-0.65625,478
479,1695772499476,-0.25683594,-0.9570923,0.31072998,7.640625,5.0,2.953125,479
480,1695772499516,-0.19335938,-0.954895,0.24334717,-1.046875,-2.1875,-6.40625,480
481,1695772499556,-0.24389648,-0.9993286,0.26019287,-3.203125,-3.84375,-5.15625,481
482,1695772499596,-0.27124023,-0.9656372,0.24627686,-0.140625,-1.75,2.515625,482
483,1695772499636,-0.26367188,-0.9356079,0.246521,-3.1875,2.265625,-0.484375,483
484,1695772499676,-0.22680664,-0.94854736,0.2814331,6.078125,4.453125,-0.1875,484
485,1695772499716,-0.18408203,-0.9985962,0.24822998,-2.0,1.171875,-7.328125,485
486,1695772499756,-0.22729492,-0.9746704,0.24627686,-2.640625,-4.515625,-2.96875,486
487,1695772499796,-0.2512207,-0.95025635,0.2399292,-1.015625,-3.953125,-1.40625,487
488,1695772499836,-0.26391602,-0.9834595,0.23675537,-4.59375,-5.640625,-0.109375,488
489,1695772499876,-0.23388672,-0.9663696,0.24359131,-4.4375,-3.34375,0.40625,489
490,1695772499916,-0.2475586,-0.9817505,0.260437,-6.28125,-3.328125,2.671875,490
491,1695772499956,-0.27807617,-0.9902954,0.23602295,-7.21875,-4.125,5.328125,491
492,1695772499996,-0.23754883,-0.9326782,0.2592163,-5.765625,-2.484375,0.859375,492
493,1695772500036,-0.23657227,-0.9558716,0.2736206,-6.640625,-1.453125,-3.359375,493
494,1695772500076,-0.22094727,-0.8713989,0.29388428,1.921875,-2.046875,1.71875,494
495,1695772500116,-0.27905273,-0.9031372,0.30096436,-2.875,1.203125,-2.9375,495
496,1695772500156,-0.36108398,-1.0007935,0.33172607,4.875,3.9375,10.21875,496
497,1695772500196,-0.24780273,-0.90997314,0.27459717,0.328125,5.1875,4.546875,497
498,1695772500236,-0.17504883,-0.9819946,0.27313232,-7.234375,0.46875,-4.765625,498
499,1695772500276,-0.19482422,-0.98150635,0.3204956,0.828125,3.015625,0.140625,499
500,1695772500316,-0.19262695,-0.90948486,0.2682495,2.0625,1.953125,4.234375,500
501,1695772500356,-0.22973633,-0.93585205,0.2645874,-1.609375,0.390625,0.046875,501
502,1695772500396,-0.26391602,-0.97979736,0.29193115,1.046875,2.234375,1.4375,502
503,1695772500436,-0.23266602,-0.9385376,0.29412842,0.78125,4.453125,-1.71875,503
504,1695772500476,-0.21728516,-0.9602661,0.2831421,-1.265625,3.484375,-4.078125,504
505,1695772500516,-0.23242188,-0.9607544,0.28485107,-0.078125,2.046875,-0.34375,505
506,1695772500556,-0.1875,-0.9595337,0.2904663,1.234375,2.1875,0.328125,506
507,1695772500596,-0.22802734,-0.95562744,0.28216553,-1.734375,-0.265625,-0.578125,507
508,1695772500636,-0.23950195,-0.92803955,0.2723999,0.828125,0.578125,-2.09375,508
509,1695772500676,-0.22045898,-0.96343994,0.2819214,-1.5625,2.34375,-3.84375,509
510,1695772500716,-0.2397461,-0.96173096,0.27459717,1.34375,1.859375,-2.390625,510
511,1695772500756,-0.21923828,-0.98028564,0.26654053,-1.21875,0.375,-4.734375,511
512,1695772500796,-0.23901367,-0.9697876,0.27703857,-3.3125,-1.484375,-2.5625,512
513,1695772500836,-0.25854492,-0.93927,0.26800537,2.71875,1.125,4.578125,513
514,1695772500876,-0.2685547,-0.91534424,0.2765503,2.765625,7.4375,7.046875,514
515,1695772500916,-0.19165039,-0.9829712,0.27996826,3.765625,3.734375,0.734375,515
516,1695772500956,-0.18139648,-0.9871216,0.28460693,-3.625,-0.703125,-6.046875,516
517,1695772500996,-0.22924805,-0.9492798,0.26971436,-3.296875,-2.0625,-4.890625,517
518,1695772501036,-0.24511719,-0.95880127,0.2658081,-3.03125,-1.15625,-1.9375,518
519,1695772501076,-0.26782227,-0.9692993,0.27020264,-2.203125,-0.25,1.484375,519
520,1695772501116,-0.25170898,-0.956604,0.26019287,-2.59375,3.328125,2.0625,520
521,1695772501156,-0.26098633,-0.96221924,0.30633545,-3.5,2.328125,2.34375,521
522,1695772501196,-0.24291992,-0.9546509,0.3217163,1.0625,5.484375,9.375,522
523,1695772501236,-0.2685547,-0.86676025,0.2838745,3.140625,8.75,14.421875,523
524,1695772501276,-0.18945312,-0.9378052,0.32489014,5.953125,10.921875,12.5625,524
525,1695772501316,-0.071777344,-0.9212036,0.28948975,5.34375,4.953125,2.953125,525
526,1695772501356,-0.013183594,-1.0786743,0.29315186,-1.21875,-5.21875,-8.625,526
527,1695772501396,-0.15234375,-0.9793091,0.2711792,-4.4375,-8.203125,-6.03125,527
528,1695772501436,-0.24731445,-0.9229126,0.24700928,-4.875,-8.5,-5.265625,528
529,1695772501476,-0.2800293,-0.98443604,0.27874756,-4.46875,-6.0625,-1.765625,529
530,1695772501516,-0.29174805,-0.9180298,0.33099365,1.953125,3.28125,5.5,530
531,1695772501556,-0.20751953,-0.96417236,0.30438232,1.703125,10.640625,3.921875,531
532,1695772501596,-0.13989258,-0.92803955,0.28289795,2.15625,5.28125,-4.71875,532
533,1695772501636,-0.0949707,-0.986145,0.27386475,-1.40625,2.09375,-11.0,533
534,1695772501676,-0.16357422,-0.98883057,0.25775146,-4.65625,-7.625,-7.875,534
535,1695772501716,-0.21923828,-0.9573364,0.28778076,-1.546875,-4.0,-4.640625,535
536,1695772501756,-0.23046875,-0.9973755,0.25042725,-4.421875,-6.375,-1.46875,536
537,1695772501796,-0.24414062,-0.9553833,0.2819214,-2.546875,-5.171875,-1.59375,537
538,1695772501836,-0.23486328,-0.9649048,0.2506714,-5.609375,-1.625,-3.5625,538
539,1695772501876,-0.2277832,-0.9673462,0.29119873,-3.890625,-3.96875,-2.234375,539
540,1695772501916,-0.22216797,-0.92974854,0.2868042,-6.703125,-3.59375,-4.84375,540
541,1695772501956,-0.25585938,-0.93634033,0.31341553,-3.625,-4.875,-3.859375,541
542,1695772501996,-0.2541504,-0.87042236,0.2772827,-1.0625,-3.96875,-6.625,542
543,1695772502036,-0.30737305,-0.9859009,0.3439331,2.375,0.3125,-0.421875,543
544,1695772502076,-0.3479004,-0.9373169,0.30999756,6.421875,0.796875,9.515625,544
545,1695772502116,-0.26904297,-0.9351196,0.28948975,-4.015625,3.078125,1.109375,545
546,1695772502156,-0.23291016,-0.9536743,0.29925537,0.484375,2.9375,-0.3125,546
547,1695772502196,-0.21166992,-0.9326782,0.29681396,2.671875,3.671875,0.484375,547
548,1695772502236,-0.2019043,-0.94000244,0.2748413,-0.671875,0.859375,-0.96875,548
549,1695772502276,-0.23535156,-0.987854,0.28900146,-0.71875,-2.75,-0.8125,549
550,1695772502316,-0.27124023,-0.9390259,0.30560303,0.9375,1.015625,-1.71875,550
551,1695772502356,-0.2709961,-0.93463135,0.30438232,0.03125,2.25,-2.6875,551
552,1695772502396,-0.23876953,-0.9378052,0.2921753,0.40625,0.65625,-1.859375,552
553,1695772502436,-0.22363281,-0.98321533,0.28753662,-2.40625,0.015625,-2.015625,553
554,1695772502476,-0.2578125,-0.9458618,0.2880249,-0.875,-0.25,-0.171875,554
555,1695772502516,-0.27905273,-0.9470825,0.30560303,1.3125,1.96875,1.671875,555
556,1695772502556,-0.25683594,-0.9299927,0.27337646,-0.796875,0.390625,-0.609375,556
557,1695772502596,-0.22998047,-0.9680786,0.30584717,-2.46875,0.21875,-1.640625,557
558,1695772502636,-0.2397461,-0.9639282,0.28826904,-2.796875,0.234375,0.171875,558
559,1695772502676,-0.25219727,-0.92926025,0.29974365,-0.390625,-0.46875,1.171875,559
560,1695772502716,-0.2524414,-0.956604,0.30950928,0.453125,0.328125,-0.78125,560
561,1695772502756,-0.27172852,-0.9439087,0.27801514,-1.75,-1.578125,0.046875,561
562,1695772502796,-0.2680664,-0.9365845,0.29534912,-0.359375,0.421875,-0.765625,562
563,1695772502836,-0.2722168,-0.95880127,0.29925537,1.15625,1.484375,2.578125,563
564,1695772502876,-0.22631836,-0.94195557,0.2909546,0.296875,1.921875,1.0625,564
565,1695772502916,-0.22607422,-0.9673462,0.28167725,-0.078125,-0.984375,-1.0625,565
566,1695772502956,-0.25146484,-0.9326782,0.28631592,-0.03125,0.03125,-1.125,566
567,1695772502996,-0.25439453,-0.94976807,0.28704834,0.0625,-0.078125,-2.25,567
568,1695772503036,-0.26367188,-0.95391846,0.2970581,0.390625,0.328125,-0.375,568
569,1695772503076,-0.26733398,-0.95196533,0.3012085,-0.984375,0.109375,0.734375,569
570,1695772503116,-0.25634766,-0.9446411,0.29534912,-1.21875,-0.40625,-2.046875,570
571,1695772503156,-0.23706055,-0.9534302,0.27337646,0.34375,0.78125,0.1875,571
572,1695772503196,-0.25610352,-0.93536377,0.29730225,1.484375,1.046875,0.796875,572
573,1695772503236,-0.25341797,-0.9470825,0.2711792,-1.484375,1.0625,-2.203125,573
574,1695772503276,-0.24389648,-0.9661255,0.30096436,-2.890625,0.328125,-3.578125,574
575,1695772503316,-0.24902344,-0.9492798,0.29730225,0.109375,1.328125,0.265625,575
576,1695772503356,-0.25341797,-0.9505005,0.2814331,-0.46875,1.265625,0.0625,576
577,1695772503396,-0.27075195,-0.9199829,0.29364014,1.671875,-0.640625,-1.5625,577
578,1695772503436,-0.2487793,-0.960022,0.28411865,-0.078125,1.484375,-2.28125,578
579,1695772503476,-0.2644043,-0.9546509,0.29315186,1.28125,0.109375,3.0,579
580,1695772503516,-0.27856445,-0.95196533,0.2850952,-0.46875,0.765625,2.65625,580
581,1695772503556,-0.27124023,-0.9541626,0.28240967,0.90625,1.15625,3.484375,581
582,1695772503596,-0.22436523,-0.91729736,0.26800537,-0.078125,2.5625,-1.046875,582
583,1695772503636,-0.21264648,-0.9793091,0.28533936,-2.34375,0.34375,-4.515625,583
584,1695772503676,-0.25561523,-0.9500122,0.28900146,0.609375,-0.421875,-0.328125,584
585,1695772503716,-0.2619629,-0.9397583,0.2897339,-1.78125,0.921875,-3.46875,585
586,1695772503756,-0.26049805,-0.94073486,0.2855835,-1.109375,0.015625,-3.4375,586
587,1695772503796,-0.24145508,-0.9553833,0.27142334,-4.140625,1.921875,-6.65625,587
588,1695772503836,-0.25048828,-0.9976196,0.32855225,-8.46875,0.484375,-3.96875,588
589,1695772503876,-0.2919922,-0.9290161,0.30291748,-7.46875,-5.953125,-1.25,589
590,1695772503916,-0.30932617,-0.9673462,0.32269287,-5.046875,0.375,2.375,590
591,1695772503956,-0.28222656,-0.92510986,0.2584839,3.078125,-0.125,3.625,591
592,1695772503996,-0.3005371,-0.9209595,0.28070068,11.9375,5.078125,5.0625,592
593,1695772504036,-0.27368164,-0.9492798,0.31756592,7.3125,5.703125,4.078125,593
594,1695772504076,-0.21508789,-0.92144775,0.21307373,-1.6875,0.5625,-4.484375,594
595,1695772504116,-0.24194336,-0.97442627,0.29559326,-0.390625,-1.78125,-1.75,595
596,1695772504156,-0.27416992,-0.95391846,0.27288818,0.3125,-0.125,1.1875,596
597,1695772504196,-0.2607422,-0.94976807,0.26727295,-2.390625,0.96875,-1.890625,597
598,1695772504236,-0.2644043,-0.97320557,0.27923584,-2.109375,-0.6875,-0.046875,598
599,1695772504276,-0.2397461,-0.9326782,0.28948975,-0.625,-0.15625,0.9375,599
600,1695772504316,-0.25146484,-0.95635986,0.27069092,-2.984375,-2.609375,-2.109375,600
601,1695772504356,-0.265625,-0.92755127,0.27386475,-3.75,-2.890625,-2.734375,601
602,1695772504396,-0.2783203,-0.96466064,0.28607178,-1.53125,-1.125,-1.03125,602
603,1695772504436,-0.27490234,-0.925354,0.28216553,-0.953125,-0.921875,-1.75,603
604,1695772504476,-0.27246094,-0.9524536,0.27996826,-1.921875,-0.078125,-2.59375,604
605,1695772504516,-0.26464844,-0.93829346,0.31097412,1.609375,-1.78125,1.90625,605
606,1695772504556,-0.25585938,-0.94073486,0.28411865,-1.578125,-0.625,-0.21875,606
607,1695772504596,-0.2783203,-0.96173096,0.29681396,-1.1875,-3.203125,0.3125,607
608,1695772504636,-0.2705078,-0.91607666,0.3156128,1.921875,-0.765625,0.8125,608
609,1695772504676,-0.24243164,-0.9956665,0.28631592,-0.703125,1.953125,0.171875,609
610,1695772504716,-0.26367188,-0.9529419,0.30194092,2.296875,0.0,3.703125,610
611,1695772504756,-0.25878906,-0.92926025,0.30560303,0.8125,6.703125,-0.03125,611
612,1695772504796,-0.22924805,-0.94317627,0.2164917,2.015625,-7.125,0.75,612
613,1695772504836,-0.27294922,-0.9216919,0.31610107,6.609375,-7.828125,5.390625,613
614,1695772504876,-0.26660156,-0.9348755,0.21868896,-4.90625,-2.890625,-1.078125,614
615,1695772504916,-0.26220703,-0.96099854,0.2855835,-4.859375,-4.671875,-0.34375,615
616,1695772504956,-0.27075195,-0.9480591,0.27972412,-2.296875,-2.640625,-4.265625,616
617,1695772504996,-0.25170898,-0.9636841,0.2987671,1.515625,-0.640625,-0.484375,617
618,1695772505036,-0.25854492,-0.9216919,0.2514038,-4.203125,-2.28125,2.125,618
619,1695772505076,-0.25390625,-0.94854736,0.2670288,1.328125,-2.046875,1.578125,619
620,1695772505116,-0.27856445,-0.9746704,0.28729248,-0.96875,-2.765625,0.84375,620
621,1695772505156,-0.26049805,-0.9561157,0.26019287,-5.90625,-3.953125,-2.0,621
622,1695772505196,-0.26391602,-0.96343994,0.27972412,0.21875,-2.375,0.171875,622
623,1695772505236,-0.27661133,-0.96539307,0.28704834,-0.203125,-0.25,5.0625,623
624,1695772505276,-0.27807617,-0.92071533,0.246521,-3.234375,-0.421875,2.609375,624
625,1695772505316,-0.28637695,-0.94903564,0.293396,-1.5625,0.96875,1.421875,625
626,1695772505356,-0.26367188,-0.93292236,0.29901123,0.296875,3.0,1.3125,626
627,1695772505396,-0.26171875,-0.9793091,0.27020264,-3.203125,3.234375,0.03125,627
628,1695772505436,-0.25830078,-0.9524536,0.2819214,0.796875,6.78125,3.78125,628
629,1695772505476,-0.24316406,-0.96588135,0.30096436,-2.34375,10.453125,6.28125,629
630,1695772505516,-0.21533203,-0.92315674,0.28070068,-0.171875,7.640625,7.546875,630
631,1695772505556,-0.19897461,-0.94195557,0.35076904,3.171875,6.140625,8.671875,631
632,1695772505596,-0.13110352,-0.913147,0.28460693,-1.578125,0.875,-1.203125,632
633,1695772505636,-0.19580078,-1.0276489,0.322937,-1.3125,-6.359375,-5.125,633
634,1695772505676,-0.2590332,-0.9290161,0.31121826,2.125,0.75,0.484375,634
635,1695772505716,-0.23730469,-0.9343872,0.25408936,-2.328125,3.9375,-1.734375,635
636,1695772505756,-0.19140625,-0.987854,0.27825928,3.65625,0.953125,2.3125,636
637,1695772505796,-0.19238281,-0.97784424,0.28582764,-1.84375,-0.90625,-0.296875,637
638,1695772505836,-0.20214844,-0.9483032,0.2748413,-1.25,0.9375,-3.421875,638
639,1695772505876,-0.2524414,-0.9546509,0.27679443,-0.40625,1.28125,-1.390625,639
640,1695772505916,-0.2487793,-0.9295044,0.276062,1.796875,1.96875,-2.8125,640
641,1695772505956,-0.25,-0.97540283,0.29852295,-0.4375,5.21875,-2.28125,641
642,1695772505996,-0.22363281,-0.9517212,0.25726318,-2.21875,3.765625,-2.46875,642
643,1695772506036,-0.2355957,-0.96295166,0.29364014,-3.015625,2.953125,-0.75,643
644,1695772506076,-0.21557617,-0.9483032,0.2904663,0.71875,5.421875,0.984375,644
645,1695772506116,-0.21826172,-0.9378052,0.2850952,1.3125,4.09375,2.46875,645
646,1695772506156,-0.22021484,-0.94610596,0.2880249,-4.75,2.1875,-3.75,646
647,1695772506196,-0.2175293,-0.9463501,0.3012085,-1.8125,0.109375,-5.0,647
648,1695772506236,-0.2199707,-0.9656372,0.30169678,0.609375,1.484375,-2.984375,648
649,1695772506276,-0.21191406,-0.9644165,0.28411865,-0.90625,0.203125,-2.125,649
650,1695772506316,-0.25195312,-0.9483032,0.29071045,0.6875,-0.625,0.84375,650
651,1695772506356,-0.24047852,-0.9356079,0.28045654,-1.28125,-0.015625,0.578125,651
652,1695772506396,-0.21362305,-0.94903564,0.28704834,-2.6875,-0.203125,-2.859375,652
653,1695772506436,-0.2253418,-0.96832275,0.30023193,-0.671875,-0.84375,-1.75,653
654,1695772506476,-0.22680664,-0.9492798,0.28656006,-0.203125,-1.0625,0.578125,654
655,1695772506516,-0.25878906,-0.954895,0.29681396,-1.734375,-1.3125,-0.015625,655
656,1695772506556,-0.26171875,-0.94122314,0.29071045,1.546875,0.625,0.71875,656
657,1695772506596,-0.26171875,-0.960022,0.30584717,-0.984375,0.9375,2.15625,657
658,1695772506636,-0.22338867,-0.9378052,0.29608154,0.34375,2.46875,1.84375,658
659,1695772506676,-0.20751953,-0.9500122,0.2892456,0.578125,-0.328125,0.171875,659
660,1695772506716,-0.2133789,-0.93878174,0.2838745,-1.65625,-0.765625,0.6875,660
661,1695772506756,-0.20727539,-0.97003174,0.27850342,1.09375,-0.4375,0.84375,661
662,1695772506796,-0.21850586,-0.9505005,0.29656982,-0.484375,-1.828125,0.6875,662
663,1695772506836,-0.22753906,-0.94903564,0.28656006,-0.46875,-0.90625,-0.1875,663
664,1695772506876,-0.22851562,-0.9651489,0.29364014,-1.109375,-0.484375,-0.625,664
665,1695772506916,-0.21044922,-0.9414673,0.2970581,1.421875,0.640625,1.328125,665
666,1695772506956,-0.22338867,-0.97247314,0.2909546,-1.53125,-1.625,0.5625,666
667,1695772506996,-0.21850586,-0.95318604,0.2975464,0.0,-1.1875,1.640625,667
668,1695772507036,-0.2331543,-0.92144775,0.27508545,-3.21875,-0.921875,1.46875,668
669,1695772507076,-0.19726562,-0.9536743,0.32659912,3.296875,1.75,0.625,669
670,1695772507116,-0.19433594,-0.97198486,0.2946167,2.609375,-0.296875,-1.765625,670
671,1695772507156,-0.19165039,-0.9932251,0.28094482,-2.6875,-3.0625,-3.765625,671
672,1695772507196,-0.20385742,-0.94317627,0.27752686,-1.703125,-4.53125,-3.921875,672
673,1695772507236,-0.24633789,-0.94073486,0.26849365,0.40625,-3.609375,-1.6875,673
674,1695772507276,-0.25634766,-0.94488525,0.29144287,2.953125,-0.328125,-1.59375,674
675,1695772507316,-0.24023438,-0.9522095,0.2831421,0.8125,0.5,-2.046875,675
676,1695772507356,-0.23120117,-0.954895,0.26776123,-1.21875,-0.796875,-5.25,676
677,1695772507396,-0.2631836,-0.9841919,0.29022217,1.03125,0.578125,0.359375,677
678,1695772507436,-0.2578125,-0.93951416,0.24578857,-0.71875,1.125,-1.046875,678
679,1695772507476,-0.24584961,-0.9573364,0.2584839,-1.84375,1.125,-2.3125,679
680,1695772507516,-0.25634766,-0.9685669,0.27215576,-0.140625,2.484375,-0.734375,680
681,1695772507556,-0.24658203,-0.96099854,0.26507568,0.328125,3.1875,0.09375,681
682,1695772507596,-0.24658203,-0.9483032,0.26409912,-0.78125,2.59375,-0.921875,682
683,1695772507636,-0.25146484,-0.9817505,0.2723999,0.3125,1.625,1.046875,683
684,1695772507676,-0.2331543,-0.92755127,0.2609253,0.453125,2.375,-0.171875,684
685,1695772507716,-0.2548828,-0.98883057,0.2579956,-3.03125,-0.34375,-0.328125,685
686,1695772507756,-0.25073242,-0.94366455,0.2609253,-1.40625,4.21875,1.09375,686
687,1695772507796,-0.25048828,-0.98809814,0.2645874,-2.015625,4.421875,0.75,687
688,1695772507836,-0.23242188,-0.96417236,0.2616577,-5.0625,0.890625,-2.21875,688
689,1695772507876,-0.24584961,-0.98394775,0.29388428,-6.0,2.28125,-1.453125,689
690,1695772507916,-0.22705078,-0.96173096,0.27972412,-3.4375,2.078125,4.0,690
691,1695772507956,-0.22192383,-0.9351196,0.28778076,-6.984375,1.234375,-0.3125,691
692,1695772507996,-0.22827148,-0.94195557,0.32611084,1.09375,2.765625,2.421875,692
693,1695772508036,-0.23486328,-0.9077759,0.3053589,-6.578125,0.03125,-5.265625,693
694,1695772508076,-0.25463867,-0.9714966,0.32269287,0.40625,2.453125,1.640625,694
695,1695772508116,-0.2133789,-0.8960571,0.307312,-1.1875,-0.71875,-0.1875,695
696,1695772508156,-0.20483398,-0.96832275,0.30999756,-2.03125,0.03125,-1.640625,696
697,1695772508196,-0.2607422,-0.97125244,0.32025146,0.328125,-2.609375,2.171875,697
698,1695772508236,-0.23364258,-0.92437744,0.29925537,-2.390625,-0.078125,-0.90625,698
699,1695772508276,-0.22216797,-0.9434204,0.30462646,0.0,1.25,-2.15625,699
700,1695772508316,-0.21264648,-0.93756104,0.3168335,2.828125,-0.640625,-1.8125,700
701,1695772508356,-0.2163086,-0.96588135,0.31610107,0.15625,-0.15625,0.328125,701
702,1695772508396,-0.22973633,-0.91851807,0.29364014,-0.40625,-4.15625,-2.125,702
703,1695772508436,-0.28393555,-0.9824829,0.34881592,0.25,-1.828125,0.4375,703
704,1695772508476,-0.28466797,-0.9146118,0.32977295,5.15625,1.078125,5.125,704
705,1695772508516,-0.25805664,-0.9312134,0.29241943,2.609375,3.640625,1.921875,705
706,1695772508556,-0.21850586,-0.9312134,0.27581787,3.015625,3.96875,-4.34375,706
707,1695772508596,-0.19873047,-0.9883423,0.2929077,2.453125,2.53125,-7.1875,707
708,1695772508636,-0.20703125,-0.972229,0.26409912,0.015625,0.28125,-7.40625,708
709,1695772508676,-0.24829102,-0.95928955,0.27264404,-1.75,-2.265625,-3.484375,709
710,1695772508716,-0.27294922,-0.94244385,0.26654053,1.25,-0.734375,-0.46875,710
711,1695772508756,-0.27197266,-0.96417236,0.27215576,-0.84375,-0.953125,-1.359375,711
712,1695772508796,-0.24487305,-0.9607544,0.25579834,-2.09375,-1.078125,-1.109375,712
713,1695772508836,-0.23217773,-0.975647,0.27996826,-1.359375,-1.6875,1.609375,713
714,1695772508876,-0.2763672,-0.956604,0.28045654,-1.1875,-1.375,6.375,714
715,1695772508916,-0.25341797,-0.94244385,0.26531982,-2.234375,-2.140625,3.53125,715
716,1695772508956,-0.26513672,-0.9480591,0.27459717,-3.859375,-1.421875,0.359375,716
717,1695772508996,-0.2578125,-0.9495239,0.27264404,-2.96875,-0.375,0.453125,717
718,1695772509036,-0.22485352,-0.95269775,0.29388428,-3.515625,0.453125,0.140625,718
719,1695772509076,-0.23754883,-0.94854736,0.2970581,-0.578125,-0.21875,1.859375,719
720,1695772509116,-0.27075195,-0.944397,0.29559326,-3.078125,-0.140625,1.0,720
721,1695772509156,-0.24975586,-0.9331665,0.2982788,-0.578125,0.15625,0.0625,721
722,1695772509196,-0.234375,-0.9446411,0.29388428,-2.390625,1.265625,-0.890625,722
723,1695772509236,-0.24267578,-0.96343994,0.30975342,-1.078125,0.90625,1.390625,723
724,1695772509276,-0.22998047,-0.9397583,0.2982788,-0.390625,1.609375,0.890625,724
725,1695772509316,-0.22949219,-0.9463501,0.293396,-1.765625,1.0625,1.5,725
726,1695772509356,-0.24536133,-0.9446411,0.31048584,1.1875,1.40625,1.265625,726
727,1695772509396,-0.2355957,-0.956604,0.30877686,-0.640625,2.015625,0.390625,727
728,1695772509436,-0.23095703,-0.9331665,0.30682373,1.09375,2.125,-0.4375,728
729,1695772509476,-0.21313477,-0.93829346,0.27947998,0.578125,1.078125,-2.40625,729
730,1695772509516,-0.1940918,-0.96710205,0.3078003,0.625,0.78125,-4.8125,730
731,1695772509556,-0.23754883,-0.9546509,0.29974365,1.28125,-1.375,1.859375,731
732,1695772509596,-0.2541504,-0.9505005,0.29559326,-0.890625,-1.328125,2.203125,732
733,1695772509636,-0.26098633,-0.9463501,0.2831421,-0.34375,-0.203125,3.875,733
734,1695772509676,-0.24194336,-0.93756104,0.322937,3.59375,3.5625,5.453125,734
735,1695772509716,-0.22338867,-0.9529419,0.30438232,6.578125,5.796875,5.703125,735
736,1695772509756,-0.21386719,-0.91900635,0.27459717,1.265625,3.25,-3.796875,736
737,1695772509796,-0.21679688,-0.99591064,0.29266357,0.046875,1.71875,-9.703125,737
738,1695772509836,-0.23730469,-0.9585571,0.2538452,-2.359375,1.578125,-10.09375,738
739,1695772509876,-0.20874023,-0.9841919,0.26483154,-1.0625,2.59375,-6.28125,739
740,1695772509916,-0.21826172,-0.9783325,0.25823975,-0.1875,0.671875,-0.328125,740
741,1695772509956,-0.25195312,-0.93585205,0.26190186,-2.046875,1.421875,-1.0625,741
742,1695772509996,-0.21826172,-0.9402466,0.2658081,-2.703125,-0.484375,-3.8125,742
743,1695772510036,-0.22290039,-0.975647,0.26409912,-2.6875,-3.28125,-0.109375,743
744,1695772510076,-0.21801758,-0.97198486,0.2765503,-2.421875,-3.921875,1.0625,744
745,1695772510116,-0.25341797,-0.9805298,0.27923584,-1.921875,-4.125,5.984375,745
746,1695772510156,-0.26831055,-0.92071533,0.28411865,1.25,-2.015625,7.09375,746
747,1695772510196,-0.23046875,-0.9194946,0.2255249,-4.046875,-2.03125,0.9375,747
748,1695772510236,-0.22021484,-0.93536377,0.3139038,-2.28125,-3.140625,-3.078125,748
749,1695772510276,-0.24926758,-0.9859009,0.31829834,-2.921875,-3.328125,-1.296875,749
750,1695772510316,-0.2692871,-0.9558716,0.2987671,-0.21875,-0.484375,-0.875,750
751,1695772510356,-0.25097656,-0.9768677,0.31878662,-3.015625,-0.03125,-0.453125,751
752,1695772510396,-0.28198242,-0.91729736,0.29559326,-1.0,-6.703125,0.0625,752
753,1695772510436,-0.29370117,-0.9480591,0.2982788,3.5625,0.25,6.953125,753
754,1695772510476,-0.23291016,-0.91900635,0.2670288,2.40625,9.46875,-2.25,754
755,1695772510516,-0.2446289,-0.9915161,0.27996826,2.125,5.359375,3.0625,755
756,1695772510556,-0.17211914,-0.9517212,0.27313232,2.953125,3.984375,1.453125,756
757,1695772510596,-0.22021484,-0.9492798,0.27288818,-3.140625,0.609375,-0.15625,757
758,1695772510636,-0.19238281,-0.96539307,0.27264404,1.203125,0.09375,0.984375,758
759,1695772510676,-0.2163086,-0.91900635,0.2741089,2.328125,1.359375,2.0625,759
