,timestamp,accel_x,accel_y,accel_z,gyro_x,gyro_y,gyro_z,ind
0,1696168056358,0.08666992,-1.1604614,0.12567139,16.703125,-13.921875,7.828125,0
1,1696168056398,0.36328125,-1.5549927,-0.030090332,9.15625,-27.734375,20.5625,1
2,1696168056438,0.26757812,-1.0408325,0.262146,-36.359375,-0.53125,3.6875,2
3,1696168056478,-0.24121094,-0.79644775,0.2658081,6.015625,12.015625,-17.984375,3
4,1696168056518,-0.13061523,-0.9788208,0.13226318,6.203125,-7.65625,-5.84375,4
5,1696168056558,0.27246094,-1.3076782,-0.08770752,13.09375,-18.21875,23.65625,5
6,1696168056598,0.15917969,-1.2251587,0.24334717,-12.984375,14.875,-12.21875,6
7,1696168056638,-0.15307617,-0.9534302,0.27679443,-10.796875,13.484375,-8.875,7
8,1696168056678,-0.048339844,-0.92681885,0.10394287,5.296875,-0.59375,4.28125,8
9,1696168056718,0.12158203,-0.95806885,0.13250732,0.296875,10.515625,1.671875,9
10,1696168056758,0.16552734,-0.894104,0.15081787,-6.9375,9.859375,1.671875,10
11,1696168056798,0.09301758,-0.83599854,0.19573975,-7.078125,-1.25,0.296875,11
12,1696168056838,0.021728516,-0.7971802,0.14813232,-3.359375,-6.28125,0.984375,12
13,1696168056878,0.017822266,-0.8364868,0.10003662,-4.96875,-11.03125,4.609375,13
14,1696168056918,0.072021484,-0.83380127,0.24359131,-13.359375,-11.46875,1.484375,14
15,1696168056958,-0.06542969,-0.80792236,0.2567749,-2.8125,-8.6875,-3.046875,15
16,1696168056998,-0.107666016,-1.0308228,0.16326904,1.625,-18.390625,1.734375,16
17,1696168057038,-0.057373047,-1.0776978,0.24432373,-16.171875,-12.875,8.59375,17
18,1696168057078,-0.020019531,-0.94903564,0.3270874,5.328125,4.890625,4.546875,18
19,1696168057118,-0.014160156,-1.0535278,0.28875732,-16.0,-5.890625,1.421875,19
20,1696168057158,-0.1171875,-0.8284302,0.26727295,5.421875,9.359375,0.515625,20
21,1696168057198,-0.10986328,-0.8430786,0.23309326,0.5,1.765625,3.828125,21
22,1696168057238,0.28588867,-1.3418579,0.17376709,7.46875,-15.140625,6.203125,22
23,1696168057278,0.3918457,-1.3181763,0.4088745,-13.109375,25.515625,-6.78125,23
24,1696168057318,0.36157227,-0.9517212,0.23944092,6.375,17.75,6.984375,24
25,1696168057358,0.36914062,-1.2866821,0.184021,-18.046875,-3.953125,-2.859375,25
26,1696168057398,0.16259766,-0.9326782,0.60272217,-4.140625,11.5625,-9.1875,26
27,1696168057438,0.037597656,-1.0166626,0.20526123,15.140625,3.90625,5.875,27
28,1696168057478,0.21362305,-0.9024048,0.15863037,-7.8125,-0.03125,0.765625,28
29,1696168057518,0.28442383,-0.78863525,0.35003662,-5.53125,10.125,2.40625,29
30,1696168057558,0.23095703,-0.74005127,0.37835693,4.296875,-10.203125,3.1875,30
31,1696168057598,0.106933594,-0.80792236,0.24822998,4.6875,-7.5,-2.75,31
32,1696168057638,-0.02758789,-0.8562622,0.2645874,1.484375,4.640625,-6.046875,32
33,1696168057678,-0.009765625,-0.74713135,0.34906006,-1.703125,0.8125,-4.875,33
34,1696168057718,0.0847168,-0.75616455,0.30145264,5.625,-1.234375,-13.234375,34
35,1696168057758,0.1274414,-0.8233032,0.30877686,6.328125,-3.9375,-12.34375,35
36,1696168057798,0.21826172,-0.95391846,0.385437,11.578125,-7.171875,4.09375,36
37,1696168057838,0.23950195,-1.2278442,0.3270874,-4.890625,-16.1875,-10.015625,37
38,1696168057878,-0.16186523,-0.8755493,0.24725342,-0.78125,14.34375,-7.578125,38
39,1696168057918,0.013183594,-0.93707275,0.2711792,8.734375,-1.328125,6.546875,39
40,1696168057958,0.2590332,-1.020813,0.46453857,-10.640625,-4.96875,-6.4375,40
41,1696168057998,0.12109375,-0.8682251,0.4130249,1.734375,-2.609375,1.9375,41
42,1696168058038,0.1328125,-0.93951416,0.18328857,4.078125,-12.4375,2.71875,42
43,1696168058078,0.0021972656,-1.302063,0.078552246,20.09375,-15.34375,4.375,43
44,1696168058118,0.37060547,-1.300354,0.27435303,-3.359375,-15.390625,13.546875,44
45,1696168058158,-0.111328125,-1.0610962,0.20379639,6.515625,12.296875,-5.03125,45
46,1696168058198,-0.011962891,-1.1050415,0.24578857,-4.203125,-12.203125,-2.671875,46
47,1696168058238,-0.04711914,-1.0264282,0.1762085,4.25,9.765625,-8.953125,47
48,1696168058278,0.052734375,-1.0916138,0.10321045,-0.078125,-1.640625,-1.171875,48
49,1696168058318,0.17919922,-0.8909302,0.02532959,-4.0625,8.984375,-0.265625,49
50,1696168058358,0.072753906,-0.8953247,0.21600342,8.296875,11.140625,-8.90625,50
51,1696168058398,0.021728516,-1.0984497,0.13543701,0.953125,1.5625,-2.765625,51
52,1696168058438,0.08203125,-0.9602661,0.12908936,-2.421875,-5.65625,1.96875,52
53,1696168058478,0.033203125,-0.86016846,0.19671631,-7.171875,10.640625,-8.5625,53
54,1696168058518,-0.008544922,-0.76812744,0.20159912,-4.875,1.875,-2.953125,54
55,1696168058558,-0.053710938,-0.78692627,0.18939209,2.1875,-1.578125,1.78125,55
56,1696168058598,0.020019531,-0.86138916,0.12200928,-10.46875,-14.921875,4.34375,56
57,1696168058638,0.0029296875,-0.78375244,0.20501709,-11.390625,-7.28125,0.890625,57
58,1696168058678,-0.055419922,-0.66192627,0.31195068,-12.6875,-5.515625,-7.828125,58
59,1696168058718,-0.2084961,-0.923645,0.31048584,6.75,-3.484375,0.34375,59
60,1696168058758,-0.12036133,-1.2249146,0.21502686,0.15625,-7.59375,13.375,60
61,1696168058798,0.029785156,-1.1431274,0.35028076,-20.65625,2.65625,-4.640625,61
62,1696168058838,-0.072753906,-0.8831177,0.39227295,-8.828125,15.109375,-5.625,62
63,1696168058878,-0.025878906,-1.0447388,0.16448975,6.0625,-6.125,7.21875,63
64,1696168058918,0.06225586,-1.3604126,0.26678467,18.484375,2.140625,5.875,64
65,1696168058958,0.25048828,-1.1043091,0.48919678,-19.46875,15.5,0.96875,65
66,1696168058998,0.21191406,-0.940979,0.078063965,10.6875,0.28125,8.09375,66
67,1696168059038,0.2553711,-1.0720825,0.04071045,3.1875,-14.59375,10.984375,67
68,1696168059078,0.35009766,-1.1157837,0.4623413,0.109375,-5.609375,5.796875,68
69,1696168059118,0.04663086,-1.0762329,0.3776245,-0.625,-9.71875,0.546875,69
70,1696168059158,-0.052734375,-1.0791626,0.047302246,10.015625,-4.296875,5.78125,70
71,1696168059198,0.111083984,-0.9224243,0.23822021,-13.484375,1.1875,6.953125,71
72,1696168059238,0.18359375,-0.8220825,0.32537842,11.515625,3.15625,8.609375,72
73,1696168059278,0.095214844,-0.7642212,0.22698975,-3.453125,7.34375,0.96875,73
74,1696168059318,0.040283203,-0.69659424,0.21282959,-0.5625,8.140625,-2.5625,74
75,1696168059358,0.00048828125,-0.7564087,0.24261475,-1.84375,5.609375,-6.328125,75
76,1696168059398,0.037353516,-0.6782837,0.3217163,-6.890625,13.15625,-9.296875,76
77,1696168059438,0.087402344,-0.77471924,0.27679443,0.25,9.453125,-10.953125,77
78,1696168059478,0.04638672,-1.1033325,0.29901123,11.390625,6.390625,-15.484375,78
79,1696168059518,0.119384766,-1.1863403,0.4076538,-5.8125,8.328125,-7.140625,79
80,1696168059558,0.20141602,-0.88897705,0.40838623,-7.140625,11.25,0.28125,80
81,1696168059598,0.17480469,-1.0374146,0.3287964,5.609375,2.125,-11.0625,81
82,1696168059638,0.088378906,-1.0396118,0.38201904,7.9375,3.421875,-0.046875,82
83,1696168059678,0.1472168,-1.2175903,0.26507568,-0.515625,-7.453125,-1.140625,83
84,1696168059718,0.13232422,-1.1008911,0.1906128,5.46875,-8.484375,5.28125,84
85,1696168059758,0.1743164,-1.0029907,0.21746826,-1.34375,2.171875,-0.28125,85
86,1696168059798,-0.24560547,-1.1533813,0.22283936,14.8125,10.265625,-13.453125,86
87,1696168059838,0.12011719,-1.1502075,0.042175293,-3.3125,-25.515625,6.4375,87
88,1696168059878,0.19946289,-0.90045166,0.124938965,9.375,18.65625,6.046875,88
89,1696168059918,-0.051757812,-0.81134033,0.3546753,-19.59375,6.78125,-14.875,89
90,1696168059958,-0.17700195,-1.1489868,0.1708374,7.296875,1.703125,-7.84375,90
91,1696168059998,0.010009766,-1.1170044,0.042175293,4.0625,-8.28125,10.0625,91
92,1696168060038,0.12231445,-0.96539307,0.15032959,-1.78125,18.90625,3.6875,92
93,1696168060078,0.07470703,-0.82159424,0.2526245,-16.03125,10.796875,-2.828125,93
94,1696168060118,0.05493164,-0.71051025,0.17645264,1.03125,-4.296875,5.375,94
95,1696168060158,0.0637207,-0.69195557,0.06707764,-9.734375,-13.5625,6.0625,95
96,1696168060198,-0.012939453,-0.91363525,0.10687256,-10.140625,-19.28125,4.640625,96
97,1696168060238,0.009033203,-0.8513794,0.27264404,-12.5,-10.015625,-0.09375,97
98,1696168060278,-0.21484375,-0.67974854,0.33099365,-11.546875,3.671875,1.609375,98
99,1696168060318,-0.15234375,-1.1060181,0.23797607,8.609375,-1.625,8.21875,99
100,1696168060358,0.18310547,-1.2693481,0.13787842,5.734375,-14.40625,10.6875,100
101,1696168060398,0.11401367,-1.0049438,0.52508545,-19.609375,12.03125,3.03125,101
102,1696168060438,-0.17651367,-1.017395,0.33270264,5.015625,10.71875,2.03125,102
103,1696168060478,-0.11352539,-1.0383911,0.23016357,-3.46875,-7.28125,-1.0,103
104,1696168060518,0.2705078,-0.9644165,0.27459717,5.125,-1.390625,5.9375,104
105,1696168060558,0.32104492,-1.2615356,0.29974365,4.140625,6.984375,1.59375,105
106,1696168060598,0.16845703,-0.677063,0.25360107,-10.5625,14.578125,1.5625,106
107,1696168060638,0.14013672,-1.2012329,0.09442139,15.328125,4.453125,2.78125,107
108,1696168060678,0.38842773,-1.1939087,0.3053589,-0.875,-6.59375,9.625,108
109,1696168060718,0.35839844,-1.0488892,0.35980225,-8.234375,1.34375,1.28125,109
110,1696168060758,-0.052490234,-1.0198364,0.21160889,3.78125,6.453125,-3.140625,110
111,1696168060798,0.052246094,-0.9151001,0.17181396,-3.75,7.703125,4.640625,111
112,1696168060838,0.21606445,-0.7984009,0.25408936,2.296875,-6.59375,3.34375,112
113,1696168060878,0.265625,-0.8623657,0.32318115,-2.09375,6.0,-2.328125,113
114,1696168060918,0.17114258,-0.86602783,0.23651123,-3.84375,8.71875,-4.25,114
115,1696168060958,0.03540039,-0.70391846,0.23724365,-9.65625,7.859375,-10.5,115
116,1696168060998,0.023925781,-0.60650635,0.2765503,-7.109375,2.96875,-8.6875,116
117,1696168061038,0.123535156,-0.8411255,0.31292725,0.96875,-0.84375,-14.0625,117
118,1696168061078,0.06591797,-0.8291626,0.4743042,10.609375,14.375,-8.125,118
119,1696168061118,0.18334961,-0.9663696,0.26068115,0.1875,-1.171875,-4.59375,119
120,1696168061158,0.09863281,-1.0064087,0.23187256,7.984375,-5.046875,-14.609375,120
121,1696168061198,0.13110352,-1.130188,0.45599365,6.1875,5.65625,-0.984375,121
122,1696168061238,0.045898438,-1.1121216,0.46868896,-14.09375,1.890625,-7.890625,122
123,1696168061278,-0.030029297,-0.9788208,0.30316162,1.3125,-2.765625,-11.671875,123
124,1696168061318,0.0637207,-0.90826416,0.33099365,-3.3125,1.203125,4.765625,124
125,1696168061358,0.30004883,-1.0918579,0.322937,9.3125,-10.140625,7.140625,125
126,1696168061398,0.2565918,-1.2966919,0.14129639,-13.734375,-11.34375,-9.28125,126
127,1696168061438,-0.171875,-0.7090454,0.06854248,11.734375,9.609375,-9.125,127
128,1696168061478,-0.45092773,-1.5274048,0.036071777,2.15625,10.671875,-1.671875,128
129,1696168061518,0.4350586,-0.8533325,0.14569092,1.875,-32.375,16.109375,129
130,1696168061558,0.15551758,-1.0012817,0.34197998,-22.1875,19.53125,-3.59375,130
131,1696168061598,-0.20776367,-0.82769775,0.31195068,26.703125,34.578125,-14.203125,131
132,1696168061638,-0.21777344,-1.5425415,-0.19024658,6.296875,-20.90625,1.21875,132
133,1696168061678,0.18481445,-0.98516846,0.16888428,-9.03125,11.4375,7.0,133
134,1696168061718,0.12548828,-0.80548096,0.36102295,-8.03125,22.21875,-4.890625,134
135,1696168061758,0.11035156,-0.67755127,0.277771,-12.296875,-6.078125,-0.421875,135
136,1696168061798,0.0871582,-0.5757446,0.15057373,0.09375,-16.15625,12.578125,136
137,1696168061838,-0.03857422,-0.7178345,0.08343506,8.375,-15.59375,8.359375,137
138,1696168061878,0.0107421875,-0.92022705,0.2904663,-0.828125,-22.15625,2.53125,138
139,1696168061918,-0.17504883,-1.1636353,0.2501831,7.390625,-17.875,3.515625,139
140,1696168061958,-0.15185547,-0.93414307,0.3529663,-15.0,-3.171875,3.015625,140
141,1696168061998,0.009277344,-0.9949341,0.3180542,-1.421875,-10.234375,2.484375,141
142,1696168062038,0.026367188,-1.0747681,0.3143921,-6.609375,-0.6875,0.515625,142
143,1696168062078,-0.13842773,-0.9854126,0.25213623,3.375,6.40625,4.453125,143
144,1696168062118,-0.20507812,-1.0899048,0.31072998,3.984375,7.21875,-6.484375,144
145,1696168062158,0.041259766,-0.8760376,0.36663818,6.53125,1.34375,-3.59375,145
146,1696168062198,0.36547852,-1.3630981,0.34051514,1.921875,-7.515625,0.5625,146
147,1696168062238,0.19116211,-1.0147095,0.16741943,-1.6875,17.171875,-3.21875,147
148,1696168062278,0.2578125,-0.9102173,0.12054443,-0.4375,-4.15625,2.328125,148
149,1696168062318,0.26660156,-0.9751587,0.25701904,22.4375,-9.96875,6.828125,149
150,1696168062358,0.091308594,-1.1135864,0.21063232,-2.25,-4.96875,4.234375,150
151,1696168062398,0.09765625,-0.881897,0.20770264,1.59375,-5.109375,5.65625,151
152,1696168062438,0.19018555,-1.0217896,0.20721436,9.265625,-7.171875,6.8125,152
153,1696168062478,0.18115234,-0.9612427,0.2555542,3.921875,-0.125,4.65625,153
154,1696168062518,0.080566406,-0.72857666,0.20111084,-1.3125,4.359375,3.828125,154
155,1696168062558,-0.025878906,-0.69415283,0.14642334,10.953125,2.15625,-1.421875,155
156,1696168062598,0.008056641,-0.74224854,0.23675537,-2.125,7.171875,-6.59375,156
157,1696168062638,0.087646484,-0.86016846,0.28582764,-3.640625,5.625,-11.328125,157
158,1696168062678,0.038085938,-0.85357666,0.2868042,-2.296875,14.703125,-8.125,158
159,1696168062718,0.12573242,-0.83477783,0.2658081,0.765625,8.3125,-1.171875,159
160,1696168062758,0.18017578,-1.1221313,0.26531982,12.203125,3.09375,-10.90625,160
161,1696168062798,0.23730469,-1.2754517,0.40008545,6.546875,0.109375,-5.109375,161
162,1696168062838,0.06274414,-0.9319458,0.37664795,-28.015625,3.59375,1.609375,162
163,1696168062878,0.19897461,-0.9985962,0.28753662,3.953125,-7.421875,-5.75,163
164,1696168062918,-0.03149414,-1.1904907,0.1954956,-8.734375,-7.5625,2.15625,164
165,1696168062958,0.19970703,-1.1055298,0.12249756,-2.9375,-10.984375,5.421875,165
166,1696168062998,0.24609375,-1.4199829,0.02166748,12.421875,-24.109375,5.03125,166
167,1696168063038,0.06640625,-0.98516846,0.21453857,-22.453125,2.859375,-8.375,167
168,1696168063078,-0.22045898,-0.61383057,0.277771,-11.203125,0.40625,-6.125,168
169,1696168063118,-0.049316406,-1.31427,-0.1687622,30.75,-10.46875,-0.671875,169
170,1696168063158,0.19702148,-1.2732544,0.10418701,6.65625,-13.015625,8.96875,170
171,1696168063198,0.049560547,-0.9805298,0.3283081,-28.1875,10.78125,-11.421875,171
172,1696168063238,-0.28344727,-0.91656494,0.28875732,4.5,8.453125,-13.046875,172
173,1696168063278,-0.11376953,-0.97198486,0.05731201,3.09375,-1.78125,2.734375,173
174,1696168063318,0.08276367,-0.8591919,0.078308105,-11.625,4.828125,4.078125,174
175,1696168063358,0.12158203,-0.73565674,0.21990967,-8.203125,5.15625,-1.46875,175
176,1696168063398,-0.033447266,-0.7527466,0.21185303,-2.4375,-5.25,0.671875,176
177,1696168063438,-0.10522461,-0.6668091,0.168396,-5.53125,-5.046875,-4.796875,177
178,1696168063478,-0.20043945,-0.9053345,0.14642334,1.171875,4.328125,-2.328125,178
179,1696168063518,-0.08911133,-1.1521606,0.23480225,-23.765625,-5.71875,4.546875,179
180,1696168063558,0.041748047,-0.9248657,0.3991089,-7.75,2.953125,-0.078125,180
181,1696168063598,0.09472656,-0.940979,0.4862671,-8.8125,2.015625,-1.234375,181
182,1696168063638,-0.05810547,-1.0750122,0.32757568,-0.828125,3.625,-1.75,182
183,1696168063678,-0.16992188,-1.0462036,0.15423584,10.59375,-1.265625,5.625,183
184,1696168063718,-0.041503906,-0.9155884,0.3908081,-16.53125,5.578125,2.4375,184
185,1696168063758,0.029052734,-1.3796997,0.3637085,32.4375,3.40625,3.125,185
186,1696168063798,0.19848633,-1.1338501,0.15692139,-9.34375,14.578125,6.671875,186
187,1696168063838,0.36132812,-0.83135986,0.08441162,6.515625,5.875,17.171875,187
188,1696168063878,0.3466797,-1.0042114,0.26849365,-1.703125,-7.265625,7.359375,188
189,1696168063918,0.19946289,-1.1565552,0.33685303,17.578125,-8.578125,4.015625,189
190,1696168063958,-0.0703125,-1.1887817,0.24188232,-0.5625,-2.40625,3.578125,190
191,1696168063998,-0.07397461,-0.95880127,0.15570068,-12.734375,2.484375,-2.34375,191
192,1696168064038,0.17871094,-0.8635864,0.2592163,11.921875,-4.09375,1.53125,192
193,1696168064078,0.2043457,-0.8875122,0.36541748,0.890625,-4.40625,1.625,193
194,1696168064118,0.06738281,-0.76812744,0.15863037,0.421875,2.96875,-1.46875,194
195,1696168064158,-0.07739258,-0.7671509,0.14031982,3.65625,10.609375,-5.8125,195
196,1696168064198,-0.06518555,-0.62945557,0.29241943,-6.78125,13.609375,-3.53125,196
197,1696168064238,0.16381836,-0.7161255,0.23162842,3.359375,1.859375,-8.40625,197
198,1696168064278,-0.031982422,-0.737854,0.3065796,6.640625,28.46875,-16.421875,198
199,1696168064318,0.26342773,-1.1919556,0.21014404,34.421875,-1.4375,5.046875,199
200,1696168064358,0.15136719,-1.3359985,0.48675537,-15.515625,8.46875,-18.9375,200
201,1696168064398,0.13378906,-1.1135864,0.31097412,8.859375,3.59375,-10.625,201
202,1696168064438,-0.08496094,-0.7991333,0.28070068,-19.875,20.3125,-7.21875,202
203,1696168064478,0.028808594,-0.96710205,0.15203857,14.484375,-4.34375,-5.109375,203
204,1696168064518,0.20874023,-1.2080688,0.22454834,-3.359375,-14.0,5.015625,204
205,1696168064558,0.23608398,-1.170227,0.035827637,-2.640625,-0.375,4.265625,205
206,1696168064598,-0.047851562,-1.3640747,-0.10211182,14.515625,5.84375,-6.296875,206
207,1696168064638,0.079833984,-1.1104126,0.20721436,-12.4375,-17.453125,5.65625,207
208,1696168064678,-0.23144531,-0.86846924,0.26116943,-15.96875,11.296875,-15.765625,208
209,1696168064718,-0.29077148,-1.1968384,0.055114746,16.53125,1.71875,-5.953125,209
210,1696168064758,0.03173828,-1.1392212,0.008483887,10.28125,-2.046875,14.890625,210
211,1696168064798,0.09057617,-0.96710205,0.08074951,-18.4375,14.34375,-6.203125,211
212,1696168064838,0.0024414062,-0.7647095,0.28411865,-3.828125,11.96875,-8.359375,212
213,1696168064878,-0.09008789,-0.9507446,0.097595215,1.40625,-4.015625,1.359375,213
214,1696168064918,0.041992188,-0.77008057,0.032165527,-4.140625,-8.59375,9.84375,214
215,1696168064958,0.13110352,-0.673645,0.15301514,-21.9375,-6.0,4.953125,215
216,1696168064998,-0.11743164,-0.86260986,0.22869873,-1.046875,-16.375,-3.453125,216
217,1696168065038,-0.23803711,-0.96759033,0.2230835,2.84375,-13.65625,5.15625,217
218,1696168065078,-0.07836914,-0.67559814,0.24847412,-6.03125,-4.671875,7.359375,218
219,1696168065118,-0.036865234,-1.1209106,0.2609253,-3.109375,-14.484375,3.046875,219
220,1696168065158,0.012207031,-1.1697388,0.30047607,5.46875,-7.125,6.625,220
221,1696168065198,-0.18920898,-1.1524048,0.25457764,-13.53125,-0.578125,4.625,221
222,1696168065238,-0.07373047,-0.8320923,0.26898193,-4.390625,1.765625,1.703125,222
223,1696168065278,-0.05859375,-1.1096802,0.30975342,7.546875,-1.765625,3.1875,223
224,1696168065318,0.088378906,-1.0784302,0.27386475,-2.765625,-7.078125,-0.046875,224
225,1696168065358,0.052490234,-1.0767212,0.22601318,-6.734375,0.25,4.90625,225
226,1696168065398,0.19165039,-0.9644165,0.124938965,0.84375,1.703125,7.21875,226
227,1696168065438,0.25610352,-0.9890747,0.26385498,-0.484375,1.296875,4.265625,227
228,1696168065478,0.13769531,-1.1533813,0.29559326,4.609375,2.234375,4.671875,228
229,1696168065518,0.068603516,-1.1792603,0.22894287,-7.171875,0.15625,7.90625,229
230,1696168065558,0.14160156,-0.85235596,0.26312256,-15.96875,5.171875,1.234375,230
231,1696168065598,0.19384766,-0.90948486,0.2855835,7.75,-1.171875,3.75,231
232,1696168065638,0.14941406,-0.87286377,0.3053589,6.25,8.875,8.328125,232
233,1696168065678,0.11401367,-0.7329712,0.22357178,-5.421875,4.609375,5.640625,233
234,1696168065718,-0.036132812,-0.6502075,0.13494873,3.75,11.140625,-5.0625,234
235,1696168065758,-0.051513672,-0.7078247,0.26654053,0.625,14.421875,-8.109375,235
236,1696168065798,0.08642578,-0.9717407,0.4100952,-0.0625,11.015625,-14.8125,236
237,1696168065838,0.1328125,-1.0581665,0.2892456,3.875,19.328125,-13.296875,237
238,1696168065878,0.26293945,-0.8892212,0.2753296,-3.953125,15.46875,1.390625,238
239,1696168065918,0.30932617,-1.0518188,0.33319092,15.703125,11.484375,-8.390625,239
240,1696168065958,0.1496582,-1.1506958,0.4225464,-7.375,1.375,-11.265625,240
241,1696168065998,-0.0063476562,-0.9937134,0.28338623,-5.359375,2.546875,-4.546875,241
242,1696168066038,-0.050048828,-0.8154907,0.3480835,-2.375,10.5625,1.1875,242
243,1696168066078,0.19970703,-1.2127075,0.21942139,7.515625,-9.390625,-7.59375,243
244,1696168066118,0.140625,-1.3599243,0.066345215,12.046875,-1.140625,5.03125,244
245,1696168066158,0.41333008,-0.9397583,0.13006592,-17.921875,-15.53125,13.09375,245
246,1696168066198,-0.06933594,-0.6633911,0.29266357,-14.75,-7.875,-11.4375,246
247,1696168066238,-0.41210938,-1.3877563,-0.002746582,30.15625,6.90625,-11.859375,247
248,1696168066278,0.14892578,-1.2805786,-0.13531494,18.03125,-24.28125,29.140625,248
249,1696168066318,0.33935547,-0.960022,0.22943115,-47.390625,2.46875,-0.90625,249
250,1696168066358,0.02734375,-0.7192993,0.3908081,14.375,4.28125,-16.640625,250
251,1696168066398,-0.23779297,-1.354065,-0.047180176,21.015625,-6.71875,3.0625,251
252,1696168066438,-0.045410156,-0.99713135,-0.034240723,-6.78125,-13.671875,11.0,252
253,1696168066478,0.17578125,-0.77008057,0.15960693,-21.109375,6.96875,2.609375,253
254,1696168066518,0.10131836,-0.5640259,0.2946167,4.15625,0.546875,-5.234375,254
255,1696168066558,-0.06347656,-0.67755127,0.11102295,16.28125,-12.96875,0.046875,255
256,1696168066598,0.0014648438,-1.1101685,0.014343262,-14.640625,-23.1875,4.6875,256
257,1696168066638,-0.036865234,-0.8843384,0.3114624,-20.5625,-1.375,-1.59375,257
258,1696168066678,-0.25976562,-0.9182739,0.29315186,-4.359375,-4.3125,-5.0,258
259,1696168066718,-0.26538086,-1.1416626,0.3739624,-1.09375,-1.8125,0.6875,259
260,1696168066758,0.1821289,-1.2329712,0.14935303,-2.140625,-2.53125,7.6875,260
261,1696168066798,0.09277344,-0.833313,0.3012085,-25.265625,10.0625,-11.0,261
262,1696168066838,-0.068115234,-0.9578247,0.38519287,-8.453125,-3.71875,-2.140625,262
263,1696168066878,-0.024902344,-1.3911743,0.2345581,24.546875,-8.640625,7.96875,263
264,1696168066918,0.034179688,-1.211731,0.29437256,-29.9375,8.34375,-4.515625,264
265,1696168066958,0.27319336,-0.65338135,0.20062256,-4.21875,15.5,3.59375,265
266,1696168066998,0.3413086,-0.95880127,0.19647217,8.1875,-3.28125,4.796875,266
267,1696168067038,0.29125977,-1.2102661,0.28607178,15.21875,-4.765625,1.515625,267
268,1696168067078,0.12158203,-1.062561,0.34222412,-12.234375,1.15625,9.25,268
269,1696168067118,0.03955078,-0.9380493,0.15252686,-6.96875,1.03125,-2.5,269
270,1696168067158,0.18481445,-1.0752563,0.21014404,8.609375,-6.1875,0.328125,270
271,1696168067198,0.22509766,-0.925354,0.3908081,-4.5,3.046875,11.015625,271
272,1696168067238,0.21850586,-0.76397705,0.2140503,1.53125,-1.0,1.859375,272
273,1696168067278,-0.009277344,-0.6865845,0.14544678,2.75,9.53125,-6.65625,273
274,1696168067318,0.001953125,-0.6296997,0.215271,2.234375,1.875,0.453125,274
275,1696168067358,0.14135742,-0.7136841,0.34100342,-4.765625,-11.40625,-1.984375,275
276,1696168067398,0.0703125,-0.862854,0.35247803,6.765625,6.375,-9.359375,276
277,1696168067438,0.11450195,-1.1433716,0.29779053,9.640625,-1.828125,-8.53125,277
278,1696168067478,0.05883789,-1.1848755,0.41278076,-3.546875,2.046875,-12.203125,278
279,1696168067518,0.13208008,-0.9668579,0.38031006,-5.1875,2.015625,-3.25,279
280,1696168067558,0.15136719,-0.96881104,0.30975342,-7.265625,0.625,-7.21875,280
281,1696168067598,-0.007080078,-0.9639282,0.3788452,2.078125,7.078125,-7.359375,281
282,1696168067638,0.010498047,-0.9578247,0.2975464,-2.578125,0.296875,-1.953125,282
283,1696168067678,0.17675781,-0.95635986,0.199646,0.109375,-8.515625,3.96875,283
284,1696168067718,0.3017578,-1.3526001,0.20062256,11.046875,-15.671875,-0.046875,284
285,1696168067758,0.1015625,-1.1140747,0.24261475,-7.328125,-0.703125,-1.046875,285
286,1696168067798,-0.07324219,-0.9907837,0.24066162,-13.953125,-9.171875,-2.734375,286
287,1696168067838,-0.1784668,-0.8838501,0.14788818,13.578125,1.6875,-5.9375,287
288,1696168067878,-0.01586914,-1.1882935,0.16448975,1.84375,-6.859375,9.59375,288
289,1696168067918,0.15136719,-1.0628052,0.2267456,-1.96875,5.375,-4.75,289
290,1696168067958,0.021484375,-0.9776001,0.22161865,-4.3125,2.234375,-7.234375,290
291,1696168067998,-0.12792969,-0.97442627,0.2374878,18.0,10.8125,-0.828125,291
292,1696168068038,-0.06958008,-1.1616821,0.17425537,-6.390625,0.828125,1.15625,292
293,1696168068078,-0.0036621094,-0.96221924,0.20184326,3.09375,9.109375,1.140625,293
294,1696168068118,0.021972656,-0.80914307,0.20404053,-8.71875,12.828125,-0.90625,294
295,1696168068158,0.04272461,-0.6104126,0.18792725,-2.390625,1.03125,2.875,295
296,1696168068198,0.020996094,-0.6355591,0.23236084,2.515625,-8.59375,4.703125,296
297,1696168068238,-0.033447266,-0.99468994,0.1852417,-11.125,-21.21875,-0.890625,297
298,1696168068278,-0.092041016,-0.8538208,0.31854248,-21.4375,-10.25,-2.390625,298
299,1696168068318,-0.1899414,-0.85821533,0.23138428,10.375,-4.546875,9.015625,299
300,1696168068358,-0.06933594,-1.0667114,0.23968506,-1.859375,-2.578125,7.4375,300
301,1696168068398,0.036865234,-1.2417603,0.3390503,-9.1875,-0.6875,-2.421875,301
302,1696168068438,0.046142578,-0.95513916,0.3204956,-26.515625,-4.421875,4.125,302
303,1696168068478,-0.03466797,-0.84747314,0.34857178,5.21875,6.390625,5.609375,303
304,1696168068518,0.018554688,-1.2229614,0.25238037,17.703125,-9.59375,9.1875,304
305,1696168068558,0.21508789,-1.4026489,0.34002686,-9.71875,-13.34375,6.890625,305
306,1696168068598,0.21728516,-1.0274048,0.3217163,-0.578125,14.734375,4.0625,306
307,1696168068638,0.07519531,-0.96759033,0.17962646,7.1875,12.046875,4.34375,307
308,1696168068678,0.20263672,-0.9043579,0.23651123,1.609375,-3.3125,6.84375,308
309,1696168068718,0.37402344,-0.88360596,0.31072998,-2.203125,-14.75,5.46875,309
310,1696168068758,0.11694336,-1.083313,0.19769287,17.78125,-13.921875,3.234375,310
311,1696168068798,0.022216797,-1.1394653,0.29315186,-0.296875,1.515625,4.015625,311
312,1696168068838,0.11450195,-1.0217896,0.24749756,-15.34375,-6.234375,-3.0625,312
313,1696168068878,0.15283203,-0.77716064,0.22991943,5.03125,-0.734375,-1.625,313
314,1696168068918,0.10620117,-0.6934204,0.24505615,-0.546875,7.296875,3.984375,314
315,1696168068958,0.049560547,-0.63653564,0.3024292,0.921875,6.8125,-0.71875,315
316,1696168068998,0.096191406,-0.79644775,0.2814331,0.3125,-2.640625,-7.34375,316
317,1696168069038,0.018310547,-0.8401489,0.2531128,1.140625,9.734375,-10.515625,317
318,1696168069078,0.11035156,-0.76397705,0.21453857,-8.75,9.25,-7.625,318
319,1696168069118,0.020751953,-0.78448486,0.32904053,4.484375,16.8125,-14.859375,319
320,1696168069158,0.1027832,-0.9819946,0.31243896,19.921875,7.234375,-4.078125,320
321,1696168069198,0.27685547,-1.2561646,0.35736084,-11.796875,-4.890625,-7.46875,321
322,1696168069238,0.09765625,-1.0615845,0.36346436,-3.515625,8.78125,-10.171875,322
323,1696168069278,0.013916016,-0.98931885,0.3619995,-2.546875,8.703125,-2.0,323
324,1696168069318,0.06958008,-0.91534424,0.32269287,2.21875,1.53125,-5.421875,324
325,1696168069358,0.119628906,-1.0986938,0.32928467,8.515625,-2.765625,-1.078125,325
326,1696168069398,0.17480469,-1.2202759,0.17230225,1.375,-5.984375,15.328125,326
327,1696168069438,0.22875977,-1.3088989,0.1618042,4.140625,-4.375,-3.609375,327
328,1696168069478,-0.20629883,-0.95562744,0.26678467,-5.0625,16.578125,-3.765625,328
329,1696168069518,0.048828125,-0.99053955,0.23846436,-3.375,-1.40625,4.6875,329
330,1696168069558,0.20751953,-0.9067993,0.22113037,9.15625,-6.921875,5.125,330
331,1696168069598,0.17895508,-1.1270142,0.18988037,-2.3125,5.359375,-1.109375,331
332,1696168069638,0.057128906,-1.006897,0.17840576,2.234375,5.734375,-7.40625,332
333,1696168069678,-0.092285156,-1.0335083,0.18206787,3.0,-3.375,-5.328125,333
334,1696168069718,-0.09350586,-1.0144653,0.16888428,-1.8125,7.828125,-1.28125,334
335,1696168069758,0.016845703,-1.008606,0.20184326,-6.0625,9.21875,-2.96875,335
336,1696168069798,0.10498047,-0.9421997,0.22454834,0.3125,8.359375,-3.1875,336
337,1696168069838,0.06591797,-0.8496704,0.15911865,-9.171875,6.015625,-3.796875,337
338,1696168069878,0.029541016,-0.710022,0.17596436,-10.59375,0.453125,1.265625,338
339,1696168069918,0.011962891,-0.7444458,0.21209717,-6.921875,-8.84375,4.0,339
340,1696168069958,0.072753906,-0.8335571,0.31243896,-8.96875,-13.828125,-9.015625,340
341,1696168069998,-0.18017578,-0.8049927,0.29193115,-1.15625,-4.109375,-8.53125,341
342,1696168070038,-0.18847656,-0.90753174,0.15570068,-13.765625,-11.015625,-0.84375,342
343,1696168070078,-0.1628418,-0.78253174,0.26898193,1.40625,2.640625,3.265625,343
344,1696168070118,-0.045654297,-1.2075806,0.43621826,-12.28125,-2.609375,-2.0625,344
345,1696168070158,0.0056152344,-1.1758423,0.39349365,5.65625,0.078125,-5.5,345
346,1696168070198,-0.027832031,-0.9336548,0.34246826,-16.890625,5.390625,-3.09375,346
347,1696168070238,-0.07788086,-0.8916626,0.2880249,14.640625,10.203125,0.09375,347
348,1696168070278,-0.03881836,-1.30719,0.24212646,4.296875,-1.015625,2.359375,348
349,1696168070318,0.1628418,-1.0093384,0.27801514,9.484375,0.9375,9.6875,349
350,1696168070358,0.31762695,-1.1616821,0.36273193,-3.5,18.609375,5.703125,350
351,1696168070398,0.20922852,-1.0940552,0.18182373,8.078125,-1.171875,-6.0,351
352,1696168070438,0.03100586,-1.2402954,0.20184326,45.359375,0.578125,13.484375,352
353,1696168070478,0.1977539,-1.0796509,0.1408081,-7.96875,1.875,11.765625,353
354,1696168070518,0.080078125,-0.9307251,0.08465576,0.015625,-2.53125,1.484375,354
355,1696168070558,0.08984375,-0.85894775,0.12567139,8.9375,-1.90625,9.9375,355
356,1696168070598,0.12084961,-0.8242798,0.24603271,-1.78125,-4.6875,11.34375,356
357,1696168070638,0.09423828,-0.7769165,0.23626709,0.75,-8.609375,0.9375,357
358,1696168070678,0.079833984,-0.89263916,0.1515503,11.6875,-6.328125,-5.96875,358
359,1696168070718,-0.02319336,-0.8831177,0.19281006,-8.3125,7.765625,-5.953125,359
360,1696168070758,-0.0007324219,-0.6880493,0.29266357,-10.796875,7.40625,-8.796875,360
361,1696168070798,-0.0014648438,-0.6326294,0.20916748,-0.953125,10.8125,-12.328125,361
362,1696168070838,0.15966797,-0.92071533,0.21966553,11.640625,-0.4375,-9.09375,362
363,1696168070878,0.13842773,-1.1890259,0.30389404,9.140625,3.328125,-3.453125,363
364,1696168070918,0.19165039,-1.0767212,0.26483154,-16.40625,-3.96875,-3.21875,364
365,1696168070958,-0.0053710938,-0.9561157,0.2850952,-3.203125,-6.046875,-16.46875,365
366,1696168070998,-0.19995117,-0.8748169,0.3143921,12.921875,17.09375,3.84375,366
367,1696168071038,0.25268555,-1.0444946,0.29119873,-18.09375,-13.5625,-1.515625,367
368,1696168071078,0.18481445,-1.4407349,0.11663818,19.234375,-14.1875,1.671875,368
369,1696168071118,0.16308594,-1.385315,0.17376709,-2.0,-7.0625,5.25,369
370,1696168071158,-0.33789062,-0.9505005,0.24847412,-1.75,14.25,-12.078125,370
371,1696168071198,0.0073242188,-1.3206177,-0.062316895,-9.90625,-22.421875,11.21875,371
372,1696168071238,0.29492188,-0.90948486,0.117126465,15.875,1.3125,7.75,372
373,1696168071278,0.02319336,-0.97125244,0.24139404,-26.09375,4.828125,-10.9375,373
374,1696168071318,-0.087890625,-1.065979,0.029968262,-11.71875,-3.96875,0.40625,374
375,1696168071358,-0.0087890625,-0.864563,-0.030822754,13.359375,-10.765625,6.40625,375
376,1696168071398,-0.03930664,-0.8921509,0.124694824,-1.09375,9.53125,-3.015625,376
377,1696168071438,0.06640625,-0.9734497,0.1329956,-1.421875,-0.984375,1.4375,377
378,1696168071478,0.07080078,-1.0679321,0.17059326,6.46875,-4.015625,3.796875,378
379,1696168071518,-0.09375,-1.1314087,0.11859131,-11.5625,1.3125,-4.3125,379
380,1696168071558,-0.15722656,-0.91485596,0.08416748,3.640625,9.796875,-1.125,380
381,1696168071598,0.041992188,-1.0171509,0.11541748,2.75,-6.921875,11.015625,381
382,1696168071638,0.15917969,-0.9644165,0.11029053,-0.75,-8.640625,9.671875,382
383,1696168071678,-0.092285156,-0.88946533,0.09246826,-7.984375,-2.6875,2.84375,383
384,1696168071718,-0.09277344,-0.9348755,0.11834717,4.609375,-2.921875,12.625,384
385,1696168071758,0.17773438,-1.3174438,0.07513428,3.890625,-21.046875,11.828125,385
386,1696168071798,0.26391602,-0.9890747,0.30975342,-30.296875,-10.828125,-0.796875,386
387,1696168071838,0.16748047,-0.4915161,0.22943115,-5.65625,2.3125,10.5625,387
388,1696168071878,0.19580078,-0.73321533,0.15106201,47.671875,-12.046875,7.03125,388
389,1696168071918,0.07299805,-1.5100708,0.019958496,31.203125,-3.328125,-11.875,389
390,1696168071958,0.087646484,-1.0056763,0.36566162,7.8125,12.265625,-20.65625,541
391,1696168071998,0.2619629,-1.1104126,0.34735107,-2.28125,-3.8125,2.078125,542
392,1696168072038,0.14868164,-0.8550415,0.42547607,-14.296875,3.859375,-9.59375,543
393,1696168072078,0.15649414,-1.196106,0.26483154,31.984375,-11.015625,-2.421875,544
394,1696168072118,0.22045898,-1.2581177,0.22991943,-12.375,-22.0,12.234375,545
395,1696168072158,0.048095703,-1.388977,0.12664795,-5.71875,-1.90625,-9.65625,546
396,1696168072198,-0.068359375,-1.0178833,0.3126831,10.921875,7.375,6.71875,547
397,1696168072238,0.36938477,-1.0769653,0.46820068,-23.421875,-20.9375,-4.3125,548
398,1696168072278,0.050048828,-0.7949829,0.17132568,24.9375,-4.15625,-0.546875,549
399,1696168072318,-0.009033203,-1.0462036,-0.0017700195,12.25,0.5,7.546875,550
400,1696168072358,0.03540039,-0.87286377,0.03704834,-0.1875,0.8125,0.1875,551
401,1696168072398,0.10083008,-0.88116455,0.13226318,10.25,7.21875,-4.8125,552
402,1696168072438,0.18969727,-1.0322876,0.13275146,7.984375,4.28125,-4.484375,553
403,1696168072478,0.052978516,-1.2581177,0.012878418,4.234375,-3.796875,-2.65625,554
404,1696168072518,-0.0036621094,-0.9380493,0.24798584,-6.09375,6.234375,-1.140625,555
405,1696168072558,-0.09057617,-0.8845825,0.20599365,10.640625,24.859375,-6.125,556
406,1696168072598,-0.0061035156,-1.0003052,0.018981934,3.921875,5.765625,-0.796875,557
407,1696168072638,0.22509766,-0.82598877,0.1329956,-10.34375,2.9375,2.375,558
408,1696168072678,0.13989258,-0.7710571,0.19671631,-6.8125,8.078125,0.421875,559
409,1696168072718,0.07739258,-0.8904419,0.21160889,-13.34375,-10.0625,-0.859375,560
410,1696168072758,-0.064453125,-0.86138916,0.16864014,-12.65625,-11.109375,-5.921875,561
411,1696168072798,0.028320312,-0.8569946,0.2033081,-24.484375,-14.953125,0.28125,562
412,1696168072838,-0.079833984,-0.75738525,0.3283081,-5.90625,-13.78125,0.484375,563
413,1696168072878,-0.08496094,-1.0630493,0.2970581,10.34375,-6.609375,4.4375,564
414,1696168072918,-0.048583984,-1.1687622,0.18377686,-12.5,-14.328125,3.75,565
415,1696168072958,-0.040527344,-1.0025024,0.3493042,-14.25,-3.25,-1.96875,566
416,1696168072998,-0.08911133,-0.9692993,0.32025146,1.34375,3.53125,-1.828125,567
417,1696168073038,-0.0390625,-0.9981079,0.2555542,-0.71875,-7.515625,-3.4375,568
418,1696168073078,0.10839844,-1.2610474,0.22503662,2.421875,-9.59375,-0.609375,569
419,1696168073118,0.30004883,-1.3093872,0.3649292,4.921875,0.109375,2.953125,570
420,1696168073158,0.040283203,-1.0994263,0.2921753,-15.578125,20.140625,-4.546875,571
421,1696168073198,-0.017578125,-0.87091064,0.13690186,-11.8125,13.484375,-1.6875,572
422,1696168073238,0.24316406,-0.8381958,0.27069092,-1.40625,-0.015625,1.78125,573
423,1696168073278,0.28149414,-0.94659424,0.38104248,14.875,8.6875,8.0,574
424,1696168073318,0.2043457,-0.99713135,0.19866943,-8.65625,-4.1875,4.28125,575
425,1696168073358,0.048095703,-1.0713501,0.28118896,7.03125,-0.640625,-2.171875,576
426,1696168073398,0.07714844,-1.0054321,0.38372803,12.140625,7.3125,4.34375,577
427,1696168073438,0.21484375,-0.9378052,0.21990967,-3.765625,2.78125,1.6875,578
428,1696168073478,0.15820312,-0.8220825,0.18572998,-5.921875,5.1875,-2.6875,579
429,1696168073518,0.060791016,-0.6543579,0.2868042,4.328125,20.546875,6.25,580
430,1696168073558,0.0871582,-0.6704712,0.25164795,7.578125,1.171875,4.0625,581
431,1696168073598,0.15332031,-1.029602,0.22943115,5.65625,-8.78125,-10.703125,582
432,1696168073638,0.04272461,-0.89727783,0.29315186,-2.609375,23.625,-9.640625,583
433,1696168073678,0.026611328,-0.6448364,0.22381592,-6.328125,15.421875,-7.0625,584
434,1696168073718,-0.041503906,-0.77593994,0.23846436,12.671875,15.6875,-12.515625,585
435,1696168073758,0.2043457,-1.1069946,0.26409912,9.71875,5.671875,-6.3125,586
436,1696168073798,0.27807617,-1.0889282,0.48431396,-10.296875,3.96875,-5.171875,587
437,1696168073838,0.08129883,-1.194397,0.3258667,-14.84375,0.34375,-16.796875,588
438,1696168073878,-0.13427734,-0.7620239,0.25701904,8.4375,12.46875,-6.140625,589
439,1696168073918,0.07495117,-1.1116333,0.26849365,13.5625,1.578125,5.53125,590
440,1696168073958,0.3269043,-1.3245239,0.37127686,-9.1875,-15.234375,-3.4375,591
441,1696168073998,0.0024414062,-1.1814575,0.19720459,2.59375,7.546875,-5.40625,592
442,1696168074038,-0.114990234,-1.1897583,0.06756592,9.34375,3.21875,-0.234375,593
443,1696168074078,0.22827148,-1.2034302,0.19500732,-17.265625,-19.953125,0.4375,594
444,1696168074118,-0.015136719,-0.71466064,0.4335327,-11.734375,10.9375,-18.140625,595
445,1696168074158,-0.2097168,-1.1838989,0.020202637,24.21875,-2.03125,-3.859375,596
446,1696168074198,0.005126953,-1.02594,0.03265381,-10.0,-7.125,5.828125,597
447,1696168074238,0.09033203,-0.8442993,0.27801514,-10.140625,14.6875,-3.46875,598
448,1696168074278,-0.00048828125,-0.9612427,0.28411865,2.375,12.3125,-8.09375,599
449,1696168074318,0.07080078,-1.1543579,0.10687256,1.140625,-6.15625,0.984375,600
450,1696168074358,0.057373047,-0.86383057,0.19989014,-4.296875,1.171875,1.671875,601
451,1696168074398,-0.01977539,-0.9038696,0.26971436,-1.171875,4.546875,-0.328125,602
452,1696168074438,-0.099853516,-0.9624634,0.22210693,1.25,0.828125,-1.0625,603
453,1696168074478,-0.052734375,-0.8340454,0.19476318,0.515625,0.609375,4.078125,604
454,1696168074518,0.06640625,-0.7805786,0.17767334,-4.671875,-3.609375,9.21875,605
455,1696168074558,0.016845703,-0.84039307,0.260437,-13.03125,-7.5,2.5625,606
456,1696168074598,-0.05444336,-0.7744751,0.28216553,-5.875,-9.484375,2.9375,607
457,1696168074638,-0.12719727,-0.6980591,0.29974365,5.078125,-8.09375,5.96875,608
458,1696168074678,-0.100097656,-1.1052856,0.26922607,-10.390625,-15.390625,8.296875,609
459,1696168074718,-0.056640625,-1.0278931,0.30828857,-3.9375,-4.171875,5.234375,610
460,1696168074758,0.0061035156,-0.82281494,0.2987671,2.8125,-3.328125,5.5625,611
461,1696168074798,0.0087890625,-0.9417114,0.42913818,-0.15625,-0.671875,7.96875,612
462,1696168074838,-0.1616211,-1.1980591,0.22650146,5.109375,-2.453125,2.78125,613
463,1696168074878,-0.080322266,-1.0432739,0.2423706,6.234375,-4.546875,5.40625,614
464,1696168074918,0.12866211,-1.2649536,0.27581787,4.96875,1.265625,8.5625,615
465,1696168074958,0.24023438,-1.2417603,0.45916748,5.859375,11.75,-0.359375,616
466,1696168074998,0.19921875,-1.0679321,0.19036865,1.640625,4.203125,1.46875,617
467,1696168075038,0.18139648,-1.2310181,0.10003662,-0.828125,-6.796875,6.03125,618
468,1696168075078,0.2644043,-0.99053955,0.28363037,0.46875,16.40625,5.640625,619
469,1696168075118,0.022216797,-0.9031372,0.18621826,-1.09375,8.234375,1.546875,620
470,1696168075158,0.12548828,-1.0618286,0.13006592,6.15625,-7.5625,2.984375,621
471,1696168075198,0.26879883,-1.0691528,0.3180542,-9.9375,-1.78125,4.90625,622
472,1696168075238,0.140625,-0.911438,0.28240967,-4.046875,7.875,0.625,623
473,1696168075278,0.07495117,-0.81378174,0.12542725,0.140625,6.953125,3.546875,624
474,1696168075318,0.12158203,-0.8220825,0.17156982,6.1875,1.84375,2.125,625
475,1696168075358,0.17626953,-0.8569946,0.32440186,1.515625,1.78125,0.09375,626
476,1696168075398,0.119140625,-0.9055786,0.3378296,-4.796875,1.859375,-7.21875,627
477,1696168075438,0.05859375,-0.866272,0.24969482,-8.890625,7.375,-11.890625,628
478,1696168075478,0.044921875,-0.7251587,0.24041748,-3.734375,12.890625,-11.65625,629
479,1696168075518,0.043945312,-0.81134033,0.20892334,4.28125,7.15625,-9.125,630
480,1696168075558,0.060546875,-0.73394775,0.32196045,2.625,17.96875,-0.921875,631
481,1696168075598,0.22802734,-1.0464478,0.2411499,2.671875,-11.34375,-7.0625,632
482,1696168075638,0.036132812,-0.85235596,0.36102295,-14.328125,10.6875,-11.828125,633
483,1696168075678,0.11767578,-1.0359497,0.36029053,9.140625,8.40625,-0.015625,634
484,1696168075718,0.15014648,-0.93756104,0.37542725,-12.96875,-3.1875,-12.875,635
485,1696168075758,0.19946289,-1.0064087,0.40740967,17.90625,0.25,-0.09375,636
486,1696168075798,0.05908203,-1.0855103,0.3378296,-5.34375,-1.984375,-4.078125,637
487,1696168075838,-0.15039062,-1.0498657,0.27069092,11.28125,-1.296875,-1.953125,638
488,1696168075878,0.24682617,-1.4995728,0.13763428,14.265625,-22.765625,4.6875,639
489,1696168075918,0.1586914,-1.1672974,0.14471436,-13.015625,4.453125,3.890625,640
490,1696168075958,0.038085938,-0.78619385,0.3456421,-9.21875,11.421875,-12.546875,641
491,1696168075998,-0.12133789,-1.0435181,0.028015137,26.71875,-5.328125,-7.03125,642
492,1696168076038,0.111572266,-1.2390747,-0.013977051,6.390625,-26.03125,13.390625,643
493,1696168076078,0.10449219,-0.86553955,0.13519287,-6.765625,11.53125,-6.0625,644
494,1696168076118,-0.104003906,-0.89190674,0.22259521,5.609375,5.40625,-11.578125,645
495,1696168076158,-0.103515625,-1.0171509,0.121520996,8.3125,-9.96875,0.984375,646
496,1696168076198,0.014160156,-1.079895,0.011413574,6.921875,7.578125,0.15625,647
497,1696168076238,0.03564453,-1.0274048,0.15789795,-4.296875,8.28125,-3.390625,648
498,1696168076278,0.049316406,-1.0054321,0.13665771,-2.28125,1.71875,-0.25,649
499,1696168076318,0.009033203,-0.9483032,0.13128662,-1.15625,2.390625,0.90625,650
500,1696168076358,-0.012451172,-0.8406372,0.13568115,-11.1875,1.53125,0.75,651
501,1696168076398,0.044189453,-0.82598877,0.113464355,-4.140625,-9.71875,4.546875,652
502,1696168076438,0.072753906,-0.8069458,0.25506592,-20.640625,-10.109375,-2.890625,653
503,1696168076478,-0.16772461,-0.95098877,0.20452881,-11.0,-10.015625,-3.15625,654
504,1696168076518,-0.12939453,-0.83477783,0.12786865,-22.34375,-17.03125,10.71875,655
505,1696168076558,0.057128906,-0.47369385,0.21844482,3.625,-9.625,12.703125,656
506,1696168076598,-0.06591797,-0.97735596,0.37176514,2.671875,-0.703125,2.671875,657
507,1696168076638,-0.24169922,-1.4436646,0.33685303,6.203125,-5.5625,1.734375,658
508,1696168076678,0.099609375,-0.9048462,0.20452881,-36.65625,-16.75,14.265625,659
509,1696168076718,0.02319336,-0.89801025,0.3842163,-1.71875,8.0625,2.171875,660
510,1696168076758,-0.12866211,-0.9829712,0.45477295,12.734375,8.0,2.0,661
511,1696168076798,-0.045410156,-1.3911743,0.13348389,7.6875,-22.875,12.890625,662
512,1696168076838,0.3881836,-1.1089478,0.26507568,-10.53125,-8.734375,16.015625,663
513,1696168076878,0.30737305,-1.08844,0.40594482,-7.84375,17.40625,0.28125,664
514,1696168076918,0.020507812,-0.8184204,0.2008667,2.25,-1.953125,1.078125,665
515,1696168076958,0.15600586,-1.0379028,0.230896,-3.4375,-8.015625,11.796875,666
516,1696168076998,0.29956055,-1.2695923,0.46795654,17.953125,3.765625,8.640625,667
517,1696168077038,0.22363281,-1.2070923,0.2880249,-12.796875,4.90625,-3.984375,668
518,1696168077078,0.1887207,-0.8726196,0.19647217,-15.421875,-1.265625,-5.96875,669
519,1696168077118,0.09082031,-0.7061157,0.31195068,7.984375,-1.09375,8.421875,670
520,1696168077158,0.1628418,-0.80059814,0.34295654,14.734375,-3.46875,12.3125,671
521,1696168077198,0.23950195,-0.94854736,0.26116943,-6.40625,-4.640625,-2.9375,672
522,1696168077238,0.14086914,-0.80548096,0.24725342,-12.171875,5.953125,-8.71875,673
523,1696168077278,0.047607422,-0.6091919,0.32269287,-7.0,10.15625,-5.328125,674
524,1696168077318,0.048583984,-0.6773071,0.2531128,15.46875,5.25,-3.90625,675
525,1696168077358,0.10522461,-0.94000244,0.28094482,3.8125,12.515625,-13.578125,676
526,1696168077398,0.15795898,-0.9151001,0.31195068,8.578125,11.96875,-6.34375,677
527,1696168077438,0.091308594,-0.802063,0.27752686,-4.96875,11.359375,-11.890625,678
528,1696168077478,0.06933594,-0.9378052,0.23699951,22.1875,15.4375,-7.046875,679
529,1696168077518,0.17358398,-1.0901489,0.3834839,3.171875,12.90625,-4.296875,680
530,1696168077558,0.12988281,-1.017395,0.3192749,7.140625,16.609375,-5.40625,681
531,1696168077598,0.15356445,-1.0479126,0.27679443,-6.453125,14.09375,-10.03125,682
532,1696168077638,0.08544922,-0.92559814,0.41082764,-3.359375,17.765625,-7.09375,683
533,1696168077678,0.111083984,-1.0588989,0.3295288,5.9375,3.796875,-5.75,684
534,1696168077718,-0.0073242188,-1.1548462,0.18572998,1.609375,8.015625,2.421875,685
535,1696168077758,0.32788086,-1.3496704,0.13861084,5.953125,6.828125,1.5625,686
536,1696168077798,0.0793457,-0.92144775,0.27630615,-14.28125,8.734375,-5.109375,687
537,1696168077838,-0.029541016,-1.2620239,0.070739746,1.265625,5.3125,2.765625,688
538,1696168077878,0.3203125,-0.9741821,0.082458496,3.8125,-8.390625,11.953125,689
539,1696168077918,0.103515625,-0.9505005,0.21551514,-11.84375,9.765625,-6.328125,690
540,1696168077958,-0.08105469,-0.9282837,0.25115967,-1.9375,11.5625,-14.25,691
541,1696168077998,0.032226562,-1.0916138,0.007019043,2.171875,-11.328125,4.375,692
542,1696168078038,0.14794922,-1.0176392,0.09173584,2.3125,-11.3125,2.203125,693
543,1696168078078,0.04711914,-0.98394775,0.29974365,-8.9375,5.265625,-10.015625,694
544,1696168078118,-0.0793457,-0.9434204,0.2074585,1.890625,-2.0625,-1.265625,695
545,1696168078158,0.012207031,-0.9380493,0.07684326,2.9375,-9.5,3.25,696
546,1696168078198,0.076416016,-0.89923096,0.11981201,-6.390625,-2.78125,0.03125,697
547,1696168078238,0.049804688,-0.9092407,0.2477417,-5.84375,-7.75,1.515625,698
548,1696168078278,0.07348633,-0.7937622,0.25506592,-11.5625,-15.796875,1.703125,699
549,1696168078318,-0.03955078,-0.74835205,0.17059326,-8.0,-10.6875,-0.46875,700
550,1696168078358,-0.07421875,-0.8508911,0.20135498,-27.078125,-20.234375,0.59375,701
551,1696168078398,-0.09008789,-0.70098877,0.28778076,12.078125,-13.5,6.84375,702
552,1696168078438,-0.19116211,-1.0361938,0.28900146,0.484375,3.90625,-0.765625,703
553,1696168078478,-0.080322266,-1.3494263,0.32269287,-22.21875,-12.609375,-0.34375,704
554,1696168078518,0.20288086,-1.003479,0.28900146,-20.390625,-14.375,7.703125,705
555,1696168078558,0.111816406,-0.8596802,0.46502686,0.8125,2.375,-1.515625,706
556,1696168078598,-0.21264648,-0.81134033,0.5663452,-5.484375,1.015625,-5.90625,707
557,1696168078638,-0.123291016,-0.98223877,0.19989014,27.75,-27.640625,13.765625,708
558,1696168078678,0.31274414,-1.2781372,0.19207764,0.015625,-23.546875,15.640625,709
559,1696168078718,0.2355957,-1.385315,0.54022217,-3.296875,10.015625,-6.890625,710
560,1696168078758,0.04736328,-0.9092407,0.20037842,3.109375,6.40625,0.75,711
561,1696168078798,0.08300781,-0.8977661,0.16790771,-1.265625,-3.34375,11.296875,712
562,1696168078838,0.17749023,-0.81744385,0.2164917,-9.875,4.03125,2.09375,713
563,1696168078878,0.1550293,-0.89508057,0.2929077,19.234375,-9.34375,5.78125,714
564,1696168078918,0.19848633,-1.2910767,0.4977417,12.140625,-9.953125,12.734375,715
565,1696168078958,0.064697266,-1.1660767,0.31243896,-13.984375,6.84375,-4.125,716
566,1696168078998,0.13012695,-0.8052368,0.17889404,-4.359375,0.96875,-5.609375,717
567,1696168079038,0.20703125,-0.7600708,0.2609253,-7.515625,-2.28125,-0.265625,718
568,1696168079078,0.08325195,-0.7546997,0.3619995,12.171875,-7.078125,-0.4375,719
569,1696168079118,-0.001953125,-0.92803955,0.3414917,8.25,-0.59375,-0.09375,720
570,1696168079158,-0.044189453,-0.8670044,0.15301514,-12.53125,5.296875,-7.53125,721
571,1696168079198,-0.026367188,-0.5918579,0.31536865,-6.640625,15.640625,-10.984375,722
572,1696168079238,0.203125,-0.9710083,0.31878662,13.484375,1.03125,-10.578125,723
573,1696168079278,0.1274414,-1.081604,0.3986206,7.3125,5.53125,-5.0625,724
574,1696168079318,0.0847168,-0.8892212,0.24847412,-5.40625,18.0625,1.25,725
575,1696168079358,0.038085938,-0.72125244,0.2074585,-4.265625,14.0625,-9.328125,726
576,1696168079398,0.061279297,-1.0545044,0.25653076,14.21875,8.390625,-7.859375,727
577,1696168079438,0.12646484,-1.0484009,0.47503662,-0.609375,9.125,2.40625,728
578,1696168079478,0.19848633,-0.96417236,0.42132568,-9.6875,13.28125,-6.5625,729
579,1696168079518,0.107177734,-0.94317627,0.32440186,-0.34375,7.75,-9.09375,730
580,1696168079558,0.05834961,-0.9668579,0.3283081,2.890625,4.671875,-0.71875,731
581,1696168079598,-0.014404297,-1.0286255,0.34539795,8.375,2.328125,-0.453125,732
582,1696168079638,0.14013672,-1.4190063,0.13006592,5.125,-14.078125,3.921875,733
583,1696168079678,0.23144531,-1.1514282,0.20111084,-18.5625,5.390625,3.046875,734
584,1696168079718,-0.13574219,-0.8904419,0.44744873,-1.109375,16.671875,-9.453125,735
585,1696168079758,0.015380859,-1.2805786,0.2538452,-0.265625,-20.28125,1.28125,736
586,1696168079798,0.14086914,-0.86260986,0.24676514,-1.171875,-3.53125,5.0625,737
587,1696168079838,-0.021240234,-0.84869385,0.22698975,-6.078125,9.625,-6.640625,738
588,1696168079878,-0.10961914,-0.96832275,0.093933105,14.1875,10.65625,-1.140625,739
589,1696168079918,0.08300781,-0.95758057,0.08343506,9.921875,-5.84375,3.109375,740
590,1696168079958,0.1772461,-0.95684814,0.2255249,-3.625,-1.140625,-4.71875,741
591,1696168079998,0.06518555,-1.0283813,0.30950928,-6.03125,-3.984375,-7.5625,742
592,1696168080038,-0.17993164,-0.93927,0.24822998,4.09375,-1.21875,0.28125,743
593,1696168080078,-0.21899414,-0.9768677,0.13519287,6.296875,4.296875,2.1875,744
594,1696168080118,0.033447266,-1.0523071,0.14569092,8.5,8.453125,-1.109375,745
595,1696168080158,0.107421875,-0.93048096,0.27972412,-8.765625,4.140625,-1.203125,746
596,1696168080198,0.0847168,-0.78204346,0.21942139,-7.0625,2.828125,1.953125,747
597,1696168080238,-0.0075683594,-0.6878052,0.20672607,-11.640625,-3.296875,0.46875,748
598,1696168080278,-0.14770508,-0.69073486,0.18621826,0.296875,-1.09375,1.78125,749
599,1696168080318,-0.036621094,-0.8208618,0.28704834,-8.6875,-10.078125,5.546875,750
600,1696168080358,-0.12011719,-0.9475708,0.35321045,0.078125,-6.296875,4.0,751
601,1696168080398,-0.084472656,-1.222229,0.28411865,-14.78125,0.890625,0.3125,752
602,1696168080438,0.06591797,-1.0454712,0.2555542,-1.78125,-7.9375,5.296875,753
603,1696168080478,0.045166016,-0.8135376,0.3842163,-6.03125,7.53125,0.796875,754
604,1696168080518,-0.13427734,-0.98028564,0.38104248,2.4375,2.796875,0.828125,755
605,1696168080558,-0.03491211,-1.0464478,0.17034912,19.734375,-14.921875,4.40625,756
606,1696168080598,0.05834961,-1.602356,0.2526245,-3.734375,3.734375,-5.140625,757
607,1696168080638,0.32055664,-1.0205688,0.5187378,7.90625,15.9375,5.484375,758
608,1696168080678,0.095703125,-1.0747681,0.16864014,4.484375,9.21875,3.515625,759
609,1696168080718,-0.06518555,-0.9126587,0.14642334,-0.546875,5.25,2.890625,760
610,1696168080758,0.30566406,-1.0056763,0.13323975,9.40625,-9.71875,14.859375,761
611,1696168080798,0.33398438,-0.9468384,0.27215576,-8.859375,-14.0,2.59375,762
612,1696168080838,0.092041016,-0.98321533,0.21624756,9.203125,1.84375,5.328125,763
613,1696168080878,0.06665039,-1.0750122,0.1539917,6.125,-9.640625,11.53125,764
614,1696168080918,0.17651367,-0.99346924,0.2543335,7.8125,-2.484375,1.28125,765
615,1696168080958,0.24438477,-1.0310669,0.19085693,-7.578125,-4.359375,1.1875,766
616,1696168080998,0.14160156,-0.83428955,0.23431396,-5.578125,0.3125,1.875,767
617,1696168081038,0.06323242,-0.7461548,0.19818115,5.046875,-0.90625,1.125,768
618,1696168081078,0.0949707,-0.7373657,0.20574951,1.171875,-2.03125,1.484375,769
619,1696168081118,0.119628906,-0.8623657,0.19573975,0.640625,-0.421875,-4.75,770
620,1696168081158,0.1171875,-0.81622314,0.21234131,0.046875,6.203125,-5.453125,771
621,1696168081198,0.03881836,-0.71539307,0.20697021,-7.25,14.078125,-1.984375,772
622,1696168081238,0.08642578,-0.8909302,0.2880249,-4.953125,5.546875,-6.578125,773
623,1696168081278,0.13549805,-0.99224854,0.36956787,-5.25,2.984375,-14.140625,774
624,1696168081318,0.08325195,-1.1380005,0.29632568,3.484375,4.328125,-12.375,775
625,1696168081358,0.05493164,-0.9495239,0.32318115,1.125,19.28125,1.8125,776
626,1696168081398,0.1694336,-0.87384033,0.33685303,-9.3125,11.765625,-5.34375,777
627,1696168081438,0.23217773,-0.9890747,0.35369873,6.796875,-0.28125,-12.671875,778
628,1696168081478,0.100097656,-1.0120239,0.33709717,-8.140625,5.109375,-2.109375,779
629,1696168081518,0.02319336,-1.2261353,0.18841553,6.140625,-13.96875,3.03125,780
630,1696168081558,0.18798828,-1.4985962,0.16448975,6.15625,-6.859375,-1.515625,781
631,1696168081598,0.22802734,-0.92926025,0.33685303,-9.96875,-1.859375,-5.03125,782
632,1696168081638,-0.17480469,-1.1345825,0.21722412,-5.578125,-1.328125,-7.609375,783
633,1696168081678,-0.19873047,-1.0098267,0.1329956,13.734375,-4.625,2.078125,784
634,1696168081718,-0.020507812,-0.8921509,0.07293701,-7.09375,9.53125,0.515625,785
635,1696168081758,0.21679688,-0.92193604,0.16815186,-9.828125,6.984375,-2.03125,786
636,1696168081798,0.2524414,-1.1018677,0.19110107,1.609375,-0.625,-2.9375,787
637,1696168081838,0.075927734,-0.9734497,0.21624756,-5.984375,0.53125,-5.3125,788
638,1696168081878,-0.08325195,-0.99786377,0.18890381,-8.40625,3.34375,-4.640625,789
639,1696168081918,-0.072265625,-1.0401001,0.168396,5.078125,-5.46875,-0.796875,790
640,1696168081958,0.123046875,-0.92803955,0.23358154,5.234375,-1.171875,2.234375,791
641,1696168081998,0.006591797,-0.9092407,0.2694702,-9.453125,3.234375,-3.140625,792
642,1696168082038,-0.076171875,-0.909729,0.1876831,5.0,-0.859375,-0.328125,793
643,1696168082078,-0.076171875,-0.9343872,0.19110107,5.90625,-0.28125,4.140625,794
644,1696168082118,0.01977539,-0.9170532,0.23529053,-13.25,-2.8125,2.28125,795
645,1696168082158,0.11743164,-0.83258057,0.26678467,-1.203125,-5.90625,3.359375,796
646,1696168082198,0.02319336,-0.77593994,0.33050537,-17.875,-9.1875,-0.796875,797
647,1696168082238,-0.119140625,-0.7793579,0.22723389,-9.578125,-9.625,4.359375,798
648,1696168082278,-0.11791992,-0.8921509,0.24066162,1.359375,-16.984375,8.859375,799
649,1696168082318,-0.12036133,-0.9446411,0.3361206,-1.34375,0.171875,0.046875,800
650,1696168082358,-0.021972656,-1.100647,0.33709717,-8.34375,-5.0,1.234375,801
651,1696168082398,0.068359375,-0.9175415,0.27435303,-5.234375,-3.15625,5.375,802
652,1696168082438,-0.079589844,-0.9060669,0.34539795,-3.0625,11.40625,1.921875,803
653,1696168082478,-0.12573242,-0.89508057,0.31488037,-3.4375,0.65625,4.125,804
654,1696168082518,0.05517578,-0.9417114,0.24066162,15.234375,-12.34375,5.0625,805
655,1696168082558,0.11254883,-1.3528442,0.37249756,1.65625,0.34375,-3.203125,806
656,1696168082598,0.17749023,-1.1213989,0.44989014,9.78125,18.640625,3.328125,807
657,1696168082638,0.2524414,-0.975647,0.1876831,-5.671875,4.21875,8.84375,808
658,1696168082678,0.23242188,-1.2402954,0.09881592,6.59375,-9.9375,1.484375,809
659,1696168082718,0.21191406,-1.0835571,0.49505615,1.296875,6.421875,8.5625,810
660,1696168082758,0.08666992,-1.1231079,0.2958374,0.640625,1.25,0.828125,811
661,1696168082798,-0.06738281,-0.9619751,0.08099365,-4.265625,-2.03125,-5.859375,812
662,1696168082838,0.14819336,-0.8880005,0.28216553,-1.046875,8.921875,10.5625,813
663,1696168082878,0.3503418,-0.80596924,0.41497803,0.515625,-4.09375,4.71875,814
664,1696168082918,0.1184082,-0.9590454,0.17303467,3.984375,-0.109375,-3.9375,815
665,1696168082958,0.06958008,-0.8513794,0.2345581,2.40625,6.8125,4.5,816
666,1696168082998,0.115478516,-0.8267212,0.31610107,-0.90625,-4.765625,2.15625,817
667,1696168083038,0.1508789,-0.8369751,0.30950928,-8.4375,-0.59375,-7.703125,818
668,1696168083078,0.031982422,-0.7788696,0.28948975,-5.359375,8.625,-8.78125,819
669,1696168083118,-0.14233398,-0.68927,0.24481201,3.5,13.953125,-3.40625,820
670,1696168083158,0.19335938,-0.6304321,0.30706787,-7.390625,7.484375,-4.34375,821
671,1696168083198,0.115234375,-0.8904419,0.324646,12.015625,14.609375,-15.078125,822
672,1696168083238,0.2607422,-1.1658325,0.33831787,7.484375,-12.1875,-2.125,823
673,1696168083278,0.20947266,-0.9763794,0.54119873,-26.921875,-7.390625,-6.4375,824
674,1696168083318,0.0056152344,-0.8689575,0.29071045,5.828125,0.515625,-10.09375,825
675,1696168083358,-0.044433594,-0.8760376,0.25946045,8.015625,4.421875,0.28125,826
676,1696168083398,0.2253418,-1.4265747,0.25335693,8.703125,-20.46875,6.09375,827
677,1696168083438,0.27514648,-1.4180298,0.29974365,2.125,-19.6875,4.125,828
678,1696168083478,0.08569336,-0.9385376,0.2255249,-16.46875,5.484375,-1.234375,829
679,1696168083518,-0.27807617,-1.0947876,0.3036499,2.84375,6.0,-0.921875,830
680,1696168083558,0.18115234,-1.109436,0.34222412,-4.65625,-26.90625,1.140625,831
681,1696168083598,0.16357422,-1.0337524,0.124938965,9.984375,2.8125,4.546875,832
682,1696168083638,0.020751953,-0.98809814,0.08758545,-4.546875,6.28125,-0.078125,833
683,1696168083678,-0.096191406,-0.9138794,0.21942139,1.59375,7.859375,-5.859375,834
684,1696168083718,0.060302734,-0.90509033,0.25335693,12.21875,-3.890625,-1.109375,835
685,1696168083758,0.15014648,-1.0535278,0.13226318,-3.1875,2.078125,-3.078125,836
686,1696168083798,-0.028076172,-0.9939575,0.199646,-2.734375,9.859375,-5.984375,837
687,1696168083838,-0.06762695,-0.88238525,0.27020264,0.96875,4.703125,-2.140625,838
688,1696168083878,-0.030761719,-0.9451294,0.18499756,2.9375,4.96875,-0.453125,839
689,1696168083918,0.12060547,-0.97735596,0.20428467,-8.59375,1.984375,0.484375,840
690,1696168083958,0.103027344,-0.85772705,0.25115967,-20.984375,-0.75,-7.421875,841
691,1696168083998,0.008300781,-0.6795044,0.2345581,-9.78125,-5.515625,-3.125,842
692,1696168084038,-0.13793945,-0.5942993,0.26605225,-7.390625,-3.953125,0.203125,843
693,1696168084078,-0.25146484,-0.89801025,0.19525146,-6.59375,-9.671875,3.8125,844
694,1696168084118,-0.0034179688,-0.80670166,0.34954834,5.484375,-2.53125,11.109375,845
695,1696168084158,0.021728516,-1.3181763,0.3925171,-4.921875,-0.484375,1.90625,846
696,1696168084198,0.0036621094,-1.0466919,0.387146,-23.140625,2.515625,-4.015625,847
697,1696168084238,-0.072021484,-0.78741455,0.31072998,-6.546875,0.0625,4.390625,848
698,1696168084278,-0.15454102,-0.94122314,0.4232788,11.375,6.359375,0.75,849
699,1696168084318,0.044921875,-1.1712036,0.26312256,15.90625,-2.796875,2.578125,850
700,1696168084358,0.24121094,-1.4470825,0.291687,-1.9375,-5.375,1.859375,851
701,1696168084398,0.11352539,-0.829895,0.41693115,-13.875,17.296875,-3.9375,852
702,1696168084438,0.017578125,-1.0794067,0.2526245,13.28125,4.640625,-0.875,853
703,1696168084478,0.1081543,-0.8616333,0.24578857,1.484375,-8.484375,1.140625,854
704,1696168084518,0.38110352,-1.3084106,0.23504639,20.875,-12.84375,12.03125,855
705,1696168084558,0.22558594,-0.9951782,0.46746826,-16.96875,3.953125,9.421875,856
706,1696168084598,-0.040527344,-1.0044556,0.10418701,-3.671875,-3.796875,3.5625,857
707,1696168084638,0.013183594,-0.99664307,0.21868896,5.234375,-9.375,6.484375,858
708,1696168084678,0.13696289,-0.88897705,0.49310303,-13.6875,7.09375,10.578125,859
709,1696168084718,0.21289062,-0.8826294,0.27264404,13.234375,-6.8125,8.328125,860
710,1696168084758,0.10253906,-0.8670044,0.18206787,-0.578125,3.4375,2.140625,861
711,1696168084798,0.11254883,-0.84088135,0.3007202,2.484375,10.328125,3.625,862
712,1696168084838,0.2133789,-0.8545532,0.34710693,0.421875,-3.203125,1.484375,863
713,1696168084878,0.16235352,-0.9221802,0.36468506,-3.234375,-0.515625,-5.546875,864
714,1696168084918,0.0703125,-0.82525635,0.28900146,-5.796875,4.15625,-7.15625,865
715,1696168084958,0.083740234,-0.7163696,0.276062,-0.796875,0.96875,-5.703125,866
716,1696168084998,0.103271484,-0.78204346,0.36224365,1.984375,0.734375,-7.875,867
717,1696168085038,0.080078125,-0.8262329,0.38739014,-1.109375,-0.5,-9.015625,868
718,1696168085078,-0.046875,-0.9026489,0.29266357,10.671875,-1.28125,-11.78125,869
719,1696168085118,0.024658203,-0.9146118,0.36834717,1.3125,2.359375,-7.984375,870
720,1696168085158,-0.0012207031,-0.95880127,0.3295288,5.109375,8.96875,-15.265625,871
721,1696168085198,0.11621094,-1.010315,0.2987671,10.203125,8.421875,1.0,872
722,1696168085238,0.24682617,-1.0650024,0.46136475,-13.40625,-3.859375,-9.421875,873
723,1696168085278,-0.031982422,-0.9727173,0.3768921,3.5625,4.234375,-10.734375,874
724,1696168085318,-0.020751953,-1.2869263,0.19573975,1.46875,-12.984375,5.640625,875
725,1696168085358,0.08081055,-1.2393188,0.25360107,0.015625,1.15625,-2.171875,876
726,1696168085398,-0.03881836,-1.1087036,0.3475952,10.0,10.296875,-12.1875,877
727,1696168085438,0.15136719,-1.2139282,0.08050537,-24.59375,-11.109375,8.09375,878
728,1696168085478,0.25634766,-0.6802368,0.28826904,4.515625,4.03125,-9.0625,879
729,1696168085518,-0.29418945,-0.91607666,0.3637085,3.703125,21.890625,-15.53125,880
730,1696168085558,-0.057128906,-1.3792114,0.043395996,9.515625,-6.734375,4.1875,881
731,1696168085598,0.3959961,-0.894104,0.12249756,-3.765625,-14.046875,4.59375,882
732,1696168085638,0.13916016,-0.90875244,0.307312,-4.21875,15.53125,-8.515625,883
733,1696168085678,-0.22851562,-1.0007935,0.29412842,0.921875,3.46875,-8.375,884
734,1696168085718,-0.13793945,-0.8657837,0.18450928,5.390625,-7.171875,3.015625,885
735,1696168085758,0.04248047,-0.9221802,0.16546631,2.828125,4.6875,0.5625,886
736,1696168085798,0.024902344,-0.92974854,0.24554443,-4.5,8.828125,-3.609375,887
737,1696168085838,-0.06542969,-0.80914307,0.23480225,-4.671875,-1.34375,2.640625,888
738,1696168085878,-0.014892578,-0.76812744,0.20843506,-3.953125,-3.609375,5.84375,889
739,1696168085918,-0.008056641,-0.850647,0.2741089,-12.796875,-4.03125,4.15625,890
740,1696168085958,-0.06274414,-0.895813,0.26727295,-15.65625,-9.40625,-0.078125,891
741,1696168085998,-0.071777344,-0.7053833,0.28631592,5.640625,-0.4375,8.28125,892
742,1696168086038,-0.1274414,-1.0725708,0.30291748,-14.9375,-8.796875,4.078125,893
743,1696168086078,-0.09838867,-1.0291138,0.32806396,12.859375,0.859375,2.296875,894
744,1696168086118,0.02319336,-1.0879517,0.4237671,-22.859375,2.15625,5.1875,895
745,1696168086158,0.036132812,-0.9336548,0.35516357,-3.046875,2.59375,3.078125,896
746,1696168086198,-0.1743164,-1.0042114,0.41351318,-8.8125,-0.40625,-3.859375,897
747,1696168086238,-0.21264648,-0.9890747,0.3986206,7.5625,6.046875,-0.171875,898
748,1696168086278,0.0063476562,-1.0852661,0.30999756,-0.109375,-0.328125,1.921875,899
749,1696168086318,0.04345703,-1.0654907,0.33050537,6.796875,8.859375,-7.921875,900
750,1696168086358,0.022949219,-1.1538696,0.322937,7.765625,16.875,2.84375,901
751,1696168086398,0.14868164,-1.102356,0.19598389,4.140625,3.546875,5.953125,902
752,1696168086438,0.2446289,-0.895813,0.19671631,-5.515625,6.3125,7.390625,903
753,1696168086478,0.19677734,-0.96343994,0.23114014,1.46875,5.84375,4.171875,904
754,1696168086518,0.1772461,-1.029602,0.35784912,12.0625,2.3125,6.265625,905
755,1696168086558,0.10668945,-1.055481,0.17352295,4.828125,1.8125,11.09375,906
756,1696168086598,0.21728516,-1.0220337,0.14520264,-0.140625,0.671875,7.15625,907
757,1696168086638,0.24243164,-0.9019165,0.2826538,-2.625,-0.625,5.71875,908
758,1696168086678,0.22143555,-0.90509033,0.2538452,6.296875,-10.265625,5.703125,909
759,1696168086718,0.0847168,-0.8772583,0.30682373,-2.40625,3.671875,1.71875,910
