,timestamp,accel_x,accel_y,accel_z,gyro_x,gyro_y,gyro_z,ind
0,1695742010075,0.0053710938,-0.975647,-0.0025024414,-3.265625,0.25,-2.140625,0
1,1695742010115,0.0014648438,-0.98443604,0.024597168,3.75,-5.890625,-0.828125,1
2,1695742010155,-0.010498047,-1.0213013,-0.0049438477,-13.671875,-3.734375,-1.3125,2
3,1695742010195,0.041259766,-1.0288696,0.0099487305,-15.609375,-8.515625,-11.03125,3
4,1695742010235,0.032470703,-1.0757446,0.01727295,-19.71875,-8.296875,-12.203125,4
5,1695742010275,0.011230469,-0.8960571,0.1149292,-4.921875,4.171875,-12.03125,5
6,1695742010315,-0.021484375,-0.9077759,0.1449585,13.328125,11.96875,6.4375,6
7,1695742010355,-0.09643555,-0.98150635,-0.024719238,27.875,2.671875,2.375,7
8,1695742010395,-0.023925781,-1.0049438,0.012145996,-3.1875,-2.828125,8.109375,8
9,1695742010435,-0.017089844,-0.98638916,0.058532715,-0.15625,2.34375,-0.109375,9
10,1695742010475,-0.011962891,-1.0220337,-6.1035156e-05,-5.640625,-1.78125,1.015625,10
11,1695742010515,0.03125,-1.0186157,0.07244873,-7.328125,7.109375,4.515625,11
12,1695742010555,0.0068359375,-0.9829712,0.008483887,5.140625,2.28125,5.0,12
13,1695742010595,-0.012939453,-0.9924927,-0.013977051,1.828125,0.015625,1.8125,13
14,1695742010635,0.0056152344,-0.9932251,0.04901123,-5.078125,2.046875,1.8125,14
15,1695742010675,0.028076172,-0.98101807,0.010437012,1.296875,-4.390625,0.140625,15
16,1695742010715,0.063964844,-1.0164185,-0.008605957,-2.53125,-0.921875,-1.015625,16
17,1695742010755,0.022949219,-0.97247314,0.027038574,-3.0,-2.4375,-3.796875,17
18,1695742010795,-0.025146484,-0.9859009,0.05340576,6.90625,-3.328125,-0.28125,18
19,1695742010835,0.014404297,-1.0098267,0.042907715,-5.265625,-3.078125,0.453125,19
20,1695742010875,-0.008056641,-1.0073853,0.041931152,-7.71875,-2.109375,-2.703125,20
21,1695742010915,-0.005859375,-0.99468994,0.046325684,-2.4375,-2.59375,-5.015625,21
22,1695742010955,0.12597656,-1.2207642,-0.07574463,-10.734375,-16.515625,-6.390625,22
23,1695742010995,-0.19555664,-0.86724854,0.19989014,21.65625,17.6875,-27.765625,23
24,1695742011035,0.16308594,-0.9534302,0.086364746,28.0,24.625,13.359375,24
25,1695742011075,-0.38793945,-0.8098755,-0.074035645,49.40625,5.046875,-2.59375,25
26,1695742011115,0.071777344,-1.0613403,-0.23468018,9.8125,-8.34375,21.78125,26
27,1695742011155,0.016601562,-0.9673462,0.070495605,-44.546875,1.6875,-2.40625,27
28,1695742011195,-0.123535156,-1.0227661,-0.097717285,3.96875,-16.140625,-0.859375,28
29,1695742011235,0.14526367,-1.111145,-0.16143799,-29.15625,7.25,-0.03125,29
30,1695742011275,0.08691406,-0.9343872,0.18377686,-20.875,11.328125,1.40625,30
31,1695742011315,-0.017333984,-0.9866333,0.031921387,28.75,1.515625,2.0625,31
32,1695742011355,-0.08959961,-0.94317627,-0.1182251,11.71875,-4.375,2.65625,32
33,1695742011395,0.009521484,-1.0127563,-0.062805176,-25.75,-4.171875,3.46875,33
34,1695742011435,0.084228516,-0.9837036,0.010192871,-12.3125,0.4375,1.171875,34
35,1695742011475,0.09375,-1.0222778,0.008972168,3.640625,-0.5,-0.90625,35
36,1695742011515,0.018554688,-0.97857666,-0.00592041,5.703125,-0.390625,-4.125,36
37,1695742011555,-0.03100586,-0.99713135,-0.011779785,-6.15625,-3.65625,-1.75,37
38,1695742011595,-0.036621094,-0.99542236,0.0680542,-12.546875,-5.15625,-4.0,38
39,1695742011635,0.04711914,-1.0840454,0.003112793,-9.40625,-3.84375,-1.3125,39
40,1695742011675,0.19091797,-1.1121216,0.05731201,38.90625,-11.046875,-23.140625,40
41,1695742011715,-0.036621094,-0.96343994,0.03729248,102.296875,32.953125,30.09375,41
42,1695742011755,-0.08544922,-0.61553955,-0.20098877,43.75,4.703125,1.15625,42
43,1695742011795,-0.092041016,-0.84259033,-0.33428955,8.03125,-7.75,10.96875,43
44,1695742011835,0.05834961,-1.1011353,-0.13555908,-48.84375,-6.6875,-15.5,44
45,1695742011875,0.008056641,-1.05719,-0.1026001,-60.625,-4.8125,2.5,45
46,1695742011915,0.06738281,-1.0606079,-0.0044555664,9.34375,-2.984375,-3.5625,46
47,1695742011955,0.019042969,-0.98394775,-0.16070557,17.46875,6.78125,2.859375,47
48,1695742011995,0.016357422,-0.9368286,-0.09893799,-1.984375,5.671875,2.34375,48
49,1695742012035,-0.0012207031,-0.95098877,-0.039855957,-15.90625,3.359375,8.828125,49
50,1695742012075,-0.01171875,-0.99468994,-0.09259033,-9.046875,-7.375,-0.1875,50
51,1695742012115,0.040527344,-1.0339966,-0.116760254,-14.6875,-3.34375,4.140625,51
52,1695742012155,0.12670898,-0.9846802,-0.006164551,-9.28125,5.078125,1.34375,52
53,1695742012195,0.05126953,-0.9639282,-0.04840088,6.203125,-1.46875,-1.15625,53
54,1695742012235,0.068359375,-0.98394775,-0.07965088,3.046875,0.53125,0.359375,54
55,1695742012275,0.009765625,-0.9727173,-0.07940674,-11.28125,-2.609375,-4.703125,55
56,1695742012315,0.011474609,-1.03302,-0.0015258789,-19.765625,-3.953125,-3.171875,56
57,1695742012355,0.064208984,-0.9837036,0.05316162,-4.984375,-3.921875,-6.40625,57
58,1695742012395,0.14233398,-1.0994263,-0.09210205,-0.703125,-6.640625,-4.34375,58
59,1695742012435,-0.2614746,-0.9890747,0.19378662,39.6875,18.453125,-32.03125,59
60,1695742012475,0.30493164,-0.9258423,-0.1519165,67.6875,17.640625,36.90625,60
61,1695742012515,-0.23242188,-0.6265259,-0.25665283,37.34375,-2.171875,-3.09375,61
62,1695742012555,0.010253906,-0.95269775,-0.22393799,-1.390625,0.890625,4.28125,62
63,1695742012595,-0.110839844,-1.0581665,-0.20196533,-45.203125,-10.9375,-13.0625,63
64,1695742012635,0.115234375,-1.1116333,-0.08404541,-68.5625,-7.296875,4.484375,64
65,1695742012675,0.03515625,-0.95977783,0.059020996,2.1875,5.4375,-5.171875,65
66,1695742012715,0.1472168,-0.99346924,-0.11651611,30.453125,3.390625,5.921875,66
67,1695742012755,-0.0107421875,-0.94903564,-0.11236572,0.046875,4.71875,2.578125,67
68,1695742012795,-0.07543945,-0.9885864,-0.117004395,-7.40625,0.8125,-0.296875,68
69,1695742012835,0.014160156,-0.9907837,-0.07525635,-23.71875,-8.015625,1.421875,69
70,1695742012875,0.10229492,-0.97125244,0.0048217773,-18.65625,-1.59375,1.734375,70
71,1695742012915,0.020507812,-0.9998169,-0.0635376,4.03125,0.046875,-0.4375,71
72,1695742012955,0.06518555,-1.0178833,-0.07647705,-0.765625,0.203125,0.734375,72
73,1695742012995,0.044921875,-0.96417236,-0.043273926,-5.375,-2.65625,-2.6875,73
74,1695742013035,0.024169922,-0.96661377,0.0036010742,-5.140625,-1.90625,-1.984375,74
75,1695742013075,-0.007080078,-1.0044556,-0.025939941,-5.78125,-3.0,-1.25,75
76,1695742013115,0.027832031,-0.989563,-0.02545166,-9.84375,-2.1875,-0.890625,76
77,1695742013155,0.10644531,-1.0083618,0.04559326,-10.03125,2.15625,-2.0625,77
78,1695742013195,-0.03955078,-1.09552,-0.06915283,4.078125,-6.453125,-10.765625,78
79,1695742013235,-0.032470703,-1.0418091,-0.00079345703,-13.109375,2.25,-5.34375,79
80,1695742013275,0.057373047,-0.81817627,0.059509277,11.359375,5.171875,-1.25,80
81,1695742013315,0.04663086,-0.8899536,0.058044434,9.765625,14.984375,6.1875,81
82,1695742013355,-0.028564453,-1.006897,-0.04083252,12.578125,0.84375,-5.453125,82
83,1695742013395,0.045410156,-1.0095825,-0.030090332,12.6875,-5.25,10.640625,83
84,1695742013435,-0.018554688,-0.9824829,-0.020568848,11.875,-6.875,-1.5,84
85,1695742013475,0.037353516,-1.045227,-0.12213135,-20.71875,-6.03125,0.265625,85
86,1695742013515,0.010498047,-1.0112915,-0.06085205,-20.546875,13.984375,-0.53125,86
87,1695742013555,0.028076172,-0.9898071,0.07196045,8.40625,5.796875,3.84375,87
88,1695742013595,-0.032226562,-0.93414307,-0.05230713,21.421875,-2.265625,1.71875,88
89,1695742013635,0.018066406,-0.9837036,-0.113586426,-12.0,-4.28125,2.25,89
90,1695742013675,0.118896484,-1.0015259,-0.022521973,-20.515625,-3.53125,1.15625,90
91,1695742013715,0.09814453,-1.0066528,-0.035461426,1.078125,2.328125,-4.078125,91
92,1695742013755,-0.017333984,-0.97784424,-0.0049438477,-0.609375,-2.40625,-3.625,92
93,1695742013795,-0.0073242188,-1.0095825,0.024841309,-9.15625,-8.34375,-3.25,93
94,1695742013835,0.020019531,-0.9668579,0.018249512,-6.421875,-2.265625,-5.28125,94
95,1695742013875,0.061279297,-1.0567017,0.023864746,1.90625,0.828125,3.765625,95
96,1695742013915,0.17749023,-1.0747681,-0.17071533,34.796875,-23.90625,-14.625,96
97,1695742013955,-0.31030273,-1.3164673,0.23114014,94.640625,48.453125,8.0625,97
98,1695742013995,0.23510742,-0.65411377,-0.25982666,27.578125,19.390625,27.96875,98
99,1695742014035,-0.24731445,-0.49639893,-0.21246338,-3.65625,-13.859375,6.015625,99
100,1695742014075,0.12524414,-0.97540283,-0.1182251,-6.734375,-11.078125,-9.40625,100
101,1695742014115,-0.02709961,-1.1965942,-0.20587158,-42.25,-5.640625,-22.34375,101
102,1695742014155,0.076171875,-1.0725708,-0.11016846,-64.734375,-12.03125,0.46875,102
103,1695742014195,-0.08325195,-0.987854,-0.00030517578,16.453125,1.875,-2.1875,103
104,1695742014235,0.09643555,-0.9595337,-0.032043457,14.5,10.046875,8.1875,104
105,1695742014275,-0.009033203,-0.92926025,-0.11578369,1.90625,-0.1875,3.53125,105
106,1695742014315,-0.029541016,-0.9495239,-0.1560669,-24.59375,-6.21875,0.78125,106
107,1695742014355,0.0017089844,-1.0012817,0.028015137,-25.765625,-4.578125,-0.53125,107
108,1695742014395,0.083740234,-1.0108032,-0.032043457,-4.25,0.953125,3.3125,108
109,1695742014435,0.07470703,-1.0042114,-0.062805176,6.65625,4.40625,1.296875,109
110,1695742014475,0.032226562,-0.9920044,-0.047912598,3.15625,-5.390625,-3.078125,110
111,1695742014515,0.018066406,-0.93927,-0.0647583,-3.109375,-1.375,-2.6875,111
112,1695742014555,0.01928711,-1.0081177,0.022399902,-16.21875,-3.640625,-0.1875,112
113,1695742014595,-0.041992188,-0.9924927,0.042175293,-7.078125,-1.8125,-1.53125,113
114,1695742014635,0.068115234,-1.0230103,-0.020324707,-2.1875,-0.59375,1.53125,114
115,1695742014675,0.09033203,-1.0137329,0.0033569336,-0.515625,3.484375,-2.796875,115
116,1695742014715,0.024169922,-1.0144653,-0.21661377,7.390625,-13.25,-14.40625,116
117,1695742014755,-0.2631836,-1.1802368,0.4100952,37.953125,36.28125,-5.296875,117
118,1695742014795,0.5065918,-0.66973877,-0.24273682,82.828125,19.453125,30.984375,118
119,1695742014835,-0.18286133,-0.56500244,-0.23590088,0.375,-9.65625,2.953125,119
120,1695742014875,0.20678711,-0.86798096,-0.10723877,-13.34375,-11.265625,-0.625,120
121,1695742014915,-0.051757812,-1.232727,-0.13067627,-46.9375,-11.953125,-32.40625,121
122,1695742014955,-0.025634766,-1.0291138,-0.04425049,-90.65625,-3.015625,-6.453125,122
123,1695742014995,-0.2121582,-1.0747681,-0.086242676,12.703125,-6.140625,-4.578125,123
124,1695742015035,0.064453125,-0.96832275,-0.009338379,-0.84375,12.53125,10.1875,124
125,1695742015075,0.0793457,-0.90509033,0.12542725,12.015625,2.3125,11.265625,125
126,1695742015115,-0.043701172,-0.93634033,-0.07183838,16.265625,-4.0625,-0.390625,126
127,1695742015155,-0.0017089844,-1.0474243,-0.14337158,-10.9375,-6.875,0.84375,127
128,1695742015195,0.09277344,-1.0022583,0.007751465,-34.078125,4.640625,1.375,128
129,1695742015235,0.022460938,-0.97979736,0.094177246,10.203125,3.109375,0.078125,129
130,1695742015275,0.0024414062,-0.9968872,-0.04815674,22.359375,2.875,2.140625,130
131,1695742015315,-0.021728516,-0.9846802,-0.124572754,8.640625,1.09375,0.90625,131
132,1695742015355,0.012451172,-0.9829712,-0.04425049,-15.34375,-1.484375,2.3125,132
133,1695742015395,0.08251953,-0.97320557,0.03265381,-8.375,-2.484375,0.828125,133
134,1695742015435,0.09375,-1.015686,-0.077697754,9.515625,-2.140625,-1.078125,134
135,1695742015475,0.05883789,-0.98809814,-0.051574707,-6.21875,-0.421875,-3.609375,135
136,1695742015515,-0.055419922,-0.99664307,0.02532959,-6.96875,-3.171875,-1.484375,136
137,1695742015555,0.04296875,-1.0003052,0.029968262,-4.6875,-6.671875,-1.515625,137
138,1695742015595,0.04736328,-1.0046997,-0.03643799,0.015625,0.0625,-3.203125,138
139,1695742015635,-0.040771484,-0.9631958,-0.0335083,7.0,-2.390625,-3.15625,139
140,1695742015675,0.06738281,-1.2417603,0.050964355,35.8125,4.0625,-19.671875,140
141,1695742015715,0.2548828,-0.8023071,-0.13970947,114.1875,25.46875,27.609375,141
142,1695742015755,-0.21728516,-0.71343994,-0.25616455,10.40625,0.671875,9.34375,142
143,1695742015795,0.12548828,-0.66900635,-0.1531372,-34.515625,-9.34375,5.875,143
144,1695742015835,0.072265625,-1.1211548,-0.015686035,-30.078125,-1.921875,-31.34375,144
145,1695742015875,0.11425781,-1.1326294,-0.13140869,-41.765625,-3.6875,1.640625,145
146,1695742015915,-0.0715332,-1.0078735,-0.0335083,7.6875,-9.34375,-3.140625,146
147,1695742015955,-0.17553711,-0.9771118,-0.21685791,-4.59375,0.171875,-6.1875,147
148,1695742015995,-0.0078125,-0.9973755,-0.03302002,-33.765625,7.734375,2.625,148
149,1695742016035,0.07104492,-0.9546509,0.07171631,-10.5,4.125,13.3125,149
150,1695742016075,0.084472656,-0.9421997,-0.029846191,17.125,-8.734375,0.40625,150
151,1695742016115,0.021240234,-1.0125122,-0.13897705,-0.453125,-3.1875,-1.015625,151
152,1695742016155,0.013427734,-1.0147095,-0.085998535,-21.421875,2.75,0.453125,152
153,1695742016195,0.049560547,-0.98931885,-0.002746582,-1.75,-5.359375,-1.9375,153
154,1695742016235,0.06616211,-0.9771118,-0.042053223,0.234375,-1.3125,-1.234375,154
155,1695742016275,-0.010009766,-0.95977783,0.010925293,-5.890625,-0.265625,-1.171875,155
156,1695742016315,-0.022216797,-1.031311,0.014587402,-4.859375,-4.890625,-1.203125,156
157,1695742016355,0.036132812,-1.000061,0.012390137,-8.765625,-0.390625,-1.484375,157
158,1695742016395,0.07836914,-0.9932251,0.018249512,10.421875,0.71875,1.703125,158
159,1695742016435,0.037841797,-0.973938,-0.028137207,6.234375,3.25,-1.734375,159
160,1695742016475,-0.022216797,-0.98321533,-0.06549072,1.03125,-2.171875,-6.8125,160
161,1695742016515,0.1665039,-1.133606,-0.13458252,18.375,-18.6875,-8.546875,161
162,1695742016555,-0.22167969,-1.4031372,0.23260498,100.609375,55.046875,3.96875,162
163,1695742016595,-0.18383789,-0.6838989,-0.45880127,31.984375,13.09375,35.453125,163
164,1695742016635,-0.071777344,-0.51348877,-0.1609497,-17.46875,-22.234375,-1.484375,164
165,1695742016675,0.16308594,-1.0120239,-0.1375122,-36.5625,-0.96875,-24.078125,165
166,1695742016715,-0.111572266,-1.2017212,-0.006164551,-37.46875,1.203125,-4.171875,166
167,1695742016755,-0.045654297,-0.97784424,-0.12945557,28.4375,-24.53125,4.9375,167
168,1695742016795,0.036621094,-1.0557251,-0.32086182,-13.765625,-4.015625,2.375,168
169,1695742016835,0.07421875,-0.96221924,-0.13970947,-65.609375,15.484375,-10.875,169
170,1695742016875,0.027832031,-1.000061,0.18450928,-8.140625,12.25,13.125,170
171,1695742016915,-0.02734375,-0.92559814,-0.014953613,40.375,-6.90625,2.359375,171
172,1695742016955,-0.0031738281,-0.9729614,-0.20513916,14.328125,-7.90625,2.5625,172
173,1695742016995,0.072021484,-0.9944458,-0.14654541,-48.0625,-0.046875,-1.875,173
174,1695742017035,0.046142578,-1.0132446,0.049743652,-18.203125,-0.078125,-2.1875,174
175,1695742017075,0.075683594,-1.0193481,-0.040100098,16.125,-4.125,-1.03125,175
176,1695742017115,0.025146484,-0.9470825,-0.09918213,0.640625,-0.9375,-5.109375,176
177,1695742017155,-0.0031738281,-0.9829712,0.026550293,-3.75,-0.171875,1.578125,177
178,1695742017195,-0.011474609,-1.0510864,-0.03741455,-6.390625,-2.859375,-5.796875,178
179,1695742017235,0.03930664,-0.96466064,-0.023986816,-3.609375,-0.140625,-4.953125,179
180,1695742017275,0.08935547,-1.0120239,0.018737793,13.21875,1.390625,1.53125,180
181,1695742017315,-0.012451172,-0.9536743,-0.09088135,14.78125,-3.203125,-11.40625,181
182,1695742017355,0.0009765625,-0.98687744,-0.13238525,7.25,-6.4375,-1.0625,182
183,1695742017395,-0.103515625,-1.4495239,0.13690186,42.171875,30.203125,-4.5,183
184,1695742017435,0.18603516,-0.5977173,-0.38360596,54.828125,17.5625,32.8125,184
185,1695742017475,-0.31420898,-0.53082275,-0.270813,-3.453125,-15.375,2.484375,185
186,1695742017515,0.2680664,-0.8718872,-0.12261963,-34.21875,-5.703125,-3.6875,186
187,1695742017555,0.015625,-1.2024536,-0.020568848,-20.671875,4.40625,-18.328125,187
188,1695742017595,0.06762695,-1.0252075,-0.13458252,15.671875,-22.59375,2.21875,188
189,1695742017635,-0.076416016,-1.005188,-0.27960205,-13.9375,-1.921875,-2.21875,189
190,1695742017675,-0.021240234,-1.0044556,-0.14703369,-34.421875,12.984375,-3.640625,190
191,1695742017715,-0.0625,-0.9307251,0.09124756,-5.96875,5.5,10.765625,191
192,1695742017755,0.036865234,-0.9446411,-0.08258057,25.875,-7.453125,10.4375,192
193,1695742017795,0.03930664,-0.9751587,-0.23809814,5.8125,-8.71875,-0.875,193
194,1695742017835,0.05493164,-1.0151978,-0.1873169,-31.859375,3.78125,0.4375,194
195,1695742017875,0.009765625,-0.96539307,-0.046203613,-12.390625,-1.015625,-0.125,195
196,1695742017915,0.045654297,-0.98931885,-0.08502197,7.875,-3.703125,-0.15625,196
197,1695742017955,0.055908203,-0.98223877,-0.15802002,-3.125,0.34375,-1.171875,197
198,1695742017995,0.048095703,-0.9702759,-0.06817627,-14.03125,-0.984375,-3.609375,198
199,1695742018035,-0.023925781,-0.9866333,-0.01763916,-5.9375,-3.25,-2.734375,199
200,1695742018075,-0.013427734,-0.99664307,-0.065979004,-2.09375,0.3125,0.9375,200
201,1695742018115,0.06201172,-0.989563,-0.054260254,-1.71875,0.0,-1.828125,201
202,1695742018155,0.02319336,-0.98272705,-0.03692627,10.5625,5.6875,-2.4375,202
203,1695742018195,-0.04272461,-1.0100708,-0.112854004,20.6875,6.9375,3.171875,203
204,1695742018235,0.12451172,-0.9429321,-0.17120361,12.234375,-5.796875,0.015625,204
205,1695742018275,0.16113281,-1.3899536,-0.10626221,30.1875,10.71875,-20.71875,205
206,1695742018315,-0.12866211,-0.4829712,-0.3814087,44.015625,29.953125,25.625,206
207,1695742018355,-0.3046875,-0.5737915,-0.128479,13.859375,-14.34375,-2.890625,207
208,1695742018395,0.27026367,-0.86920166,-0.18585205,-28.578125,-8.59375,2.71875,208
209,1695742018435,-0.05493164,-1.1121216,-0.12286377,-19.171875,9.6875,-17.234375,209
210,1695742018475,0.099609375,-1.0610962,-0.18023682,-4.96875,-14.203125,7.34375,210
211,1695742018515,0.0075683594,-0.97076416,-0.2617798,3.5,-5.296875,4.6875,211
212,1695742018555,-0.005859375,-0.96173096,-0.12261963,-9.015625,6.515625,-3.21875,212
213,1695742018595,-0.09790039,-0.93536377,-0.14703369,15.25,2.59375,-0.234375,213
214,1695742018635,-0.0078125,-0.98883057,-0.25079346,2.078125,-8.109375,7.796875,214
215,1695742018675,0.13769531,-0.93585205,-0.15948486,-21.140625,-6.046875,1.265625,215
216,1695742018715,0.10498047,-0.9902954,-0.16485596,-11.75,0.53125,-2.734375,216
217,1695742018755,-0.03955078,-0.97369385,-0.14337158,-1.828125,3.078125,-1.234375,217
218,1695742018795,-0.05053711,-0.9627075,-0.13653564,1.265625,-1.796875,1.96875,218
219,1695742018835,0.115234375,-0.9776001,-0.19586182,-7.671875,-4.890625,0.1875,219
220,1695742018875,0.14501953,-0.9636841,-0.13604736,-19.109375,1.859375,-2.5625,220
221,1695742018915,0.02368164,-0.96881104,-0.06036377,-4.015625,-2.140625,-5.6875,221
222,1695742018955,-0.06298828,-0.97613525,-0.08453369,0.75,0.203125,-1.34375,222
223,1695742018995,0.029296875,-1.015686,-0.13458252,1.40625,1.140625,1.453125,223
224,1695742019035,0.0625,-0.9505005,-0.14239502,-1.484375,0.25,-4.15625,224
225,1695742019075,0.0390625,-0.9805298,-0.043518066,-1.859375,2.828125,-0.171875,225
226,1695742019115,-0.0546875,-0.9998169,-0.16412354,4.21875,-4.609375,-7.234375,226
227,1695742019155,0.07714844,-1.0300903,-0.124572754,-4.328125,-8.015625,-3.453125,227
228,1695742019195,0.10986328,-1.2913208,0.0119018555,40.125,21.6875,-9.828125,228
229,1695742019235,-0.09033203,-0.63946533,-0.40386963,24.734375,20.203125,42.15625,229
230,1695742019275,-0.17602539,-0.6433716,-0.22076416,-1.125,-21.171875,-3.4375,230
231,1695742019315,0.31860352,-0.91363525,-0.1038208,-41.859375,1.484375,-7.78125,231
232,1695742019355,0.030517578,-1.0574341,-0.1104126,-18.859375,-7.890625,-2.984375,232
233,1695742019395,-0.0014648438,-1.0657349,-0.085510254,2.4375,-12.71875,-6.5625,233
234,1695742019435,-0.06958008,-1.0286255,-0.2341919,15.359375,1.953125,-1.359375,234
235,1695742019475,-0.03881836,-0.9299927,-0.09503174,-12.640625,7.28125,0.40625,235
236,1695742019515,-0.07836914,-0.94195557,-0.14337158,9.75,-1.390625,6.21875,236
237,1695742019555,0.12182617,-0.98443604,-0.175354,-3.71875,-3.484375,8.046875,237
238,1695742019595,0.08911133,-0.9507446,-0.1765747,1.0625,-1.859375,0.4375,238
239,1695742019635,0.020996094,-0.986145,-0.22564697,-4.375,1.4375,-2.59375,239
240,1695742019675,-0.045898438,-0.95977783,-0.14874268,-13.171875,2.203125,-1.453125,240
241,1695742019715,-0.0068359375,-0.972229,-0.11407471,-12.90625,-0.921875,1.875,241
242,1695742019755,0.084472656,-0.98321533,-0.1338501,-16.0,-5.90625,0.90625,242
243,1695742019795,0.09716797,-0.99957275,-0.11138916,-17.203125,-0.46875,-5.34375,243
244,1695742019835,0.008544922,-0.9668579,-0.042785645,-1.296875,-0.125,-4.171875,244
245,1695742019875,-0.040039062,-0.9644165,-0.034240723,6.71875,0.578125,-0.234375,245
246,1695742019915,-0.02709961,-1.0005493,-0.11016846,-3.046875,-0.703125,0.921875,246
247,1695742019955,0.06933594,-0.9685669,-0.08795166,-14.703125,0.015625,-4.640625,247
248,1695742019995,0.03173828,-1.0230103,-0.03375244,9.96875,0.171875,-2.40625,248
249,1695742020035,0.015625,-1.000061,-0.16168213,-9.625,-1.25,-1.734375,249
250,1695742020075,0.005126953,-0.96710205,-0.028869629,-15.0625,-1.6875,-5.359375,250
251,1695742020115,0.05493164,-0.98565674,-0.04864502,5.1875,-1.515625,-3.234375,251
252,1695742020155,0.041015625,-1.3364868,0.05609131,28.984375,16.328125,-15.359375,252
253,1695742020195,0.1262207,-0.5215454,-0.27618408,87.375,31.234375,13.53125,253
254,1695742020235,-0.14648438,-0.5471802,-0.20391846,-10.640625,-16.34375,16.296875,254
255,1695742020275,0.092041016,-0.83551025,-0.11212158,-25.53125,-4.75,-11.609375,255
256,1695742020315,-0.059570312,-1.1699829,-0.13336182,-22.515625,2.828125,-9.890625,256
257,1695742020355,0.052001953,-1.0401001,-0.03692627,-5.34375,-14.203125,10.765625,257
258,1695742020395,0.060546875,-1.0359497,-0.28375244,6.203125,-3.6875,1.21875,258
259,1695742020435,0.020751953,-0.97052,-0.20440674,-30.40625,12.84375,-10.078125,259
260,1695742020475,-0.080078125,-0.9702759,0.031677246,-3.21875,3.28125,3.1875,260
261,1695742020515,-0.060302734,-0.9365845,-0.120910645,15.921875,-8.109375,8.453125,261
262,1695742020555,0.029541016,-0.9902954,-0.15997314,-10.640625,-5.421875,2.625,262
263,1695742020595,0.11206055,-0.986145,-0.15386963,-31.53125,-0.515625,-2.28125,263
264,1695742020635,0.0026855469,-0.99298096,-0.019104004,-9.515625,5.546875,0.859375,264
265,1695742020675,-0.010009766,-0.99542236,-0.046447754,10.203125,-2.421875,1.59375,265
266,1695742020715,0.11328125,-0.96051025,-0.13165283,-0.140625,-4.03125,1.484375,266
267,1695742020755,0.060058594,-0.98638916,-0.08258057,-12.375,1.1875,-1.953125,267
268,1695742020795,-0.019042969,-0.9885864,-0.036193848,-8.34375,-3.265625,-3.984375,268
269,1695742020835,0.0056152344,-0.99542236,-0.06304932,-6.578125,0.09375,-0.53125,269
270,1695742020875,0.03125,-0.98223877,0.009460449,-4.734375,0.375,-0.421875,270
271,1695742020915,0.02319336,-0.9795532,-0.054504395,3.875,-3.078125,-3.25,271
272,1695742020955,0.045898438,-1.0037231,-0.054260254,-1.953125,1.71875,-2.171875,272
273,1695742020995,-0.014160156,-0.9680786,-0.045715332,1.78125,-0.578125,-4.21875,273
274,1695742021035,-0.01171875,-0.9968872,-0.02935791,4.5,-0.953125,-0.0625,274
275,1695742021075,0.029785156,-0.97076416,-0.02520752,3.78125,4.53125,-0.203125,275
276,1695742021115,-0.020019531,-0.9656372,-0.109680176,5.78125,3.265625,-2.015625,276
277,1695742021155,0.025878906,-0.98394775,-0.058654785,-2.40625,-1.46875,-1.546875,277
278,1695742021195,0.0034179688,-1.0081177,-0.08111572,2.484375,0.59375,-3.28125,278
279,1695742021235,0.14501953,-1.1624146,-0.14849854,26.765625,-6.625,-15.375,279
280,1695742021275,-0.14233398,-0.9187622,-0.06060791,87.828125,34.078125,-5.453125,280
281,1695742021315,-0.09887695,-0.7437134,-0.22711182,25.28125,1.328125,23.34375,281
282,1695742021355,0.043945312,-0.7493286,-0.18951416,-28.984375,-10.484375,5.4375,282
283,1695742021395,0.0234375,-1.0352173,-0.07086182,-27.390625,-0.859375,-20.59375,283
284,1695742021435,0.0625,-1.1113892,-0.097717285,-6.375,-7.4375,7.765625,284
285,1695742021475,-0.011230469,-1.0266724,-0.3394165,12.03125,-6.71875,2.40625,285
286,1695742021515,0.032714844,-0.97735596,-0.14215088,-23.140625,9.421875,-0.625,286
287,1695742021555,-0.079589844,-0.9302368,-0.031066895,9.125,4.921875,1.8125,287
288,1695742021595,-0.08325195,-0.9458618,-0.25787354,18.3125,-9.0625,9.46875,288
289,1695742021635,0.10229492,-0.9570923,-0.1987915,-26.859375,-0.75,0.796875,289
290,1695742021675,0.10839844,-0.98150635,-0.13189697,-28.21875,-0.8125,-3.484375,290
291,1695742021715,-0.023925781,-1.0098267,-0.06890869,-5.546875,1.4375,-1.734375,291
292,1695742021755,-0.025878906,-0.97540283,-0.108947754,8.828125,-2.453125,2.90625,292
293,1695742021795,0.08203125,-0.9480591,-0.16729736,2.140625,-3.0,0.3125,293
294,1695742021835,0.08129883,-0.9710083,-0.13165283,-18.703125,0.34375,-3.21875,294
295,1695742021875,0.0017089844,-0.98687744,-0.034240723,-10.71875,-2.265625,-5.78125,295
296,1695742021915,-0.025878906,-1.0003052,-0.06964111,2.375,-0.953125,-2.0625,296
297,1695742021955,0.012207031,-0.9746704,-0.093811035,-1.125,2.0625,-2.265625,297
298,1695742021995,0.005859375,-1.0344849,-0.12408447,-3.0625,-4.703125,-7.25,298
299,1695742022035,0.0017089844,-1.0137329,-0.0056762695,7.75,-3.140625,-7.53125,299
300,1695742022075,0.051757812,-1.0918579,-0.02911377,34.671875,10.171875,-5.140625,300
301,1695742022115,-0.111572266,-0.7283325,-0.25152588,36.1875,5.5,16.09375,301
302,1695742022155,0.030029297,-0.9104614,-0.2156372,-1.5,-1.984375,-7.953125,302
303,1695742022195,0.040527344,-0.9212036,-0.11651611,-12.65625,6.984375,-3.484375,303
304,1695742022235,-0.13647461,-0.9727173,-0.21710205,-3.921875,-10.671875,-2.234375,304
305,1695742022275,0.04345703,-1.0684204,-0.116760254,-30.03125,-2.234375,5.484375,305
306,1695742022315,-0.024902344,-1.003479,-0.15435791,7.875,3.046875,-1.734375,306
307,1695742022355,0.060791016,-0.97491455,-0.14385986,-13.9375,2.578125,1.03125,307
308,1695742022395,-0.056884766,-0.925354,-0.105285645,-7.40625,-3.09375,1.890625,308
309,1695742022435,-0.0048828125,-0.99005127,-0.06964111,-11.5,-0.328125,5.890625,309
310,1695742022475,0.03955078,-0.9763794,-0.1375122,-2.390625,-3.65625,3.390625,310
311,1695742022515,0.029052734,-1.0088501,-0.15411377,-5.703125,0.015625,-0.15625,311
312,1695742022555,0.025878906,-0.9890747,-0.06573486,-5.1875,0.21875,0.3125,312
313,1695742022595,0.010253906,-0.94781494,-0.11480713,13.46875,-1.953125,-3.109375,313
314,1695742022635,0.05834961,-0.9998169,-0.13897705,-7.671875,1.6875,-0.328125,314
315,1695742022675,-0.030761719,-0.9697876,-0.05596924,-15.3125,0.03125,-4.859375,315
316,1695742022715,0.0043945312,-1.0137329,-0.10626221,3.59375,-5.859375,-3.765625,316
317,1695742022755,0.048828125,-1.0071411,-0.062805176,0.671875,0.28125,-0.71875,317
318,1695742022795,0.16845703,-0.9619751,-0.19390869,21.15625,-5.671875,-4.421875,318
319,1695742022835,-0.24291992,-1.319397,0.14300537,50.828125,38.953125,-9.40625,319
320,1695742022875,0.09790039,-0.5432739,-0.46881104,58.9375,6.84375,47.546875,320
321,1695742022915,-0.07373047,-0.55352783,-0.27374268,-35.875,-18.375,5.46875,321
322,1695742022955,0.12988281,-1.0122681,-0.070129395,-10.0,-0.265625,-18.5,322
323,1695742022995,-0.15649414,-1.1738892,-0.42437744,8.34375,-5.59375,5.6875,323
324,1695742023035,0.09375,-0.91241455,-0.2197876,-12.421875,-10.9375,6.890625,324
325,1695742023075,0.092285156,-0.91973877,-0.2630005,-9.171875,11.625,-8.96875,325
326,1695742023115,0.016845703,-0.99420166,-0.11895752,-19.828125,3.921875,-9.359375,326
327,1695742023155,-0.10180664,-0.9692993,-0.15240479,-4.203125,-8.796875,2.640625,327
328,1695742023195,0.063964844,-0.9717407,-0.23834229,-16.796875,-6.125,7.140625,328
329,1695742023235,0.025146484,-0.942688,-0.16949463,-27.515625,4.140625,-3.515625,329
330,1695742023275,0.07348633,-1.0169067,-0.027648926,-11.234375,3.046875,5.09375,330
331,1695742023315,0.110839844,-0.94903564,-0.14776611,20.609375,-2.3125,-5.90625,331
332,1695742023355,0.01953125,-0.927063,-0.21783447,8.640625,-2.25,-2.15625,332
333,1695742023395,-0.017333984,-0.95635986,-0.12677002,-12.296875,1.5,-5.109375,333
334,1695742023435,-0.064941406,-0.99884033,-0.18487549,-13.96875,-4.1875,-7.1875,334
335,1695742023475,0.044189453,-1.0088501,-0.089660645,-19.546875,2.328125,-2.34375,335
336,1695742023515,0.061035156,-0.9495239,-0.039367676,0.515625,1.25,-5.0,336
337,1695742023555,0.033691406,-1.0003052,-0.13922119,6.484375,-0.25,-5.890625,337
338,1695742023595,-0.049804688,-0.9495239,-0.1104126,5.546875,0.875,-5.109375,338
339,1695742023635,0.044677734,-0.9846802,-0.1272583,30.703125,-2.21875,-0.109375,339
340,1695742023675,0.11450195,-1.416565,-0.22369385,42.53125,16.3125,-14.828125,340
341,1695742023715,-0.1352539,-0.6170044,-0.16998291,3.3125,13.65625,29.734375,341
342,1695742023755,-0.2956543,-0.56451416,-0.24224854,5.265625,-23.59375,8.203125,342
343,1695742023795,0.25439453,-0.9534302,-0.25030518,-30.15625,1.171875,-14.359375,343
344,1695742023835,-0.10961914,-1.0908813,-0.10479736,-18.796875,1.09375,4.609375,344
345,1695742023875,-0.021240234,-1.024231,-0.20245361,18.765625,-15.234375,6.921875,345
346,1695742023915,-0.080322266,-1.0120239,-0.17095947,-20.296875,20.5625,1.140625,346
347,1695742023955,-0.2590332,-1.0591431,-0.085754395,16.609375,8.8125,4.4375,347
348,1695742023995,0.21386719,-0.944397,-0.5471802,-2.640625,0.78125,-2.5625,348
349,1695742024035,0.16113281,-0.8735962,-0.21612549,-75.828125,10.640625,4.828125,349
350,1695742024075,0.16625977,-0.8374634,-0.041809082,10.015625,-18.0,-2.265625,350
351,1695742024115,-0.03466797,-0.87872314,-0.10845947,-9.828125,-9.203125,3.0,351
352,1695742024155,-0.041503906,-1.192688,0.043640137,-0.78125,-16.46875,-0.234375,352
353,1695742024195,0.01977539,-1.0217896,-0.16925049,2.265625,-2.078125,-20.34375,353
354,1695742024235,0.009277344,-0.9734497,-0.12164307,-8.390625,7.9375,1.515625,354
355,1695742024275,-0.100097656,-0.8670044,-0.10064697,27.515625,-5.234375,-13.90625,355
356,1695742024315,0.056152344,-1.0459595,-0.18951416,3.25,-1.234375,0.90625,356
357,1695742024355,-0.08105469,-0.9417114,-0.10406494,-2.390625,-1.6875,-6.46875,357
358,1695742024395,0.15063477,-1.3572388,-0.18414307,34.953125,-7.265625,-6.40625,358
359,1695742024435,-0.16845703,-0.65509033,-0.14556885,40.875,27.078125,22.953125,359
360,1695742024475,-0.4362793,-0.61846924,-0.30352783,9.6875,-18.125,8.765625,360
361,1695742024515,0.0063476562,-0.9378052,-0.24053955,-40.96875,6.359375,-5.0625,361
362,1695742024555,0.037109375,-1.0864868,-0.15557861,-41.90625,1.375,4.078125,362
363,1695742024595,-0.0036621094,-1.0803833,0.11932373,-17.796875,7.53125,10.203125,363
364,1695742024635,-0.080078125,-1.0545044,-0.0015258789,40.140625,-3.171875,21.640625,364
365,1695742024675,0.04272461,-0.7305298,-0.43829346,32.875,-4.125,11.109375,365
366,1695742024715,0.3322754,-1.1079712,-0.3706665,-25.890625,8.984375,-4.765625,366
367,1695742024755,-0.08276367,-0.8237915,-0.19244385,-42.296875,-4.375,-14.625,367
368,1695742024795,0.06591797,-0.82940674,0.13568115,-37.65625,-4.484375,24.234375,368
369,1695742024835,0.06225586,-1.0962524,-0.12237549,11.140625,-28.515625,-18.296875,369
370,1695742024875,0.11743164,-1.1433716,-0.1338501,-39.421875,7.671875,-10.125,370
371,1695742024915,-0.028564453,-0.87457275,0.121520996,17.8125,7.796875,2.46875,371
372,1695742024955,-0.08105469,-0.92559814,-0.2041626,47.59375,-9.84375,-6.546875,372
373,1695742024995,0.10546875,-1.0813599,-0.2871704,-23.421875,2.109375,1.625,373
374,1695742025035,0.11303711,-0.87164307,0.28729248,-24.15625,-3.265625,-4.515625,374
375,1695742025075,0.042236328,-1.0825806,-0.19342041,40.0,-13.90625,-17.46875,375
376,1695742025115,-0.13623047,-1.2175903,0.07147217,5.1875,37.984375,3.828125,376
377,1695742025155,-0.052001953,-0.5581665,-0.11431885,27.5625,11.75,13.96875,377
378,1695742025195,-0.23583984,-0.7522583,-0.25323486,27.09375,-18.078125,8.84375,378
379,1695742025235,-0.019042969,-1.0569458,-0.27496338,-41.21875,5.953125,-14.03125,379
380,1695742025275,0.12670898,-1.0559692,-0.059143066,-49.25,-6.953125,14.671875,380
381,1695742025315,0.3256836,-1.0776978,-0.089660645,-1.46875,7.59375,-10.90625,381
382,1695742025355,-0.021240234,-0.91534424,-0.027160645,24.140625,0.21875,0.625,382
383,1695742025395,-0.14404297,-0.95928955,-0.13336182,33.375,1.171875,-10.0625,383
384,1695742025435,-0.14697266,-1.0020142,-0.2901001,-5.28125,-5.234375,-3.109375,384
385,1695742025475,0.096191406,-1.0056763,-0.08306885,-37.65625,2.5,1.75,385
386,1695742025515,0.11352539,-0.923645,-0.017150879,10.578125,-2.265625,-0.09375,386
387,1695742025555,-0.06958008,-0.98931885,-0.21002197,23.109375,-2.921875,-7.5,387
388,1695742025595,-0.107910156,-0.97052,-0.19805908,-11.953125,5.953125,-3.984375,388
389,1695742025635,-0.036865234,-0.96661377,-0.10308838,-9.71875,-1.296875,-0.84375,389
390,1695742025675,-0.016601562,-1.0437622,-0.20147705,-3.109375,-3.140625,-7.125,390
391,1695742025715,0.028564453,-0.9636841,-0.005432129,-0.390625,-0.875,-4.84375,391
392,1695742025755,0.040283203,-0.99542236,-0.16998291,1.640625,-1.015625,-3.234375,392
393,1695742025795,-0.12207031,-0.95684814,-0.18487549,2.15625,0.171875,-6.359375,393
394,1695742025835,-0.0034179688,-0.991272,-0.05303955,12.84375,-0.59375,-1.984375,394
395,1695742025875,-0.08300781,-1.2295532,-0.09918213,23.484375,25.9375,-16.15625,395
396,1695742025915,-0.11621094,-0.6589966,-0.23077393,15.921875,5.90625,18.875,396
397,1695742025955,-0.034179688,-0.8677368,-0.2576294,-21.046875,-12.640625,6.78125,397
398,1695742025995,-0.09057617,-0.94659424,-0.04522705,-30.09375,7.390625,-6.078125,398
399,1695742026035,-0.08496094,-1.0891724,-0.23028564,-13.578125,-7.390625,2.421875,399
400,1695742026075,-0.061767578,-1.0244751,-0.043518066,-5.890625,0.109375,-7.84375,400
401,1695742026115,0.0061035156,-1.024231,-0.14801025,2.75,-3.765625,7.609375,401
402,1695742026155,-0.03857422,-0.92559814,-0.10015869,-10.390625,-1.328125,2.390625,402
403,1695742026195,-0.029541016,-0.9649048,-0.057434082,-13.453125,1.71875,-1.640625,403
404,1695742026235,-0.036376953,-0.97906494,-0.09161377,-7.453125,-2.84375,3.6875,404
405,1695742026275,-0.013183594,-1.0071411,-0.10797119,-1.3125,-4.59375,6.90625,405
406,1695742026315,0.028808594,-0.960022,-0.07598877,2.46875,0.3125,2.125,406
407,1695742026355,-0.026611328,-0.9956665,-0.10015869,7.421875,-0.53125,0.6875,407
408,1695742026395,-0.016845703,-0.9837036,-0.19732666,4.34375,-2.015625,-2.96875,408
409,1695742026435,0.0146484375,-0.97125244,-0.019104004,-5.34375,2.9375,-0.09375,409
410,1695742026475,-0.012451172,-0.9859009,-0.14215088,1.5,-1.625,-2.125,410
411,1695742026515,-0.060546875,-1.0029907,-0.11798096,0.375,-1.65625,-5.203125,411
412,1695742026555,0.04638672,-0.98223877,-0.06573486,3.453125,5.109375,2.390625,412
413,1695742026595,-0.08642578,-0.93634033,-0.18121338,6.75,0.140625,-7.5,413
414,1695742026635,-0.0068359375,-1.0217896,-0.04473877,-2.53125,1.234375,-5.40625,414
415,1695742026675,0.1809082,-1.085022,-0.255188,23.609375,-12.34375,-9.078125,415
416,1695742026715,-0.4741211,-1.0293579,0.117126465,47.21875,52.015625,-4.703125,416
417,1695742026755,-0.31518555,-0.6087036,-0.30059814,31.65625,-15.921875,20.203125,417
418,1695742026795,0.2866211,-0.90826416,-0.1885376,-38.84375,-6.5,4.171875,418
419,1695742026835,-0.25195312,-0.9871216,-0.17193604,-41.90625,14.3125,-15.1875,419
420,1695742026875,0.025390625,-1.1499634,-0.12994385,2.046875,-5.4375,8.609375,420
421,1695742026915,-0.067871094,-1.0200806,-0.10406494,-8.765625,-0.734375,4.734375,421
422,1695742026955,-0.041503906,-0.9483032,-0.13043213,0.078125,-2.921875,6.21875,422
423,1695742026995,0.08544922,-0.93292236,-0.20489502,16.046875,-4.78125,-4.046875,423
424,1695742027035,0.055664062,-1.0127563,-0.09429932,-23.125,1.0,4.71875,424
425,1695742027075,-0.041992188,-0.9072876,-0.019836426,-2.359375,0.125,2.109375,425
426,1695742027115,-0.09765625,-0.9973755,-0.17218018,16.4375,-6.625,3.265625,426
427,1695742027155,0.060302734,-1.0115356,-0.15167236,-10.8125,-2.015625,3.109375,427
428,1695742027195,0.040039062,-0.9492798,-0.08331299,-1.71875,4.453125,0.875,428
429,1695742027235,-0.036376953,-0.9817505,-0.15753174,15.984375,-0.59375,1.671875,429
430,1695742027275,0.032226562,-0.9751587,-0.18048096,-3.046875,0.84375,2.84375,430
431,1695742027315,0.04638672,-0.9871216,-0.13214111,-11.640625,-2.59375,-1.625,431
432,1695742027355,0.053955078,-0.97613525,-0.15460205,-4.0,-0.1875,-7.640625,432
433,1695742027395,-0.018310547,-0.9898071,-0.13018799,-7.421875,2.296875,-4.359375,433
434,1695742027435,-0.033447266,-0.96051025,-0.050598145,2.40625,-1.15625,-4.5625,434
435,1695742027475,-0.041259766,-0.9734497,-0.15679932,1.34375,-0.921875,-5.484375,435
436,1695742027515,-0.0637207,-0.991272,-0.11920166,-6.140625,-5.015625,-5.828125,436
437,1695742027555,0.03466797,-1.0149536,-0.062316895,-4.984375,3.09375,3.421875,437
438,1695742027595,-0.07495117,-0.9663696,-0.1531372,-0.296875,-1.171875,-3.59375,438
439,1695742027635,0.00024414062,-1.0007935,-0.027404785,-3.5625,-2.75,-2.375,439
440,1695742027675,0.07885742,-1.0078735,-0.13677979,3.90625,0.84375,1.953125,440
441,1695742027715,0.03100586,-1.1621704,-0.21929932,14.3125,-12.765625,-18.875,441
442,1695742027755,-0.23876953,-0.8530884,0.019714355,45.828125,40.75,13.75,442
443,1695742027795,-0.25024414,-0.61553955,-0.30743408,34.171875,-1.328125,4.734375,443
444,1695742027835,0.2607422,-0.9360962,-0.14483643,-26.34375,-9.03125,3.296875,444
445,1695742027875,-0.15844727,-0.9920044,-0.20196533,-17.859375,-0.3125,-8.90625,445
446,1695742027915,-0.030273438,-1.1104126,-0.1416626,-18.796875,-5.25,3.75,446
447,1695742027955,-0.15209961,-1.0344849,-0.07354736,0.171875,0.15625,4.59375,447
448,1695742027995,-0.15332031,-0.97198486,0.038024902,21.625,8.390625,4.125,448
449,1695742028035,0.01953125,-0.9673462,-0.1638794,43.8125,4.84375,18.390625,449
450,1695742028075,0.052246094,-0.98443604,-0.4385376,12.984375,16.78125,-3.515625,450
451,1695742028115,0.265625,-0.9307251,-0.35430908,-7.1875,-11.265625,6.171875,451
452,1695742028155,0.12475586,-0.7366333,-0.3340454,-19.5,1.375,5.4375,452
453,1695742028195,-0.019042969,-0.87213135,-0.117492676,-57.0,-6.984375,-9.625,453
454,1695742028235,-0.21362305,-1.0593872,-0.0154418945,-24.5625,-27.6875,-27.90625,454
455,1695742028275,-0.013671875,-1.2910767,-0.19683838,-24.96875,1.4375,-4.390625,455
456,1695742028315,0.11010742,-0.80352783,0.29730225,-3.171875,13.75,4.5625,456
457,1695742028355,-0.06225586,-0.8413696,-0.12042236,44.78125,-4.0,-0.09375,457
458,1695742028395,-0.16723633,-1.0425415,-0.35113525,2.375,-11.71875,-3.75,458
459,1695742028435,0.08544922,-1.0530396,-0.054992676,-66.828125,7.078125,4.21875,459
460,1695742028475,-0.017822266,-0.91778564,0.011413574,29.15625,-10.515625,-3.671875,460
461,1695742028515,-0.029052734,-1.0305786,-0.18951416,-4.78125,-0.140625,-1.09375,461
462,1695742028555,0.03857422,-0.96051025,-0.035217285,-10.421875,4.390625,-0.34375,462
463,1695742028595,-0.07446289,-0.9639282,-0.06817627,8.0625,-1.53125,1.109375,463
464,1695742028635,-0.06982422,-1.0322876,-0.120910645,-4.1875,-0.9375,2.28125,464
465,1695742028675,0.03173828,-0.9644165,0.0072631836,-12.203125,2.71875,1.421875,465
466,1695742028715,0.021972656,-0.9841919,-0.08721924,3.484375,0.40625,-0.265625,466
467,1695742028755,0.027832031,-0.99176025,-0.05596924,-3.3125,2.4375,-1.78125,467
468,1695742028795,-0.026855469,-0.9824829,-0.08306885,-1.84375,-1.09375,-3.109375,468
469,1695742028835,-0.017333984,-0.9729614,-0.034973145,-6.90625,-0.125,-2.5625,469
470,1695742028875,0.04663086,-0.9768677,-0.043273926,-0.390625,3.046875,-2.109375,470
471,1695742028915,-0.04663086,-1.0056763,-0.074279785,1.5625,-0.6875,-5.671875,471
472,1695742028955,-0.013916016,-1.0042114,-0.023742676,1.421875,0.1875,-4.71875,472
473,1695742028995,0.0012207031,-0.96051025,-0.051086426,2.3125,3.46875,-5.109375,473
474,1695742029035,-0.13989258,-0.9768677,-0.07989502,6.203125,0.296875,-8.4375,474
475,1695742029075,-0.0793457,-1.015686,-0.07208252,-1.65625,-5.109375,-6.09375,475
476,1695742029115,-0.09765625,-0.9920044,-0.035949707,0.875,5.734375,0.140625,476
477,1695742029155,0.07421875,-1.0322876,-0.13653564,23.125,-0.265625,9.328125,477
478,1695742029195,-0.17114258,-1.031311,-0.0051879883,75.203125,32.25,-6.09375,478
479,1695742029235,0.10180664,-0.7852173,-0.33868408,28.140625,-2.90625,30.28125,479
480,1695742029275,-0.1772461,-0.85528564,-0.23931885,-28.125,-0.734375,-10.4375,480
481,1695742029315,-0.1928711,-1.034729,-0.13946533,-17.84375,-5.140625,-6.359375,481
482,1695742029355,0.10864258,-1.0525513,-0.21685791,-15.96875,-7.90625,7.96875,482
483,1695742029395,0.010009766,-0.9241333,-0.15777588,-6.109375,0.703125,-3.671875,483
484,1695742029435,-0.01977539,-0.9817505,-0.18243408,-12.484375,-0.9375,-2.625,484
485,1695742029475,-0.044921875,-0.9336548,-0.020568848,-6.703125,-4.109375,0.46875,485
486,1695742029515,-0.057373047,-1.0205688,-0.14898682,0.734375,-6.25,1.734375,486
487,1695742029555,0.0053710938,-0.97491455,-0.15509033,-9.15625,-2.203125,-0.25,487
488,1695742029595,0.013671875,-0.9468384,-0.097229004,-6.15625,0.21875,-2.90625,488
489,1695742029635,-0.04638672,-0.98638916,-0.08380127,-0.5625,-4.1875,-2.1875,489
490,1695742029675,-0.032714844,-0.9890747,-0.11920166,-2.3125,-2.203125,-0.609375,490
491,1695742029715,-0.04321289,-0.9714966,-0.10870361,-7.078125,-0.96875,-2.390625,491
492,1695742029755,-0.033203125,-0.97613525,-0.07281494,-4.8125,1.171875,-1.34375,492
493,1695742029795,-0.01953125,-1.0061646,-0.08795166,-5.171875,-1.296875,1.671875,493
494,1695742029835,-0.07324219,-0.9751587,-0.14312744,-4.09375,3.4375,0.921875,494
495,1695742029875,-0.11352539,-0.98883057,-0.08331299,0.4375,-0.015625,0.09375,495
496,1695742029915,0.00048828125,-0.9951782,-0.061828613,-4.90625,1.21875,1.953125,496
497,1695742029955,0.046875,-0.9651489,-0.10040283,-5.625,1.1875,1.4375,497
498,1695742029995,0.09057617,-0.9678345,-0.07232666,-1.390625,-3.09375,-0.734375,498
499,1695742030035,-0.01953125,-0.99786377,-0.047180176,8.09375,2.1875,1.484375,499
500,1695742030075,-0.016113281,-1.0005493,-0.12384033,9.921875,-2.328125,-3.265625,500
501,1695742030115,-0.09741211,-0.97735596,-0.11212158,9.28125,7.40625,-9.890625,501
502,1695742030155,0.0847168,-0.99884033,-0.13922119,23.921875,3.609375,2.125,502
503,1695742030195,-0.14868164,-0.9619751,-0.27886963,1.234375,-6.109375,-12.3125,503
504,1695742030235,-0.02734375,-0.9006958,0.0602417,-7.390625,2.6875,-10.046875,504
505,1695742030275,-0.07861328,-0.8870239,-0.12384033,15.078125,13.9375,-0.046875,505
506,1695742030315,-0.2668457,-0.94854736,-0.11968994,12.40625,2.265625,11.390625,506
507,1695742030355,-0.15209961,-0.9951782,-0.22076416,1.8125,-2.078125,13.28125,507
508,1695742030395,0.011474609,-0.99298096,-0.20855713,-12.96875,-9.59375,10.90625,508
509,1695742030435,0.052490234,-0.9585571,-0.16436768,-23.09375,-1.671875,3.421875,509
510,1695742030475,0.10595703,-1.0046997,-0.12750244,-11.8125,-5.140625,0.96875,510
511,1695742030515,0.011230469,-0.97442627,-0.09039307,-10.203125,0.984375,1.234375,511
512,1695742030555,-0.05810547,-0.9414673,-0.055236816,2.9375,-1.984375,5.234375,512
513,1695742030595,-0.0949707,-1.006897,-0.12872314,9.078125,-4.359375,6.640625,513
514,1695742030635,0.049560547,-0.9763794,-0.14434814,3.234375,-0.640625,13.171875,514
515,1695742030675,0.14477539,-0.9751587,-0.15631104,15.75,-2.5625,4.75,515
516,1695742030715,0.078125,-0.95880127,-0.14068604,15.578125,1.171875,3.78125,516
517,1695742030755,0.052734375,-0.99053955,-0.2720337,14.59375,3.125,0.078125,517
518,1695742030795,0.024902344,-0.98809814,-0.33551025,-21.40625,0.0,-5.859375,518
519,1695742030835,0.063964844,-0.909729,-0.030090332,-38.078125,7.453125,-9.578125,519
520,1695742030875,0.03564453,-1.0169067,-0.12042236,14.625,-5.90625,-5.078125,520
521,1695742030915,-0.004638672,-1.0239868,-0.27374268,3.046875,-7.71875,-5.359375,521
522,1695742030955,-0.20678711,-1.1829224,0.21234131,28.609375,46.6875,-16.09375,522
523,1695742030995,0.064941406,-0.565979,-0.40753174,51.53125,12.78125,35.71875,523
524,1695742031035,-0.00024414062,-0.7678833,-0.25274658,-4.46875,-13.84375,17.328125,524
525,1695742031075,0.099609375,-0.8357544,0.05316162,-35.625,10.296875,-7.71875,525
526,1695742031115,-0.13793945,-0.95758057,-0.04058838,23.4375,-10.296875,8.96875,526
527,1695742031155,0.123291016,-1.1050415,-0.3880005,41.203125,-8.21875,-3.046875,527
528,1695742031195,0.15161133,-1.2463989,-0.59576416,-24.4375,8.296875,0.203125,528
529,1695742031235,0.29492188,-0.69537354,-0.315979,-45.125,13.796875,-9.453125,529
530,1695742031275,0.0075683594,-0.77838135,-0.046936035,-6.953125,-15.21875,0.3125,530
531,1695742031315,-0.036376953,-0.87579346,-0.21905518,-34.59375,-17.359375,2.0,531
532,1695742031355,0.033935547,-1.2053833,0.023620605,-55.765625,-16.40625,-12.03125,532
533,1695742031395,0.1105957,-1.0349731,-0.022277832,-15.78125,3.40625,-3.96875,533
534,1695742031435,0.07714844,-0.8748169,-0.081848145,21.828125,1.640625,0.84375,534
535,1695742031475,0.078125,-1.0088501,-0.21417236,33.96875,-3.078125,-10.796875,535
536,1695742031515,-0.11767578,-1.055481,-0.32720947,-8.875,-1.15625,-18.984375,536
537,1695742031555,0.24145508,-1.0784302,0.2699585,-18.171875,3.328125,-8.78125,537
538,1695742031595,0.057128906,-0.8435669,-0.03741455,42.421875,22.765625,8.34375,538
539,1695742031635,-0.45166016,-0.7161255,-0.20196533,33.375,-8.671875,2.265625,539
540,1695742031675,-0.0690918,-1.0254517,-0.2144165,-32.734375,-7.203125,15.25,540
541,1695742031715,0.25,-1.1206665,-0.120666504,-55.71875,-2.03125,8.625,541
542,1695742031755,0.115722656,-1.010315,-0.1350708,5.875,6.453125,-11.078125,542
543,1695742031795,-0.10424805,-0.9475708,-0.08917236,24.890625,2.59375,-7.546875,543
544,1695742031835,-0.061035156,-0.9133911,-0.07305908,11.75,-2.40625,10.0,544
545,1695742031875,0.020996094,-0.98272705,-0.23858643,-0.46875,-3.296875,1.03125,545
546,1695742031915,0.11035156,-1.0457153,-0.14630127,-33.03125,-3.765625,-1.859375,546
547,1695742031955,0.03955078,-0.9258423,-0.012756348,-6.203125,1.796875,-0.640625,547
548,1695742031995,0.07373047,-1.0032349,-0.13848877,18.59375,-0.140625,0.6875,548
549,1695742032035,-0.00024414062,-0.96417236,-0.21685791,2.1875,-1.375,-5.046875,549
550,1695742032075,0.06738281,-1.0449829,-0.18756104,-8.0,-1.90625,-10.171875,550
551,1695742032115,0.048828125,-1.1362915,0.02142334,-0.390625,-6.71875,-7.703125,551
552,1695742032155,-0.0036621094,-0.8633423,-0.047912598,6.796875,11.453125,10.25,552
553,1695742032195,-0.3125,-0.69317627,-0.20269775,21.859375,6.921875,-18.3125,553
554,1695742032235,-0.048828125,-0.9546509,-0.054504395,0.5625,-4.296875,-5.703125,554
555,1695742032275,-0.048828125,-0.9985962,-0.023498535,-0.4375,4.015625,14.03125,555
556,1695742032315,-0.027832031,-1.0440063,-0.30377197,-6.0,-7.140625,9.921875,556
557,1695742032355,0.10473633,-1.0401001,-0.12774658,-13.328125,-0.53125,-2.8125,557
558,1695742032395,0.05517578,-0.9644165,-0.032287598,-3.640625,14.453125,-2.984375,558
559,1695742032435,0.0063476562,-0.99884033,0.030456543,21.828125,21.34375,19.921875,559
560,1695742032475,-0.19726562,-0.8110962,-0.11236572,103.71875,3.0,20.859375,560
561,1695742032515,0.07006836,-1.1148071,-0.78302,35.484375,-3.546875,5.296875,561
562,1695742032555,0.41479492,-0.6917114,-0.53326416,-68.0,14.515625,-2.203125,562
563,1695742032595,0.12084961,-0.83135986,-0.06744385,-72.734375,-13.65625,-5.46875,563
564,1695742032635,-0.013671875,-0.9019165,-0.034240723,-27.453125,-16.984375,-10.84375,564
565,1695742032675,-0.29638672,-1.2124634,-0.17877197,-4.578125,-26.109375,-19.953125,565
566,1695742032715,0.20874023,-1.0962524,-0.1560669,-41.546875,3.859375,-0.375,566
567,1695742032755,0.067871094,-0.786438,0.19525146,12.640625,10.875,1.6875,567
568,1695742032795,-0.06347656,-0.9146118,-0.17437744,34.96875,-9.40625,-6.421875,568
569,1695742032835,-0.014160156,-1.0928345,-0.24273682,-27.078125,-7.8125,-0.78125,569
570,1695742032875,0.076171875,-0.9175415,0.13006592,-28.578125,9.59375,3.484375,570
571,1695742032915,-0.0063476562,-0.9973755,-0.11065674,17.828125,-1.828125,-4.125,571
572,1695742032955,0.0690918,-0.9990845,-0.11187744,-9.453125,2.046875,-0.828125,572
573,1695742032995,-0.032226562,-0.9741821,-0.07745361,-2.796875,-2.828125,-0.9375,573
574,1695742033035,0.030029297,-0.9932251,-0.035949707,2.046875,1.3125,0.65625,574
575,1695742033075,0.006591797,-0.9644165,-0.08111572,-3.265625,1.046875,1.375,575
576,1695742033115,-0.049316406,-0.98150635,-0.06304932,-3.75,-1.65625,0.109375,576
577,1695742033155,0.10083008,-1.0078735,-0.035705566,-3.546875,1.3125,1.75,577
578,1695742033195,0.019042969,-0.9614868,-0.08062744,-2.234375,2.296875,-0.28125,578
579,1695742033235,0.0063476562,-0.9729614,-0.05645752,-1.28125,-1.140625,-1.421875,579
580,1695742033275,0.02319336,-0.9963989,-0.050598145,-3.59375,2.328125,-1.890625,580
581,1695742033315,-0.012939453,-0.9817505,-0.07110596,2.234375,0.03125,-2.078125,581
582,1695742033355,0.011474609,-0.9932251,-0.058654785,-3.5625,0.375,-2.265625,582
583,1695742033395,0.009765625,-0.99468994,-0.03717041,-1.515625,0.109375,-0.109375,583
584,1695742033435,0.012939453,-0.9859009,-0.03692627,-0.578125,-0.765625,-2.890625,584
585,1695742033475,-0.021972656,-0.9788208,-0.062561035,-1.53125,0.234375,-2.578125,585
586,1695742033515,-0.0014648438,-0.991272,-0.043273926,-2.203125,-1.09375,-2.796875,586
587,1695742033555,-0.006591797,-0.98150635,-0.050842285,-0.921875,-0.859375,-3.4375,587
588,1695742033595,-0.037353516,-1.0012817,-0.06817627,-1.703125,-1.484375,-2.53125,588
589,1695742033635,0.0026855469,-0.98028564,-0.034729004,-2.671875,0.609375,-0.03125,589
590,1695742033675,-0.045166016,-0.98931885,-0.03277588,-0.53125,-0.96875,0.734375,590
591,1695742033715,0.0126953125,-0.98272705,-0.031066895,-2.1875,0.734375,-0.109375,591
592,1695742033755,0.01171875,-0.99591064,-0.055480957,-0.859375,0.109375,1.3125,592
593,1695742033795,0.009277344,-0.9990845,-0.05230713,1.359375,-1.734375,-3.140625,593
594,1695742033835,0.083984375,-1.100647,-0.1729126,3.90625,-9.796875,-8.890625,594
595,1695742033875,-0.05419922,-0.9859009,0.16571045,5.265625,1.78125,-3.1875,595
596,1695742033915,0.092041016,-0.80718994,-0.016418457,26.5,19.875,6.5625,596
597,1695742033955,-0.3491211,-0.87994385,-0.055480957,26.625,7.234375,11.59375,597
598,1695742033995,0.0041503906,-0.99835205,-0.17779541,-4.640625,-9.921875,7.34375,598
599,1695742034035,0.096191406,-1.0596313,-0.1416626,-18.75,5.21875,-2.578125,599
600,1695742034075,0.08984375,-0.9585571,-0.08013916,3.921875,2.640625,3.53125,600
601,1695742034115,-0.11743164,-0.98321533,-0.1765747,5.09375,-3.625,3.859375,601
602,1695742034155,-0.017333984,-0.975647,-0.0881958,-14.78125,-2.515625,4.15625,602
603,1695742034195,0.09277344,-0.960022,-0.047424316,-4.875,-2.53125,6.53125,603
604,1695742034235,0.05102539,-1.0049438,-0.113342285,7.15625,-3.671875,2.15625,604
605,1695742034275,0.031982422,-1.008606,-0.18096924,-5.1875,0.984375,-1.109375,605
606,1695742034315,0.06567383,-0.9768677,-0.10040283,-3.96875,-2.03125,-1.078125,606
607,1695742034355,0.17602539,-1.1099243,-0.2312622,-1.9375,-6.125,-11.5625,607
608,1695742034395,-0.12792969,-0.95147705,-0.019836426,-3.34375,1.59375,-25.328125,608
609,1695742034435,0.06274414,-0.96832275,0.027770996,19.921875,11.203125,11.359375,609
610,1695742034475,-0.1484375,-0.7349243,-0.16241455,15.59375,7.1875,0.390625,610
611,1695742034515,-0.095458984,-0.9368286,-0.09844971,2.96875,-5.15625,0.96875,611
612,1695742034555,0.0029296875,-1.0742798,-0.12164307,-19.65625,-3.21875,-2.296875,612
613,1695742034595,0.040527344,-1.0386353,-0.14459229,3.0625,2.78125,3.265625,613
614,1695742034635,-0.08666992,-0.9902954,-0.17584229,1.671875,-3.421875,-0.46875,614
615,1695742034675,0.011474609,-0.94073486,-0.1026001,-9.5625,5.375,3.40625,615
616,1695742034715,0.08642578,-0.95562744,-0.11016846,-8.703125,-0.109375,-4.828125,616
617,1695742034755,-0.029785156,-0.99102783,-0.06890869,-1.015625,-0.421875,-1.25,617
618,1695742034795,-0.007080078,-0.99591064,-0.11383057,3.9375,0.0625,0.6875,618
619,1695742034835,0.013671875,-0.9920044,-0.15802002,-7.15625,-3.734375,-4.34375,619
620,1695742034875,0.084228516,-1.123352,-0.24957275,-9.28125,-9.875,-13.375,620
621,1695742034915,-0.1616211,-0.87945557,0.07952881,-3.203125,2.3125,-20.203125,621
622,1695742034955,0.07836914,-0.8933716,0.006286621,33.859375,14.21875,15.515625,622
623,1695742034995,-0.3010254,-0.8562622,-0.26397705,22.265625,-0.984375,8.40625,623
624,1695742035035,-0.044433594,-1.0293579,-0.14093018,-19.921875,-7.453125,2.140625,624
625,1695742035075,0.092041016,-1.0298462,-0.15753174,-11.90625,6.234375,-1.84375,625
626,1695742035115,0.010009766,-0.98516846,-0.15948486,6.390625,1.140625,-0.046875,626
627,1695742035155,-0.08691406,-0.9793091,-0.190979,0.46875,-0.296875,-0.359375,627
628,1695742035195,-0.04345703,-0.9500122,-0.09844971,-3.953125,1.953125,-1.75,628
629,1695742035235,-0.007080078,-0.97442627,-0.13653564,-0.96875,-1.375,-1.6875,629
630,1695742035275,-0.052001953,-0.98809814,-0.12774658,-5.3125,0.328125,0.84375,630
631,1695742035315,-0.00390625,-0.98150635,-0.13433838,-5.53125,0.171875,2.28125,631
632,1695742035355,0.0024414062,-0.96466064,-0.14190674,-1.625,-0.25,-0.375,632
633,1695742035395,-0.026855469,-0.987854,-0.10723877,-0.296875,0.484375,-2.9375,633
634,1695742035435,-0.015625,-0.99591064,-0.16241455,-2.0625,-3.0,-6.484375,634
635,1695742035475,-0.02758789,-1.0303345,-0.13800049,2.421875,-4.84375,-7.015625,635
636,1695742035515,0.10083008,-1.2341919,-0.06524658,14.453125,-3.171875,2.09375,636
637,1695742035555,-0.3322754,-0.7539673,-0.1873169,48.53125,43.125,4.296875,637
638,1695742035595,-0.20043945,-0.74884033,-0.2642212,9.109375,-13.453125,14.578125,638
639,1695742035635,0.15966797,-0.9077759,-0.13970947,-33.203125,-6.4375,-3.65625,639
640,1695742035675,-0.022216797,-0.98638916,-0.03668213,-12.34375,-3.0625,-2.28125,640
641,1695742035715,-0.028076172,-1.0249634,-0.1038208,0.6875,3.625,7.9375,641
642,1695742035755,-0.24438477,-0.97662354,-0.054748535,27.046875,30.03125,21.625,642
643,1695742035795,-0.03881836,-0.8796997,-0.46881104,83.5625,4.515625,5.828125,643
644,1695742035835,0.005126953,-1.0681763,-0.44171143,-23.234375,2.578125,14.5,644
645,1695742035875,0.35791016,-0.86065674,-0.27593994,-45.078125,6.359375,-15.453125,645
646,1695742035915,-0.049072266,-0.7854614,-0.25787354,-13.46875,-21.390625,-0.78125,646
647,1695742035955,0.0871582,-0.94244385,-0.24786377,-53.109375,-17.359375,-5.390625,647
648,1695742035995,-0.19311523,-1.0784302,0.113220215,-49.625,-21.03125,-35.4375,648
649,1695742036035,0.048339844,-1.1231079,0.07220459,7.21875,0.765625,1.640625,649
650,1695742036075,-0.04736328,-0.9055786,-0.18804932,14.546875,-1.1875,4.78125,650
651,1695742036115,-0.1472168,-0.95098877,-0.20025635,8.953125,-8.515625,-8.546875,651
652,1695742036155,0.1081543,-1.0813599,0.074401855,4.484375,-8.953125,1.15625,652
653,1695742036195,0.15332031,-1.2166138,0.06561279,30.171875,18.96875,3.890625,653
654,1695742036235,-0.34936523,-0.6626587,-0.32647705,50.859375,33.375,17.484375,654
655,1695742036275,-0.23779297,-0.7974243,-0.2979126,2.4375,-26.109375,11.3125,655
656,1695742036315,0.23071289,-0.9854126,-0.117248535,-62.109375,5.0,-9.4375,656
657,1695742036355,-0.009765625,-1.0847778,-0.15704346,-4.9375,-13.015625,-4.34375,657
658,1695742036395,0.16967773,-1.1013794,-0.09918213,-3.375,0.484375,-5.5,658
659,1695742036435,0.04345703,-0.94610596,-0.14483643,10.703125,2.59375,9.59375,659
660,1695742036475,-0.05493164,-0.94366455,-0.18658447,5.390625,1.640625,-0.375,660
661,1695742036515,-0.08520508,-0.9834595,-0.1975708,-18.5,-1.015625,-7.703125,661
662,1695742036555,0.07080078,-0.98931885,-0.030334473,2.4375,1.703125,3.703125,662
663,1695742036595,-0.007080078,-0.958313,-0.21514893,8.484375,-1.171875,-1.421875,663
664,1695742036635,0.032714844,-0.9932251,-0.15167236,-9.21875,0.296875,-4.109375,664
665,1695742036675,-0.024658203,-0.975647,-0.13995361,-2.046875,-1.0625,-6.203125,665
666,1695742036715,-0.00390625,-0.97784424,-0.12213135,5.953125,0.125,-4.21875,666
667,1695742036755,0.033447266,-0.973938,-0.1585083,0.796875,-2.40625,-3.59375,667
668,1695742036795,0.15844727,-1.1177368,-0.3171997,11.203125,-14.015625,-12.453125,668
669,1695742036835,-0.21435547,-0.9849243,0.17303467,39.59375,40.28125,-6.71875,669
670,1695742036875,-0.3154297,-0.57940674,-0.33013916,32.625,-8.28125,15.828125,670
671,1695742036915,0.16088867,-0.975647,-0.28546143,-36.90625,-11.46875,5.515625,671
672,1695742036955,-0.17358398,-0.83135986,0.13348389,-28.984375,1.359375,-5.59375,672
673,1695742036995,0.026855469,-1.1213989,-0.255188,2.359375,-3.484375,-1.484375,673
674,1695742037035,-0.03955078,-1.0066528,-0.21905518,-3.21875,-4.09375,2.9375,674
675,1695742037075,-0.032470703,-0.9517212,-0.190979,-7.078125,2.21875,-3.09375,675
676,1695742037115,-0.030761719,-0.94903564,-0.14654541,-12.53125,-1.25,-7.046875,676
677,1695742037155,-0.031982422,-0.98638916,-0.054260254,-5.921875,-4.953125,-0.625,677
678,1695742037195,-0.05810547,-0.9780884,-0.13116455,3.03125,2.46875,2.78125,678
679,1695742037235,-0.021484375,-0.97320557,-0.19122314,-1.40625,-2.203125,0.046875,679
680,1695742037275,-0.0009765625,-0.98272705,-0.1116333,-6.78125,0.234375,-1.625,680
681,1695742037315,-0.024902344,-0.97906494,-0.13360596,0.84375,1.15625,-3.484375,681
682,1695742037355,-0.01928711,-0.9651489,-0.13018799,3.4375,0.03125,-4.3125,682
683,1695742037395,-0.02758789,-0.9768677,-0.16680908,-0.4375,0.296875,-2.9375,683
684,1695742037435,-0.064697266,-1.0320435,-0.17974854,-2.9375,-7.953125,-9.453125,684
685,1695742037475,0.038330078,-1.0010376,-0.1116333,9.984375,-0.65625,1.734375,685
686,1695742037515,-0.09692383,-1.187561,0.07269287,18.625,21.171875,-1.546875,686
687,1695742037555,-0.041748047,-0.6494751,-0.18267822,24.0,10.265625,36.4375,687
688,1695742037595,-0.17456055,-0.8008423,-0.30743408,4.609375,-14.671875,16.796875,688
689,1695742037635,0.057373047,-1.008606,-0.17584229,-36.109375,4.5625,-12.15625,689
690,1695742037675,0.07543945,-0.9692993,-0.1531372,-41.859375,-6.375,6.765625,690
691,1695742037715,0.05810547,-1.0466919,-0.11505127,-6.65625,-7.53125,-4.421875,691
692,1695742037755,-0.09814453,-1.0637817,-0.1404419,11.96875,-1.546875,-6.234375,692
693,1695742037795,-0.0949707,-0.9260864,-0.17144775,5.984375,1.5625,3.1875,693
694,1695742037835,-0.03540039,-0.93951416,-0.082092285,-12.65625,0.1875,-0.84375,694
695,1695742037875,-0.040771484,-1.0066528,-0.08428955,-13.140625,-0.234375,6.234375,695
696,1695742037915,0.052734375,-0.98565674,-0.08648682,-8.625,-0.265625,9.0625,696
697,1695742037955,0.1184082,-0.9663696,-0.10430908,-4.3125,1.0,2.671875,697
698,1695742037995,0.0034179688,-0.9729614,-0.11016846,-2.296875,-0.921875,-4.40625,698
699,1695742038035,-0.038085938,-1.0054321,-0.093811035,4.921875,0.359375,-2.34375,699
700,1695742038075,0.020751953,-0.9505005,-0.10406494,5.15625,-0.15625,-1.421875,700
701,1695742038115,0.051757812,-1.0005493,-0.11553955,3.109375,-1.015625,-2.875,701
702,1695742038155,0.013427734,-0.9751587,-0.10992432,1.15625,0.5,-5.0,702
703,1695742038195,0.10913086,-1.0684204,-0.16217041,10.828125,-11.609375,-0.15625,703
704,1695742038235,-0.11230469,-0.9121704,-0.0134887695,14.921875,4.515625,-3.09375,704
705,1695742038275,-0.13061523,-0.9636841,-0.29693604,14.921875,-15.53125,-13.203125,705
706,1695742038315,-0.021484375,-1.1182251,0.06976318,3.171875,19.5625,1.796875,706
707,1695742038355,-0.061523438,-0.7888794,-0.24468994,25.34375,19.0,11.640625,707
708,1695742038395,-0.1772461,-0.8128052,-0.28009033,-7.953125,-13.90625,9.8125,708
709,1695742038435,-0.0126953125,-0.8526001,-0.12872314,-10.5625,-3.15625,-1.203125,709
710,1695742038475,0.025390625,-1.024231,-0.07354736,-5.921875,2.90625,2.21875,710
711,1695742038515,-0.040527344,-1.0852661,-0.11383057,4.5,23.203125,13.109375,711
712,1695742038555,-0.1784668,-0.97052,-0.22076416,48.015625,9.96875,-0.15625,712
713,1695742038595,0.08154297,-1.0464478,-0.48468018,-5.25,9.96875,-11.453125,713
714,1695742038635,0.11694336,-0.8989868,-0.33184814,-43.703125,4.453125,-4.78125,714
715,1695742038675,0.07421875,-0.8110962,-0.10845947,-36.625,-19.6875,12.921875,715
716,1695742038715,0.06542969,-0.8740845,-0.17852783,-41.125,-11.90625,-9.21875,716
717,1695742038755,-0.23242188,-1.0698853,0.19329834,-25.84375,-27.09375,-17.890625,717
718,1695742038795,0.115234375,-1.1780396,-0.008361816,0.46875,-3.75,-0.984375,718
719,1695742038835,-0.039794922,-0.93096924,-0.15679932,18.046875,6.421875,-3.609375,719
720,1695742038875,-0.048828125,-0.9060669,-0.17779541,18.609375,-0.234375,-3.265625,720
721,1695742038915,-0.015380859,-1.0579224,0.034362793,17.171875,-14.234375,1.734375,721
722,1695742038955,0.10668945,-1.0217896,-0.046691895,47.765625,15.796875,15.1875,722
723,1695742038995,-0.26293945,-0.76641846,-0.37017822,10.8125,0.578125,-9.546875,723
724,1695742039035,0.060546875,-1.1489868,-0.15631104,-15.3125,-2.1875,-18.9375,724
725,1695742039075,-0.022460938,-0.86260986,-0.085998535,11.484375,22.765625,17.796875,725
726,1695742039115,-0.3034668,-0.7866821,-0.3032837,7.5625,-11.46875,3.65625,726
727,1695742039155,0.00390625,-0.97003174,-0.13897705,-13.5,1.234375,1.078125,727
728,1695742039195,0.009521484,-0.9854126,-0.18951416,-20.609375,0.96875,2.265625,728
729,1695742039235,-0.011962891,-1.0303345,-0.18292236,-15.421875,2.6875,-2.859375,729
730,1695742039275,0.080078125,-1.0154419,-0.15875244,0.125,-6.6875,-2.8125,730
731,1695742039315,-0.029785156,-0.9932251,-0.113098145,11.3125,1.828125,2.484375,731
732,1695742039355,-0.016601562,-0.93536377,-0.20098877,-6.078125,2.859375,-4.28125,732
733,1695742039395,-0.12670898,-0.9871216,-0.13018799,-9.484375,0.25,-0.59375,733
734,1695742039435,-0.010498047,-0.9981079,-0.09820557,-2.296875,-4.859375,8.015625,734
735,1695742039475,0.075683594,-0.9338989,-0.15411377,-3.78125,0.109375,6.1875,735
736,1695742039515,0.025878906,-0.9976196,-0.14703369,-3.859375,-0.015625,-0.859375,736
737,1695742039555,0.00048828125,-0.99468994,-0.08282471,-5.4375,-0.40625,-2.234375,737
738,1695742039595,-0.005126953,-0.9570923,-0.14752197,5.625,1.390625,-0.84375,738
739,1695742039635,0.01171875,-0.9819946,-0.15240479,-0.296875,0.671875,-2.171875,739
740,1695742039675,-0.0073242188,-0.99102783,-0.14141846,-7.546875,-2.421875,-4.890625,740
741,1695742039715,-0.017089844,-1.0249634,-0.11773682,-1.46875,-7.609375,-4.984375,741
742,1695742039755,0.024658203,-0.9990845,-0.13824463,-1.859375,-5.171875,-2.203125,742
743,1695742039795,-0.034423828,-0.9331665,-0.121154785,3.484375,2.46875,-1.640625,743
744,1695742039835,-0.0034179688,-0.9595337,-0.1350708,-12.203125,-6.15625,0.890625,744
745,1695742039875,0.07788086,-0.91851807,-0.11895752,0.8125,-2.640625,-8.609375,745
746,1695742039915,-0.15576172,-1.3250122,0.34124756,48.71875,39.4375,-3.296875,746
747,1695742039955,-0.37597656,-0.46392822,-0.6392212,52.28125,16.03125,6.875,747
748,1695742039995,0.055664062,-0.9151001,-0.21905518,-39.34375,-25.4375,16.875,748
749,1695742040035,0.0048828125,-0.8569946,0.090026855,-14.09375,6.6875,-17.921875,749
750,1695742040075,0.016845703,-1.1045532,-0.23858643,-14.09375,4.734375,1.75,750
751,1695742040115,-0.17944336,-1.0740356,-0.018127441,11.546875,6.484375,2.640625,751
752,1695742040155,-0.26342773,-0.94317627,-0.113098145,24.40625,17.0625,23.734375,752
753,1695742040195,0.0546875,-0.8718872,-0.3040161,58.5625,8.890625,15.140625,753
754,1695742040235,0.24438477,-1.0154419,-0.58184814,-21.484375,9.203125,-12.5625,754
755,1695742040275,0.026855469,-0.8953247,-0.28668213,-74.703125,-6.4375,-12.859375,755
756,1695742040315,0.028076172,-0.81207275,-0.08428955,-42.328125,-16.5625,14.421875,756
757,1695742040355,0.0021972656,-0.8640747,0.105407715,-39.6875,-24.0625,-7.34375,757
758,1695742040395,-0.09399414,-1.2393188,0.05633545,-17.3125,-21.984375,-14.0,758
759,1695742040435,0.13696289,-1.0298462,-0.009338379,-10.046875,18.296875,-5.671875,759
