,timestamp,accel_x,accel_y,accel_z,gyro_x,gyro_y,gyro_z
0,1695773383146,-0.03466797,-0.9780884,0.12860107,-1.421875,0.671875,-1.203125
1,1695773383192,-0.057128906,-0.9915161,0.14227295,-0.296875,0.5625,-0.03125
2,1695773383236,-0.059326172,-1.0149536,0.1395874,-2.734375,-1.4375,-1.453125
3,1695773383266,-0.04272461,-0.9924927,0.14764404,-1.421875,1.1875,-1.28125
4,1695773383312,-0.044433594,-0.98809814,0.14276123,-1.96875,0.140625,-1.1875
5,1695773383356,-0.06640625,-0.9939575,0.13519287,-1.9375,-0.4375,0.40625
6,1695773383401,-0.05908203,-0.9963989,0.14886475,-1.6875,-0.234375,-0.3125
7,1695773383431,-0.041015625,-0.9834595,0.14031982,-3.796875,0.078125,-1.84375
8,1695773383461,-0.061035156,-0.99664307,0.15692139,1.734375,0.09375,0.3125
9,1695773383506,-0.055419922,-0.98272705,0.14813232,-0.953125,-0.375,-1.296875
10,1695773383552,-0.060058594,-0.98565674,0.14666748,-1.65625,-0.0625,0.359375
11,1695773383581,-0.060058594,-1.0081177,0.1564331,0.546875,0.1875,-0.203125
12,1695773383626,-0.053466797,-0.99957275,0.15106201,-1.4375,0.015625,0.90625
13,1695773383671,-0.05102539,-0.99298096,0.14056396,-0.625,0.734375,0.265625
14,1695773383703,-0.053466797,-0.9734497,0.1461792,0.65625,1.171875,0.015625
15,1695773383747,-0.059326172,-0.99591064,0.1539917,-1.234375,-0.53125,-1.515625
16,1695773383776,-0.052246094,-0.9932251,0.14691162,-0.25,0.09375,-0.25
17,1695773383822,-0.06518555,-0.99786377,0.1449585,-1.953125,0.078125,-0.1875
18,1695773383871,-0.04663086,-0.9776001,0.15081787,0.359375,0.96875,1.09375
19,1695773383905,-0.043701172,-0.9907837,0.15863037,0.796875,1.328125,1.0
20,1695773383946,-0.064941406,-1.0071411,0.1515503,-2.203125,-0.625,-0.828125
21,1695773383988,-0.052001953,-1.0012817,0.14398193,-1.9375,1.671875,-1.375
22,1695773384035,-0.041748047,-0.98223877,0.14105225,-0.234375,1.890625,-0.140625
23,1695773384064,-0.043945312,-0.9968872,0.13519287,-0.859375,-0.78125,0.46875
24,1695773384095,-0.04638672,-0.98443604,0.15570068,-0.59375,-1.1875,1.125
25,1695773384138,-0.043701172,-0.9998169,0.14959717,-0.96875,0.625,-1.875
26,1695773384183,-0.056396484,-0.9795532,0.1473999,0.578125,0.65625,0.0625
27,1695773384218,-0.055664062,-0.9685669,0.14886475,-1.234375,-1.078125,-1.046875
28,1695773384260,-0.046142578,-1.0144653,0.15325928,-2.203125,-1.3125,0.015625
29,1695773384303,-0.049072266,-1.0081177,0.16668701,-1.859375,0.703125,1.46875
30,1695773384333,-0.047607422,-0.97906494,0.14788818,-2.984375,-1.90625,-0.34375
31,1695773384379,-0.04345703,-0.9812622,0.15057373,-2.890625,-1.234375,-0.5
32,1695773384411,-0.06274414,-0.9890747,0.17132568,-3.59375,-1.75,-0.71875
33,1695773384453,-0.060058594,-1.0073853,0.16888428,-2.6875,-1.859375,0.203125
34,1695773384498,-0.05102539,-0.9819946,0.16375732,-3.453125,0.0625,-0.359375
35,1695773384530,-0.04711914,-0.97784424,0.16986084,-2.125,-0.34375,-0.5
36,1695773384574,-0.048828125,-0.98809814,0.17840576,-2.03125,0.0625,-0.546875
37,1695773384616,-0.07495117,-1.0071411,0.18377686,-2.578125,-0.59375,0.359375
38,1695773384646,-0.043701172,-0.9763794,0.168396,-1.578125,1.625,-0.703125
39,1695773384691,-0.04711914,-1.000061,0.17547607,0.40625,-0.03125,0.46875
40,1695773384721,-0.040771484,-0.98321533,0.16546631,-0.4375,-0.765625,0.609375
41,1695773384766,-0.052490234,-0.99591064,0.18035889,0.4375,0.21875,-0.765625
42,1695773384813,-0.048339844,-1.0132446,0.1749878,-0.078125,0.9375,-0.25
43,1695773384844,-0.047607422,-0.9829712,0.16693115,1.078125,-0.140625,1.046875
44,1695773384890,-0.057128906,-0.9859009,0.17010498,-1.84375,0.0625,-0.421875
45,1695773384965,-0.045410156,-0.9849243,0.17254639,-0.078125,1.109375,0.0
46,1695773384969,-0.039794922,-0.9939575,0.17816162,-1.625,0.390625,-1.296875
47,1695773385011,-0.047607422,-0.98931885,0.16888428,-1.546875,-0.03125,-0.109375
48,1695773385038,-0.050048828,-1.0029907,0.17108154,0.015625,-0.28125,1.09375
49,1695773385083,-0.03955078,-0.9710083,0.18597412,1.046875,2.375,0.09375
50,1695773385129,-0.052246094,-0.99884033,0.16619873,-3.015625,-0.890625,-1.78125
51,1695773385162,-0.0390625,-0.98101807,0.15545654,-2.765625,0.125,-0.859375
52,1695773385204,-0.043945312,-0.99468994,0.17132568,0.859375,0.015625,0.90625
53,1695773385249,-0.029785156,-0.9859009,0.18792725,-0.515625,0.0625,-0.421875
54,1695773385279,-0.049072266,-1.0176392,0.17425537,-1.96875,-0.828125,-1.109375
55,1695773385324,-0.068603516,-0.9807739,0.168396,-2.25,0.203125,2.1875
56,1695773385400,-0.033203125,-0.9546509,0.15740967,0.078125,0.453125,-0.34375
57,1695773385406,-0.046875,-1.0076294,0.17303467,0.1875,-0.78125,-1.34375
58,1695773385442,-0.043701172,-1.0005493,0.18548584,0.09375,0.9375,-1.59375
59,1695773385472,-0.036376953,-0.99884033,0.17791748,0.28125,1.25,1.125
60,1695773385519,-0.052001953,-0.9727173,0.1671753,-1.40625,-0.6875,0.640625
61,1695773385592,-0.052490234,-0.96295166,0.17474365,-1.421875,-0.78125,-0.890625
62,1695773385594,-0.052001953,-1.0142212,0.17596436,0.359375,1.0625,-1.03125
63,1695773385637,-0.041503906,-1.0220337,0.18206787,-0.890625,1.484375,-0.1875
64,1695773385667,-0.033203125,-0.9824829,0.17791748,-2.171875,0.328125,0.140625
65,1695773385712,-0.037841797,-0.96661377,0.16546631,1.421875,1.4375,-0.09375
66,1695773385756,-0.045898438,-1.0015259,0.1696167,-1.578125,-0.53125,-1.828125
67,1695773385786,-0.052978516,-0.9834595,0.16595459,-2.53125,0.125,0.15625
68,1695773385831,-0.053710938,-1.0015259,0.18670654,1.96875,0.765625,-0.15625
69,1695773385877,-0.043945312,-1.0144653,0.19110107,-1.46875,0.6875,-0.890625
70,1695773385908,-0.043701172,-0.96588135,0.16693115,-1.921875,0.171875,-0.875
71,1695773385953,-0.052001953,-1.010315,0.1696167,0.0,0.703125,-0.59375
72,1695773385981,-0.048583984,-0.9763794,0.17767334,-0.890625,-0.3125,0.453125
73,1695773386028,-0.04663086,-1.005188,0.18597412,-0.140625,0.78125,-0.296875
74,1695773386088,-0.04272461,-0.9963989,0.17303467,-0.40625,1.125,-1.40625
75,1695773386103,-0.044677734,-0.9780884,0.17401123,-0.28125,-0.65625,0.59375
76,1695773386150,-0.056152344,-0.9985962,0.17230225,-0.546875,-0.5625,0.15625
77,1695773386194,-0.05517578,-0.98272705,0.18695068,-0.328125,0.8125,0.5
78,1695773386223,-0.04321289,-0.9885864,0.17572021,-0.890625,-0.25,-1.5
79,1695773386286,-0.048339844,-0.99420166,0.16546631,-3.484375,-0.359375,-0.078125
80,1695773386303,-0.038085938,-0.98028564,0.18475342,1.4375,-0.59375,0.046875
81,1695773386345,-0.049560547,-1.0029907,0.1876831,0.03125,0.328125,-0.125
82,1695773386388,-0.055664062,-1.0003052,0.17132568,-1.25,-0.609375,-0.578125
83,1695773386416,-0.049316406,-0.98101807,0.1762085,-2.140625,0.390625,-1.0
84,1695773386463,-0.042236328,-0.98638916,0.16986084,0.296875,1.140625,0.609375
85,1695773386491,-0.06323242,-0.9829712,0.18890381,1.875,0.53125,2.296875
86,1695773386536,-0.05419922,-1.0044556,0.18450928,-2.5,-0.171875,-0.46875
87,1695773386582,-0.042236328,-0.9793091,0.17230225,-1.375,0.15625,-0.015625
88,1695773386612,-0.03881836,-0.9998169,0.16693115,0.28125,0.25,-1.796875
89,1695773386658,-0.060546875,-0.9993286,0.17889404,-1.34375,-0.828125,1.203125
90,1695773386706,-0.04321289,-0.9800415,0.17156982,-0.59375,-0.6875,0.09375
91,1695773386735,-0.04296875,-0.9976196,0.18157959,-0.046875,0.640625,0.140625
92,1695773386778,-0.048339844,-0.98760986,0.18060303,-0.875,0.609375,0.34375
93,1695773386819,-0.055908203,-0.97442627,0.16864014,-2.359375,-1.140625,-0.09375
94,1695773386853,-0.036132812,-0.97906494,0.17376709,0.328125,0.96875,-1.40625
95,1695773386899,-0.036865234,-1.0105591,0.17254639,-0.078125,0.71875,-0.40625
96,1695773386928,-0.04345703,-1.0115356,0.18011475,0.59375,1.3125,1.046875
97,1695773386972,-0.045898438,-0.9871216,0.16644287,-0.578125,1.234375,1.0625
98,1695773387023,-0.03100586,-0.9690552,0.16937256,1.34375,0.9375,-1.0
99,1695773387048,-0.053955078,-1.0132446,0.18719482,0.90625,1.5,-0.984375
100,1695773387094,-0.057617188,-0.9920044,0.16644287,-1.453125,1.28125,0.484375
101,1695773387126,-0.04248047,-0.973938,0.17645264,2.203125,2.09375,-0.65625
102,1695773387171,-0.03125,-1.0042114,0.16522217,-0.75,0.90625,-0.71875
103,1695773387216,-0.03881836,-0.97613525,0.15960693,-1.421875,-0.453125,0.890625
104,1695773387246,-0.03955078,-0.9915161,0.16156006,1.921875,1.21875,-0.3125
105,1695773387291,-0.04736328,-0.99664307,0.17572021,-1.640625,-0.328125,-0.359375
106,1695773387336,-0.03515625,-0.99835205,0.16278076,-2.390625,-0.578125,-0.75
107,1695773387366,-0.045166016,-0.9812622,0.16741943,-0.171875,1.328125,1.265625
108,1695773387411,-0.034179688,-0.9973755,0.1720581,0.984375,0.703125,-0.453125
109,1695773387438,-0.032226562,-0.9985962,0.15765381,-2.0625,-0.6875,-0.90625
110,1695773387482,-0.048583984,-0.9866333,0.17474365,0.078125,0.015625,-1.140625
111,1695773387529,-0.04638672,-0.97906494,0.16668701,0.625,1.484375,-0.578125
112,1695773387559,-0.04711914,-1.0137329,0.1630249,-0.46875,0.375,0.765625
113,1695773387603,-0.03491211,-0.9824829,0.1774292,0.21875,1.03125,-0.828125
114,1695773387647,-0.036621094,-0.9961548,0.14935303,-1.625,0.765625,0.203125
115,1695773387679,-0.047607422,-0.97540283,0.14959717,-2.203125,-1.125,-0.203125
116,1695773387727,-0.041259766,-0.9805298,0.16912842,0.734375,1.25,-1.234375
117,1695773387753,-0.04711914,-1.0073853,0.17132568,-0.125,0.375,-0.625
118,1695773387799,-0.048583984,-0.989563,0.1593628,-0.796875,1.125,0.765625
119,1695773387845,-0.028564453,-0.98638916,0.16253662,-0.375,0.90625,-0.015625
120,1695773387877,-0.048828125,-0.9866333,0.16473389,-0.015625,1.0625,0.5625
121,1695773387920,-0.049316406,-0.9837036,0.16204834,1.296875,0.03125,-0.609375
122,1695773387966,-0.041503906,-1.0061646,0.168396,0.328125,0.6875,-0.578125
123,1695773387993,-0.041748047,-0.99542236,0.15765381,1.5625,1.59375,0.546875
124,1695773388036,-0.036132812,-0.9932251,0.1539917,-0.078125,0.40625,-1.3125
125,1695773388068,-0.03149414,-0.9717407,0.15789795,-1.21875,-0.546875,-1.453125
126,1695773388115,-0.053955078,-1.0037231,0.15179443,-1.046875,-0.53125,0.625
127,1695773388160,-0.051513672,-0.9771118,0.16278076,0.75,1.109375,1.609375
128,1695773388189,-0.041992188,-0.9927368,0.16937256,0.125,0.734375,-0.84375
129,1695773388235,-0.03515625,-0.98223877,0.13494873,-0.1875,0.171875,-0.8125
130,1695773388281,-0.022460938,-1.0042114,0.15765381,-1.078125,0.5625,-0.71875
131,1695773388307,-0.04638672,-0.99591064,0.15740967,-1.1875,-0.609375,1.71875
132,1695773388354,-0.0546875,-1.0015259,0.16644287,-1.328125,-1.140625,0.9375
133,1695773388385,-0.040283203,-0.9837036,0.1618042,-3.40625,-0.703125,-1.03125
134,1695773388428,-0.0390625,-0.98638916,0.1642456,-1.28125,1.265625,-0.71875
135,1695773388475,-0.03540039,-0.97857666,0.15179443,-0.53125,0.109375,-1.03125
136,1695773388505,-0.03857422,-0.99786377,0.15985107,-2.9375,-1.640625,-0.078125
137,1695773388549,-0.023925781,-1.003479,0.16033936,-2.484375,-1.109375,-1.28125
138,1695773388596,-0.05859375,-1.0049438,0.1762085,1.671875,1.3125,1.921875
139,1695773388624,-0.046875,-0.9776001,0.17279053,-0.140625,1.21875,0.578125
140,1695773388668,-0.03466797,-0.99884033,0.15765381,-1.1875,0.28125,-1.109375
141,1695773388698,-0.030273438,-0.9907837,0.15789795,-2.265625,0.03125,-0.53125
142,1695773388743,-0.03173828,-0.9932251,0.15545654,-0.84375,-0.40625,0.015625
143,1695773388788,-0.041503906,-0.98760986,0.16619873,-1.359375,-0.984375,1.046875
144,1695773388820,-0.036621094,-1.0007935,0.16082764,-1.0625,-0.6875,-0.71875
145,1695773388865,-0.036865234,-0.98516846,0.16400146,-2.4375,0.53125,-0.640625
146,1695773388911,-0.033935547,-0.9829712,0.17425537,0.875,1.359375,0.0625
147,1695773388939,-0.03955078,-1.0071411,0.17352295,-1.03125,-0.640625,-1.390625
148,1695773388990,-0.03881836,-0.99053955,0.1720581,-3.296875,-0.296875,-0.296875
149,1695773389014,-0.02319336,-0.9697876,0.16448975,-0.203125,-0.078125,-0.3125
150,1695773389062,-0.03857422,-0.99346924,0.17645264,-1.546875,-0.671875,-0.28125
151,1695773389103,-0.04638672,-0.98809814,0.17474365,-1.53125,-0.5625,-1.390625
152,1695773389134,-0.04272461,-1.0015259,0.16766357,-1.53125,0.203125,0.34375
153,1695773389179,-0.04736328,-0.9829712,0.18450928,0.65625,0.21875,0.25
154,1695773389256,-0.039794922,-1.0027466,0.17327881,-1.015625,-0.65625,-0.984375
155,1695773389262,-0.052734375,-0.98638916,0.18548584,-3.25,0.59375,0.546875
156,1695773389301,-0.029785156,-0.97735596,0.17401123,-0.34375,0.3125,-1.953125
157,1695773389333,-0.036621094,-0.99835205,0.18060303,-1.5625,-0.078125,-0.421875
158,1695773389375,-0.028808594,-0.9768677,0.18182373,-0.96875,-0.046875,1.171875
159,1695773389420,-0.041503906,-0.9939575,0.17132568,-0.3125,-1.3125,-0.140625
160,1695773389449,-0.042236328,-1.0015259,0.17181396,-3.328125,1.28125,-0.03125
161,1695773389496,-0.042236328,-0.9902954,0.18841553,-0.328125,0.59375,1.015625
162,1695773389538,-0.041015625,-0.9985962,0.18084717,-0.46875,1.109375,-1.546875
163,1695773389568,-0.047607422,-0.98931885,0.17938232,-1.578125,1.40625,0.015625
164,1695773389612,-0.025878906,-0.9680786,0.16864014,1.4375,1.1875,0.078125
165,1695773389689,-0.021484375,-1.0071411,0.18109131,1.109375,0.984375,1.40625
166,1695773389692,-0.033935547,-0.98321533,0.19793701,-0.4375,-0.640625,0.5
167,1695773389734,-0.039794922,-1.0032349,0.17376709,-2.328125,-0.40625,-0.734375
168,1695773389763,-0.037109375,-0.98150635,0.17938232,1.40625,1.515625,0.328125
169,1695773389807,-0.0390625,-1.005188,0.1749878,0.203125,0.359375,-1.359375
170,1695773389888,-0.024902344,-0.9859009,0.17523193,-1.53125,0.328125,-1.125
171,1695773389892,-0.03149414,-0.9981079,0.17523193,-0.0625,0.578125,-0.765625
172,1695773389932,-0.04272461,-0.9944458,0.17816162,-0.9375,0.3125,-0.078125
173,1695773389960,-0.040527344,-0.99884033,0.18011475,-3.140625,-0.4375,-0.90625
174,1695773390006,-0.015625,-0.9741821,0.17181396,-1.796875,0.875,-1.078125
175,1695773390053,-0.044189453,-0.9932251,0.18255615,-1.640625,0.234375,-1.828125
176,1695773390078,-0.047607422,-0.9524536,0.18084717,-4.671875,0.171875,-0.421875
177,1695773390124,-0.0637207,-0.98150635,0.20379639,0.46875,-1.796875,-0.171875
178,1695773390172,-0.03100586,-1.0015259,0.19671631,-2.375,0.90625,-3.25
179,1695773390200,-0.036376953,-1.0203247,0.20037842,-0.40625,0.5,-1.046875
180,1695773390245,-0.0546875,-0.9829712,0.20062256,0.03125,0.578125,-1.09375
181,1695773390278,-0.045654297,-0.96221924,0.19451904,0.625,0.4375,1.484375
182,1695773390324,-0.06323242,-1.0020142,0.1642456,-0.921875,-0.109375,0.34375
183,1695773390365,-0.044921875,-0.989563,0.18426514,-0.421875,2.015625,-1.015625
184,1695773390394,-0.016845703,-1.0112915,0.18988037,0.65625,1.296875,-2.203125
185,1695773390437,-0.044189453,-0.97003174,0.18157959,-1.828125,-0.8125,1.671875
186,1695773390484,-0.05834961,-0.97125244,0.17840576,0.09375,-0.484375,1.34375
187,1695773390516,-0.04663086,-0.99053955,0.18719482,-0.5,-0.96875,-0.703125
188,1695773390560,-0.028320312,-0.9976196,0.20135498,-1.40625,0.671875,-2.28125
189,1695773390590,-0.06738281,-0.9927368,0.18963623,-0.125,-1.234375,-1.21875
190,1695773390634,-0.032226562,-0.98809814,0.17767334,1.03125,1.671875,-0.640625
191,1695773390680,-0.03930664,-1.0098267,0.17767334,-2.6875,0.15625,0.171875
192,1695773390708,-0.049560547,-0.97735596,0.18206787,0.203125,0.46875,-0.265625
193,1695773390755,-0.047607422,-0.9746704,0.18548584,-0.03125,-0.453125,-0.375
194,1695773390785,-0.04272461,-0.9890747,0.19158936,-0.53125,0.578125,-0.875
195,1695773390829,-0.053955078,-1.0176392,0.18670654,-0.4375,0.734375,-0.046875
196,1695773390874,-0.06616211,-0.9768677,0.18182373,-1.265625,0.0,0.046875
197,1695773390905,-0.04272461,-0.97735596,0.17327881,0.28125,1.4375,-2.8125
198,1695773390950,-0.024658203,-1.0142212,0.18817139,0.0,1.015625,0.234375
199,1695773390997,-0.049804688,-0.98516846,0.18792725,-0.921875,-0.078125,2.171875
200,1695773391024,-0.052734375,-0.9636841,0.17547607,0.0625,-0.6875,0.453125
201,1695773391070,-0.05029297,-0.989563,0.18499756,-0.875,1.015625,-1.1875
202,1695773391102,-0.045654297,-0.99542236,0.18182373,-0.640625,-0.203125,-0.71875
203,1695773391158,-0.040283203,-1.000061,0.1906128,-2.3125,1.171875,0.125
204,1695773391192,-0.037353516,-0.98443604,0.18914795,-0.796875,0.046875,0.9375
205,1695773391225,-0.053710938,-1.008606,0.18743896,1.40625,-0.171875,0.1875
206,1695773391264,-0.033691406,-0.9819946,0.17523193,-0.78125,0.609375,-0.734375
207,1695773391308,-0.052490234,-0.9973755,0.17181396,-1.65625,-1.03125,-1.5
208,1695773391340,-0.040771484,-0.9663696,0.16888428,-1.59375,0.5,-0.40625
209,1695773391384,-0.048828125,-1.0100708,0.19989014,0.734375,-0.15625,1.46875
210,1695773391411,-0.045166016,-0.9949341,0.1828003,-1.3125,0.265625,-0.546875
211,1695773391456,-0.04296875,-0.9841919,0.17523193,-1.46875,-0.1875,-1.15625
212,1695773391501,-0.032958984,-0.9834595,0.1828003,-0.015625,0.890625,0.328125
213,1695773391533,-0.043945312,-0.987854,0.17840576,-0.109375,-0.46875,0.65625
214,1695773391579,-0.041015625,-0.98760986,0.18963623,-1.375,0.125,-0.078125
215,1695773391622,-0.032470703,-0.9949341,0.18939209,-0.921875,0.484375,-0.3125
216,1695773391669,-0.045898438,-0.99298096,0.18133545,0.828125,-0.109375,0.40625
217,1695773391702,-0.051757812,-0.9807739,0.18353271,-1.75,0.21875,-0.359375
218,1695773391727,-0.044189453,-0.99591064,0.1749878,-1.015625,-0.84375,-0.390625
219,1695773391773,-0.038330078,-0.9956665,0.17669678,-0.984375,0.546875,-0.265625
220,1695773391817,-0.041503906,-0.9907837,0.18817139,-1.109375,-0.6875,-0.34375
221,1695773391848,-0.046142578,-0.9837036,0.18084717,-1.40625,-0.59375,0.0
222,1695773391894,-0.048095703,-0.99420166,0.18743896,-0.5,0.203125,0.65625
223,1695773391941,-0.05126953,-0.991272,0.17181396,-2.59375,-1.078125,-0.34375
224,1695773391970,-0.030029297,-0.98516846,0.17791748,-2.15625,0.671875,0.40625
225,1695773392013,-0.032714844,-0.975647,0.19793701,0.6875,-0.15625,1.71875
226,1695773392043,-0.045166016,-0.987854,0.19891357,-0.109375,-0.78125,-0.125
227,1695773392091,-0.05053711,-1.0010376,0.18963623,-2.875,0.125,-0.640625
228,1695773392134,-0.04272461,-0.99298096,0.19525146,-0.03125,0.3125,0.15625
229,1695773392165,-0.039794922,-0.98394775,0.18060303,-2.140625,0.734375,0.875
230,1695773392209,-0.03149414,-0.9751587,0.19891357,-0.609375,0.390625,1.625
231,1695773392254,-0.012451172,-0.99786377,0.1942749,-2.234375,-0.265625,-1.71875
232,1695773392284,-0.035888672,-0.99224854,0.20452881,-1.03125,-0.890625,-0.078125
233,1695773392330,-0.040771484,-0.9793091,0.20404053,-0.171875,-0.34375,-1.515625
234,1695773392367,-0.052978516,-0.9834595,0.18206787,-2.8125,-0.671875,-1.59375
235,1695773392403,-0.032714844,-1.0039673,0.20062256,0.3125,0.984375,-0.9375
236,1695773392450,-0.049072266,-0.9963989,0.1942749,-0.21875,1.3125,0.578125
237,1695773392480,-0.046875,-0.9573364,0.19720459,1.828125,3.046875,-0.375
238,1695773392523,-0.04736328,-0.9961548,0.2177124,0.0625,1.625,-1.953125
239,1695773392567,-0.014892578,-1.006897,0.18914795,-1.0625,1.453125,-1.78125
240,1695773392600,-0.037353516,-0.9932251,0.1762085,0.34375,0.96875,-0.046875
241,1695773392642,-0.025146484,-0.9829712,0.19036865,0.421875,0.125,1.9375
242,1695773392674,-0.045410156,-0.9758911,0.1984253,0.5,-0.765625,0.96875
243,1695773392720,-0.06518555,-0.9993286,0.18597412,-0.21875,0.203125,-2.078125
244,1695773392765,-0.04272461,-0.98565674,0.1954956,0.765625,0.484375,-1.0625
245,1695773392793,-0.03881836,-0.98321533,0.18426514,-0.640625,1.375,-0.515625
246,1695773392838,-0.0390625,-0.9656372,0.16864014,-1.0,0.28125,-1.65625
247,1695773392886,-0.021972656,-1.0078735,0.19085693,1.71875,-0.921875,-0.5
248,1695773392914,-0.03149414,-1.0056763,0.19500732,1.84375,-0.109375,-0.203125
249,1695773392961,-0.08154297,-0.9890747,0.1798706,-0.296875,-0.328125,-1.125
250,1695773392989,-0.043945312,-0.9741821,0.18963623,-0.09375,1.125,-1.1875
251,1695773393036,-0.03564453,-1.0083618,0.16693115,2.34375,1.046875,-1.421875
252,1695773393080,-0.048095703,-1.00177,0.17596436,0.75,2.484375,0.640625
253,1695773393108,-0.033935547,-0.9841919,0.17913818,0.828125,-0.390625,-1.046875
254,1695773393155,-0.057373047,-1.0010376,0.16815186,-1.25,-0.5,0.125
255,1695773393197,-0.055908203,-0.9710083,0.15887451,-0.484375,-0.53125,0.0
256,1695773393227,-0.045898438,-0.9951782,0.16448975,-0.75,-0.109375,-1.03125
257,1695773393271,-0.037353516,-0.9907837,0.16229248,-1.0,1.609375,-0.984375
258,1695773393301,-0.052734375,-0.987854,0.18109131,1.78125,0.53125,-0.171875
259,1695773393349,-0.052978516,-1.005188,0.17279053,-1.484375,0.25,-1.59375
260,1695773393395,-0.041503906,-0.97906494,0.1774292,-1.15625,0.71875,-0.203125
261,1695773393426,-0.052246094,-0.9841919,0.152771,1.234375,-0.546875,0.65625
262,1695773393469,-0.05078125,-0.99591064,0.17596436,0.015625,0.703125,0.375
263,1695773393546,-0.04248047,-0.9998169,0.17352295,1.1875,-0.625,-0.578125
264,1695773393551,-0.052246094,-0.99346924,0.1630249,-1.328125,0.40625,-1.390625
265,1695773393595,-0.055908203,-0.9841919,0.16693115,0.984375,0.96875,1.453125
266,1695773393620,-0.057373047,-1.0100708,0.17816162,1.671875,0.546875,0.40625
267,1695773393667,-0.052490234,-0.97735596,0.15423584,-1.6875,0.328125,0.203125
268,1695773393709,-0.030029297,-0.99224854,0.1564331,-0.890625,0.859375,-1.0625
269,1695773393740,-0.04248047,-0.9937134,0.15838623,-0.484375,0.203125,0.078125
270,1695773393796,-0.057373047,-0.9890747,0.16131592,-1.296875,-0.09375,1.1875
271,1695773393858,-0.040771484,-0.9920044,0.17279053,-0.234375,-0.375,-0.34375
272,1695773393862,-0.049316406,-1.0122681,0.15130615,-3.0,0.09375,-0.734375
273,1695773393904,-0.032226562,-0.9585571,0.15838623,-0.96875,0.296875,-0.109375
274,1695773393983,-0.044921875,-0.991272,0.15740967,-0.84375,0.40625,-1.390625
275,1695773393986,-0.050048828,-1.0110474,0.16937256,-2.578125,-0.40625,-1.546875
276,1695773394025,-0.0546875,-1.0073853,0.17572021,-1.078125,-0.5,-0.078125
277,1695773394054,-0.048339844,-0.9685669,0.17523193,-0.1875,0.15625,0.6875
278,1695773394101,-0.057617188,-0.99835205,0.15252686,-1.5625,-0.890625,-0.0625
279,1695773394175,-0.040039062,-0.9871216,0.16619873,-3.390625,-1.125,-2.65625
280,1695773394179,-0.04272461,-1.0171509,0.18426514,0.171875,0.015625,-1.78125
281,1695773394222,-0.057617188,-0.98516846,0.16741943,-0.09375,-1.5625,1.046875
282,1695773394250,-0.072753906,-0.98150635,0.18011475,-3.578125,-1.859375,0.3125
283,1695773394293,-0.044433594,-0.9829712,0.17840576,-3.234375,-0.328125,-1.03125
284,1695773394347,-0.049316406,-0.9920044,0.17816162,-4.3125,-0.734375,-1.09375
285,1695773394370,-0.05517578,-0.9729614,0.19915771,-1.234375,-1.296875,-1.375
286,1695773394414,-0.052001953,-1.0046997,0.19451904,-0.4375,-0.53125,-1.125
287,1695773394460,-0.067871094,-0.98883057,0.18963623,-2.65625,-0.5625,-0.140625
288,1695773394490,-0.053710938,-0.98638916,0.18011475,-3.0625,0.078125,0.25
289,1695773394536,-0.057128906,-0.98565674,0.1942749,-0.65625,1.21875,0.75
290,1695773394567,-0.05102539,-0.9956665,0.20159912,-0.359375,0.71875,-0.390625
291,1695773394610,-0.057617188,-1.0090942,0.20697021,-2.65625,-0.5,-0.03125
292,1695773394656,-0.05908203,-0.96099854,0.18206787,-3.0625,-0.71875,0.53125
293,1695773394686,-0.0715332,-0.9727173,0.1906128,-1.75,-0.515625,-0.015625
294,1695773394727,-0.045166016,-0.9780884,0.19940186,0.09375,0.921875,-0.84375
295,1695773394774,-0.040771484,-1.0090942,0.19915771,-0.59375,-0.484375,-1.15625
296,1695773394804,-0.051513672,-0.987854,0.2033081,-0.984375,0.15625,0.9375
297,1695773394848,-0.041748047,-0.97857666,0.19793701,-2.4375,0.109375,0.359375
298,1695773394878,-0.055419922,-0.98101807,0.19989014,-1.578125,-0.34375,0.03125
299,1695773394924,-0.057861328,-0.99102783,0.21697998,-0.1875,0.9375,-1.375
300,1695773394971,-0.047607422,-0.986145,0.19085693,-2.015625,-0.390625,-1.46875
301,1695773395000,-0.05029297,-0.98394775,0.2098999,-0.96875,0.890625,-0.34375
302,1695773395044,-0.055419922,-1.00177,0.19647217,-1.671875,-0.59375,-0.53125
303,1695773395075,-0.056884766,-0.9734497,0.20452881,-1.734375,-0.40625,0.390625
304,1695773395120,-0.061767578,-0.989563,0.2140503,0.671875,0.609375,0.046875
305,1695773395168,-0.05834961,-0.9807739,0.20843506,-0.421875,0.359375,-1.5625
306,1695773395195,-0.059326172,-0.99176025,0.199646,-1.609375,1.109375,-1.515625
307,1695773395239,-0.04736328,-0.9805298,0.19500732,0.0625,0.578125,-0.15625
308,1695773395285,-0.047851562,-0.98223877,0.20233154,-0.65625,-0.390625,0.59375
309,1695773395313,-0.06933594,-0.9920044,0.20379639,-1.125,-0.328125,0.09375
310,1695773395360,-0.05810547,-0.9920044,0.20379639,-1.390625,0.734375,-1.6875
311,1695773395389,-0.060546875,-0.99664307,0.2140503,-0.171875,0.265625,-0.359375
312,1695773395439,-0.052490234,-0.99542236,0.20233154,-2.296875,-0.140625,-0.21875
313,1695773395484,-0.049804688,-0.98101807,0.20892334,-1.34375,-0.484375,-0.046875
314,1695773395510,-0.047607422,-0.98760986,0.20452881,-1.328125,-0.578125,-0.109375
315,1695773395557,-0.060546875,-0.9812622,0.20550537,-0.65625,-0.09375,0.3125
316,1695773395602,-0.05419922,-0.9829712,0.21746826,1.1875,1.03125,-0.28125
317,1695773395627,-0.059570312,-0.9944458,0.21673584,0.9375,0.21875,1.296875
318,1695773395673,-0.068359375,-0.97613525,0.2098999,-0.28125,1.234375,0.6875
319,1695773395705,-0.06323242,-0.9824829,0.2074585,0.53125,2.25,-0.796875
320,1695773395747,-0.052246094,-0.99176025,0.19769287,0.546875,1.765625,-0.140625
321,1695773395795,-0.025146484,-0.9937134,0.20526123,0.796875,1.234375,-0.21875
322,1695773395823,-0.05029297,-0.9898071,0.20013428,0.71875,0.859375,1.1875
323,1695773395867,-0.06567383,-0.98516846,0.19256592,-0.046875,0.6875,1.65625
324,1695773395914,-0.045166016,-0.9817505,0.20013428,0.609375,0.453125,0.15625
325,1695773395945,-0.05126953,-0.98516846,0.1918335,1.59375,1.453125,0.609375
326,1695773395992,-0.053222656,-0.9973755,0.19476318,0.265625,0.859375,-1.421875
327,1695773396020,-0.03149414,-0.99224854,0.19232178,1.25,0.5,-0.859375
328,1695773396064,-0.044189453,-0.9968872,0.16888428,-2.1875,0.0,0.359375
329,1695773396109,-0.04321289,-0.9780884,0.19085693,0.53125,0.71875,1.203125
330,1695773396139,-0.040771484,-0.99786377,0.19256592,0.984375,-0.125,-1.359375
331,1695773396186,-0.05444336,-0.9837036,0.19354248,0.28125,0.890625,-0.03125
332,1695773396228,-0.052978516,-0.9746704,0.18084717,0.046875,1.171875,0.140625
333,1695773396261,-0.044677734,-0.98638916,0.17547607,0.5,0.703125,-0.75
334,1695773396305,-0.034179688,-1.0073853,0.18475342,-0.640625,0.40625,-0.03125
335,1695773396334,-0.042236328,-0.9817505,0.18231201,-0.109375,0.09375,0.28125
336,1695773396383,-0.048583984,-0.9932251,0.1828003,-0.453125,0.109375,-0.546875
337,1695773396425,-0.046142578,-0.9961548,0.17938232,-0.09375,-0.15625,-1.09375
338,1695773396455,-0.05444336,-0.9968872,0.18231201,-0.15625,1.015625,-0.828125
339,1695773396500,-0.05078125,-0.9644165,0.17938232,-0.96875,0.9375,-0.28125
340,1695773396545,-0.043945312,-0.9927368,0.1774292,-0.53125,-1.125,-1.046875
341,1695773396575,-0.040283203,-1.0039673,0.1774292,-2.75,-0.421875,-0.1875
342,1695773396622,-0.049804688,-0.9837036,0.1774292,-1.078125,-0.640625,-0.1875
343,1695773396648,-0.06225586,-0.98883057,0.1930542,0.25,-0.53125,-0.921875
344,1695773396695,-0.063964844,-0.9902954,0.18255615,-3.0625,1.0,-1.46875
345,1695773396738,-0.051513672,-0.98272705,0.17669678,-0.578125,0.40625,-1.6875
346,1695773396768,-0.043945312,-0.9849243,0.17840576,-1.25,-0.234375,-1.171875
347,1695773396814,-0.043701172,-0.9902954,0.18670654,-2.34375,-0.328125,1.34375
348,1695773396860,-0.04736328,-0.98394775,0.18792725,-1.03125,-1.171875,0.53125
349,1695773396889,-0.053955078,-0.9854126,0.17913818,-2.1875,-1.125,-2.046875
350,1695773396933,-0.059814453,-0.9924927,0.184021,-2.421875,0.5625,-1.5625
351,1695773396961,-0.051513672,-0.9841919,0.19354248,-0.546875,-0.828125,0.390625
352,1695773397012,-0.04736328,-0.99542236,0.19525146,-2.234375,-0.953125,0.03125
353,1695773397057,-0.05810547,-0.99957275,0.20941162,-0.9375,0.65625,-0.140625
354,1695773397085,-0.05102539,-0.97369385,0.18548584,-1.9375,0.109375,-0.328125
355,1695773397132,-0.064453125,-0.9768677,0.2020874,-0.265625,-0.28125,-1.1875
356,1695773397174,-0.044433594,-0.9866333,0.20404053,0.03125,0.5625,-1.828125
357,1695773397207,-0.053222656,-1.0171509,0.19281006,-2.859375,-1.6875,-0.84375
358,1695773397250,-0.06640625,-0.98883057,0.19744873,-0.984375,-0.40625,1.4375
359,1695773397281,-0.06347656,-0.97979736,0.19158936,-1.53125,0.078125,-0.25
360,1695773397329,-0.068847656,-0.97857666,0.19915771,-1.828125,-0.234375,-1.203125
361,1695773397370,-0.04345703,-0.98760986,0.20184326,-1.296875,-0.671875,-1.6875
362,1695773397398,-0.052246094,-0.9973755,0.20037842,-2.234375,-0.796875,-0.359375
363,1695773397448,-0.056884766,-0.99005127,0.20965576,-0.90625,0.21875,-0.203125
364,1695773397491,-0.05883789,-0.96954346,0.2177124,0.0,-0.671875,-0.125
365,1695773397519,-0.07446289,-0.9956665,0.19378662,-3.375,-0.9375,-1.34375
366,1695773397566,-0.0625,-0.98394775,0.20599365,-3.25,0.375,-0.96875
367,1695773397594,-0.049560547,-0.9854126,0.21502686,0.859375,0.34375,0.0
368,1695773397642,-0.0703125,-0.99884033,0.21380615,-0.328125,0.109375,-0.53125
369,1695773397685,-0.06347656,-0.98101807,0.20404053,-1.015625,0.53125,-0.5
370,1695773397714,-0.052978516,-0.9788208,0.21478271,-0.515625,-0.484375,-1.109375
371,1695773397758,-0.072509766,-0.98516846,0.19818115,-1.328125,-0.890625,-0.375
372,1695773397835,-0.07421875,-0.98272705,0.21234131,-1.328125,0.234375,1.140625
373,1695773397842,-0.06591797,-0.99346924,0.20159912,-2.046875,0.78125,0.09375
374,1695773397882,-0.06713867,-0.97320557,0.20135498,1.453125,1.09375,-1.140625
375,1695773397909,-0.049560547,-0.98760986,0.22015381,-0.34375,0.5625,-1.546875
376,1695773397953,-0.057861328,-0.99542236,0.20135498,-1.234375,-0.984375,-0.40625
377,1695773397998,-0.06347656,-0.9920044,0.1984253,-1.5625,0.515625,0.484375
378,1695773398029,-0.061767578,-0.98101807,0.22088623,0.171875,0.765625,0.984375
379,1695773398074,-0.07055664,-0.99176025,0.22039795,-0.84375,0.15625,0.078125
380,1695773398118,-0.057861328,-0.9619751,0.21038818,0.359375,1.109375,-0.90625
381,1695773398151,-0.064697266,-0.9951782,0.20965576,-1.5625,0.15625,-2.015625
382,1695773398198,-0.063964844,-0.972229,0.19720459,-2.015625,-0.828125,-0.125
383,1695773398270,-0.071777344,-0.9898071,0.22381592,1.453125,0.84375,0.8125
384,1695773398274,-0.06274414,-0.9998169,0.21478271,0.0625,0.578125,-0.265625
385,1695773398318,-0.06958008,-0.9873657,0.20306396,-0.828125,0.078125,-0.671875
386,1695773398346,-0.05493164,-0.9780884,0.2098999,-0.625,1.34375,-1.453125
387,1695773398389,-0.06591797,-0.97003174,0.20404053,0.0,0.171875,-0.453125
388,1695773398465,-0.06542969,-0.9885864,0.19866943,-0.890625,-0.875,-0.34375
389,1695773398472,-0.059570312,-1.0059204,0.215271,-0.828125,0.1875,-0.453125
390,1695773398510,-0.06982422,-0.9976196,0.21258545,0.703125,0.640625,0.203125
391,1695773398542,-0.07104492,-0.97125244,0.2098999,-1.8125,-0.203125,-0.265625
392,1695773398586,-0.06347656,-0.9763794,0.20428467,-0.28125,1.4375,-0.578125
393,1695773398645,-0.053955078,-1.0010376,0.2074585,-0.078125,0.8125,-0.328125
394,1695773398666,-0.056396484,-0.9751587,0.21136475,-1.265625,-0.328125,0.484375
395,1695773398709,-0.07543945,-0.9859009,0.21014404,-0.796875,0.0,-0.078125
396,1695773398752,-0.06298828,-0.9837036,0.19866943,0.953125,0.4375,-0.953125
397,1695773398794,-0.057128906,-0.9985962,0.20697021,-1.890625,0.0,-1.125
398,1695773398822,-0.080078125,-0.991272,0.20697021,-1.390625,-0.125,1.375
399,1695773398855,-0.07519531,-0.9717407,0.21795654,0.015625,1.3125,0.421875
400,1695773398898,-0.059570312,-0.9873657,0.20672607,-1.1875,1.3125,-1.65625
401,1695773398946,-0.053955078,-0.986145,0.20794678,-1.09375,0.65625,-0.453125
402,1695773398975,-0.068847656,-0.9907837,0.20770264,-1.4375,-1.03125,0.0625
403,1695773399018,-0.06567383,-0.9783325,0.20452881,-0.328125,-0.390625,0.765625
404,1695773399069,-0.064208984,-0.99102783,0.21868896,-0.5625,0.28125,0.171875
405,1695773399095,-0.07006836,-0.99786377,0.21380615,-1.625,-0.015625,-0.03125
406,1695773399143,-0.06713867,-0.9649048,0.20965576,0.65625,0.828125,-0.75
407,1695773399168,-0.046875,-0.98883057,0.20721436,-0.921875,-0.171875,-0.703125
408,1695773399215,-0.07397461,-0.9849243,0.21063232,0.09375,-0.296875,0.453125
409,1695773399258,-0.078125,-0.9985962,0.2074585,-1.453125,0.5625,0.171875
410,1695773399288,-0.045410156,-0.9690552,0.2098999,-1.09375,0.0,0.265625
411,1695773399351,-0.06323242,-0.99591064,0.2098999,-0.1875,0.171875,-0.359375
412,1695773399364,-0.06665039,-0.9819946,0.21624756,-0.5625,0.6875,-0.59375
413,1695773399408,-0.059326172,-0.9902954,0.19940186,-1.5625,-0.34375,-1.375
414,1695773399451,-0.06640625,-0.989563,0.20892334,-0.890625,0.328125,-0.375
415,1695773399483,-0.06616211,-0.98321533,0.21795654,-0.140625,1.0,2.0
416,1695773399530,-0.048095703,-0.9793091,0.2020874,-0.375,0.296875,0.21875
417,1695773399573,-0.053222656,-0.98809814,0.21331787,-0.984375,0.75,-0.578125
418,1695773399611,-0.06518555,-0.9812622,0.21038818,-0.984375,-0.578125,-0.984375
419,1695773399650,-0.072753906,-0.97784424,0.20648193,-0.328125,0.34375,-1.203125
420,1695773399681,-0.05126953,-0.9924927,0.2164917,-0.203125,0.984375,-1.453125
421,1695773399726,-0.060302734,-1.0022583,0.20379639,-1.890625,-0.609375,-0.8125
422,1695773399771,-0.07055664,-0.97052,0.22406006,0.359375,-0.015625,-0.515625
423,1695773399799,-0.068847656,-0.98565674,0.20574951,-0.640625,-0.515625,-1.828125
424,1695773399843,-0.06298828,-1.0083618,0.21600342,-0.390625,-1.171875,-0.03125
425,1695773399890,-0.057617188,-0.9795532,0.21624756,1.5625,0.0,0.109375
426,1695773399921,-0.07714844,-0.986145,0.1984253,-0.46875,-0.3125,0.59375
427,1695773399965,-0.080078125,-0.9805298,0.20379639,-1.453125,-0.609375,0.046875
428,1695773399994,-0.072753906,-0.97784424,0.20819092,1.03125,0.453125,-1.28125
429,1695773400038,-0.05126953,-0.9956665,0.2062378,0.28125,1.328125,-1.984375
430,1695773400083,-0.079589844,-0.9963989,0.18695068,-3.671875,-0.96875,-2.0
431,1695773400116,-0.07006836,-0.97857666,0.19403076,-0.921875,-0.171875,-1.4375
432,1695773400159,-0.06689453,-0.99005127,0.22039795,0.375,0.78125,-0.65625
433,1695773400203,-0.083740234,-0.9932251,0.20281982,-1.25,0.78125,-0.96875
434,1695773400235,-0.059814453,-0.9783325,0.19915771,-1.28125,-0.078125,-0.59375
435,1695773400279,-0.06591797,-1.0012817,0.21673584,-1.453125,-0.265625,0.515625
436,1695773400309,-0.08081055,-0.9690552,0.2033081,-2.234375,-1.1875,0.984375
437,1695773400356,-0.072753906,-0.9771118,0.2164917,1.234375,0.46875,-1.171875
438,1695773400399,-0.07373047,-1.0073853,0.20355225,-2.265625,-0.421875,-1.65625
439,1695773400426,-0.068115234,-0.9841919,0.2098999,-0.421875,-0.5,0.0
440,1695773400471,-0.080322266,-0.99835205,0.21551514,-0.25,0.359375,1.28125
441,1695773400516,-0.095214844,-0.9795532,0.20697021,0.28125,-0.171875,0.59375
442,1695773400546,-0.07299805,-0.98638916,0.21356201,-1.640625,1.046875,-0.578125
443,1695773400591,-0.05908203,-0.9758911,0.19940186,-1.6875,-0.328125,-0.0625
444,1695773400622,-0.060302734,-0.9771118,0.2020874,0.5,0.0625,0.296875
445,1695773400667,-0.07421875,-0.98931885,0.21868896,-1.5625,-0.375,0.359375
446,1695773400711,-0.07861328,-1.0007935,0.20672607,-0.8125,-0.78125,-0.078125
447,1695773400742,-0.06616211,-0.9841919,0.21380615,-1.203125,1.96875,0.21875
448,1695773400785,-0.076660156,-0.98272705,0.21673584,-0.796875,0.484375,2.109375
449,1695773400831,-0.063964844,-0.9673462,0.21966553,0.671875,1.4375,0.21875
450,1695773400861,-0.064697266,-1.0010376,0.22039795,-1.453125,1.0625,-0.1875
451,1695773400910,-0.064941406,-0.9751587,0.2111206,-0.625,0.015625,0.234375
452,1695773400938,-0.07495117,-0.98101807,0.20697021,0.46875,1.78125,0.28125
453,1695773400982,-0.051757812,-0.9961548,0.20770264,-0.953125,1.625,1.484375
454,1695773401026,-0.05126953,-0.99176025,0.21160889,-1.109375,-0.09375,2.1875
455,1695773401056,-0.06713867,-0.9854126,0.21282959,0.546875,-0.53125,1.265625
456,1695773401101,-0.05883789,-0.9951782,0.21136475,0.0625,0.484375,0.875
457,1695773401146,-0.05859375,-0.9834595,0.20306396,-1.171875,0.171875,-1.453125
458,1695773401178,-0.059814453,-0.97320557,0.20770264,-0.71875,-0.046875,-1.3125
459,1695773401237,-0.053710938,-0.99005127,0.20916748,-0.9375,1.171875,-1.09375
460,1695773401252,-0.04736328,-0.99102783,0.21380615,-1.171875,-0.140625,0.890625
461,1695773401297,-0.05053711,-0.9812622,0.22039795,0.6875,0.359375,1.0
462,1695773401341,-0.041748047,-0.9854126,0.20648193,-0.5625,0.609375,-1.0
463,1695773401373,-0.052734375,-0.9837036,0.21722412,-2.5625,0.0625,-2.953125
464,1695773401417,-0.06347656,-0.96832275,0.20135498,-2.140625,-0.296875,-1.28125
465,1695773401462,-0.076171875,-0.9898071,0.21820068,0.296875,0.359375,0.78125
466,1695773401494,-0.05444336,-0.98760986,0.22747803,0.15625,0.921875,-1.109375
467,1695773401538,-0.045410156,-1.0032349,0.2140503,-3.25,-0.046875,-1.125
468,1695773401568,-0.07470703,-0.96539307,0.21502686,0.484375,0.28125,0.1875
469,1695773401615,-0.068359375,-0.97369385,0.20916748,-1.078125,-0.28125,-1.703125
470,1695773401659,-0.055664062,-0.9976196,0.21038818,-1.984375,-0.40625,-0.125
471,1695773401688,-0.06347656,-0.98931885,0.22113037,-0.796875,0.40625,-0.3125
472,1695773401734,-0.06591797,-0.9807739,0.22039795,0.96875,0.40625,-0.8125
473,1695773401778,-0.06225586,-0.97198486,0.20452881,-4.015625,-0.46875,-0.921875
474,1695773401810,-0.057861328,-0.9829712,0.21917725,-0.359375,-0.859375,-0.0625
475,1695773401855,-0.049804688,-0.99298096,0.22747803,0.4375,0.6875,-2.15625
476,1695773401885,-0.06958008,-0.99884033,0.22576904,-1.6875,-0.984375,-0.59375
477,1695773401928,-0.08935547,-0.973938,0.20843506,-1.9375,-0.984375,-0.09375
478,1695773401972,-0.07373047,-0.95391846,0.21478271,-0.890625,1.25,-0.1875
479,1695773402002,-0.06665039,-0.9812622,0.21282959,-1.40625,-0.484375,-0.796875
480,1695773402048,-0.059570312,-1.0137329,0.23699951,-1.90625,0.5,0.421875
481,1695773402093,-0.06689453,-0.9783325,0.23236084,-0.84375,-0.5,0.875
482,1695773402123,-0.06982422,-0.9690552,0.23016357,0.671875,1.078125,-0.6875
483,1695773402167,-0.078125,-0.9944458,0.23162842,-1.171875,-0.9375,-0.40625
484,1695773402198,-0.06933594,-0.98883057,0.22918701,-0.796875,1.578125,0.578125
485,1695773402243,-0.05908203,-0.9585571,0.21429443,0.5,1.921875,-0.171875
486,1695773402289,-0.057373047,-0.9746704,0.22357178,0.109375,0.96875,-1.453125
487,1695773402319,-0.057861328,-0.99468994,0.20965576,-2.015625,-1.34375,0.296875
488,1695773402364,-0.06274414,-0.9800415,0.23309326,0.96875,0.375,1.6875
489,1695773402409,-0.06713867,-0.9956665,0.22137451,-0.25,1.046875,0.828125
490,1695773402442,-0.079589844,-0.9795532,0.2230835,-2.4375,0.015625,0.625
491,1695773402484,-0.053222656,-0.97491455,0.22137451,-0.234375,0.921875,-0.640625
492,1695773402514,-0.04345703,-0.98565674,0.21478271,0.3125,0.640625,-0.890625
493,1695773402558,-0.05078125,-1.0073853,0.21429443,-0.109375,0.109375,0.015625
494,1695773402604,-0.06591797,-0.97662354,0.21917725,-0.6875,-0.65625,1.515625
495,1695773402639,-0.061279297,-0.97442627,0.21234131,2.109375,0.546875,-0.140625
496,1695773402677,-0.059326172,-1.0176392,0.2140503,-0.890625,0.921875,-1.171875
497,1695773402725,-0.05444336,-0.9763794,0.22869873,0.65625,2.140625,1.6875
498,1695773402754,-0.055664062,-0.9619751,0.21380615,2.140625,1.203125,0.625
499,1695773402804,-0.061035156,-0.9981079,0.20233154,-1.25,-0.09375,-1.0
500,1695773402828,-0.032714844,-0.9951782,0.22283936,0.859375,1.015625,-0.375
501,1695773402874,-0.059326172,-0.9956665,0.2062378,0.953125,1.3125,1.484375
502,1695773402917,-0.061523438,-0.9758911,0.2020874,-0.484375,-0.359375,0.28125
503,1695773402950,-0.052001953,-0.98565674,0.20550537,-1.6875,-0.671875,-1.203125
504,1695773402993,-0.06738281,-0.9841919,0.20794678,0.453125,0.640625,0.8125
505,1695773403039,-0.041748047,-0.9697876,0.21258545,1.59375,0.875,-0.484375
506,1695773403069,-0.045654297,-0.9866333,0.20794678,-0.71875,0.40625,0.0625
507,1695773403114,-0.064208984,-1.0056763,0.19476318,-0.84375,-1.53125,-0.515625
508,1695773403141,-0.055908203,-0.986145,0.20965576,-1.75,-0.140625,-0.8125
509,1695773403189,-0.053955078,-0.9846802,0.20159912,0.53125,0.5,0.0625
510,1695773403234,-0.060302734,-0.98760986,0.20916748,0.328125,1.390625,-0.078125
511,1695773403266,-0.041503906,-0.9866333,0.21331787,1.03125,0.390625,-0.171875
512,1695773403306,-0.060058594,-1.000061,0.19281006,-2.421875,-0.84375,-0.46875
513,1695773403352,-0.05053711,-0.96466064,0.20257568,-1.4375,0.40625,0.03125
514,1695773403383,-0.052978516,-0.9937134,0.22161865,1.859375,-0.0625,0.09375
515,1695773403425,-0.05419922,-0.99713135,0.19696045,-2.453125,-0.1875,-0.421875
516,1695773403455,-0.04248047,-0.9771118,0.19720459,-2.375,-1.0,-1.203125
517,1695773403500,-0.06323242,-0.9741821,0.20013428,-0.453125,-0.109375,0.21875
518,1695773403547,-0.055664062,-0.9819946,0.19476318,-1.28125,-0.4375,0.390625
519,1695773403578,-0.032714844,-0.9927368,0.20648193,-1.328125,-0.25,-0.703125
520,1695773403621,-0.05517578,-1.0054321,0.20477295,-1.796875,0.265625,-0.875
521,1695773403651,-0.047851562,-0.9758911,0.20428467,-1.96875,-0.984375,-0.359375
522,1695773403695,-0.052490234,-0.97735596,0.20111084,-2.296875,-0.46875,-0.953125
523,1695773403740,-0.05908203,-0.99664307,0.2140503,-0.34375,-0.75,-1.328125
524,1695773403771,-0.04736328,-0.9907837,0.22161865,-1.9375,-0.03125,-0.53125
525,1695773403823,-0.05883789,-0.9885864,0.21844482,-0.921875,-1.46875,0.015625
526,1695773403861,-0.08081055,-0.98760986,0.21697998,-1.390625,0.171875,-0.03125
527,1695773403891,-0.05126953,-0.96661377,0.21160889,-2.4375,-0.34375,-1.265625
528,1695773403936,-0.060058594,-0.9990845,0.21575928,-2.578125,-0.03125,-1.140625
529,1695773403966,-0.059570312,-0.99346924,0.22235107,-1.671875,0.1875,-1.0625
530,1695773404011,-0.060791016,-0.9758911,0.22503662,-1.28125,-0.796875,0.15625
531,1695773404056,-0.052978516,-0.9776001,0.22406006,-0.421875,0.828125,-1.359375
532,1695773404085,-0.068847656,-0.98321533,0.21795654,-1.171875,0.328125,-0.78125
533,1695773404132,-0.071777344,-0.9817505,0.22161865,-1.75,-0.390625,-0.875
534,1695773404177,-0.056152344,-0.98931885,0.21917725,-1.375,-0.609375,-0.953125
535,1695773404207,-0.05810547,-0.9788208,0.23016357,-0.703125,0.640625,0.109375
536,1695773404254,-0.06347656,-0.9846802,0.22601318,-0.234375,0.375,-0.328125
537,1695773404287,-0.06738281,-0.9846802,0.21356201,-0.515625,0.140625,-0.578125
538,1695773404329,-0.06665039,-0.9771118,0.22698975,-0.5,-0.015625,-1.5625
539,1695773404374,-0.057128906,-0.99346924,0.22161865,0.46875,0.4375,-1.3125
540,1695773404403,-0.064697266,-0.99005127,0.22283936,-0.6875,-0.03125,0.625
541,1695773404451,-0.06274414,-0.9631958,0.22332764,-0.34375,-0.65625,-0.421875
542,1695773404494,-0.08496094,-0.9993286,0.23065186,-1.1875,-0.1875,-0.4375
543,1695773404522,-0.07397461,-0.9741821,0.22283936,-0.578125,0.765625,0.03125
544,1695773404567,-0.05517578,-0.9800415,0.22332764,-0.328125,1.0,-1.9375
545,1695773404597,-0.064453125,-0.9963989,0.22381592,-0.25,0.21875,-0.625
546,1695773404644,-0.056396484,-0.9758911,0.22650146,-1.03125,-0.453125,0.21875
547,1695773404691,-0.079589844,-0.9866333,0.22259521,-0.984375,0.40625,-0.53125
548,1695773404720,-0.07055664,-0.9885864,0.22772217,-0.0625,1.8125,-0.046875
549,1695773404764,-0.07348633,-0.98638916,0.22113037,-2.609375,-1.03125,-0.640625
550,1695773404809,-0.0703125,-0.96588135,0.2267456,-0.46875,0.53125,-0.5
551,1695773404841,-0.05444336,-0.98931885,0.21746826,-0.96875,-0.5,-1.71875
552,1695773404886,-0.07470703,-0.99713135,0.23602295,-1.015625,-0.640625,0.359375
553,1695773404924,-0.068603516,-0.99005127,0.23358154,0.53125,0.078125,0.34375
554,1695773404961,-0.076660156,-0.9846802,0.22918701,-1.140625,0.625,0.71875
555,1695773405003,-0.07006836,-0.9714966,0.21917725,-0.59375,0.53125,-0.453125
556,1695773405035,-0.05444336,-0.9927368,0.215271,-2.328125,1.1875,-1.046875
557,1695773405080,-0.06225586,-0.9849243,0.22064209,-1.625,0.40625,1.453125
558,1695773405125,-0.057861328,-0.9668579,0.2321167,0.578125,-0.90625,-0.125
559,1695773405153,-0.05029297,-0.99005127,0.22918701,0.46875,0.3125,0.34375
560,1695773405199,-0.08129883,-0.9692993,0.21820068,-0.265625,-0.140625,0.859375
561,1695773405228,-0.07470703,-0.97979736,0.21209717,-2.859375,-0.390625,-0.625
562,1695773405273,-0.05859375,-0.9902954,0.22479248,-1.671875,-1.171875,-2.078125
563,1695773405320,-0.0637207,-1.010315,0.24212646,-0.734375,1.609375,-0.3125
564,1695773405352,-0.06738281,-0.9661255,0.230896,0.359375,1.4375,1.5625
565,1695773405394,-0.06640625,-0.9697876,0.21160889,-1.6875,0.453125,0.0
566,1695773405438,-0.05126953,-0.97735596,0.2267456,-0.859375,-0.96875,-1.25
567,1695773405470,-0.051757812,-0.9932251,0.23358154,0.5,-0.625,-1.65625
568,1695773405516,-0.100097656,-1.0108032,0.24920654,-0.640625,-0.703125,0.8125
569,1695773405545,-0.08203125,-0.9624634,0.22210693,-0.59375,-0.59375,1.28125
570,1695773405589,-0.064697266,-0.97540283,0.2111206,-1.53125,0.265625,-0.078125
571,1695773405634,-0.059326172,-0.9805298,0.21990967,1.0625,2.421875,0.078125
572,1695773405664,-0.044189453,-1.0007935,0.22113037,-1.828125,0.4375,0.140625
573,1695773405711,-0.068359375,-0.97735596,0.21746826,-2.59375,-1.125,0.484375
574,1695773405756,-0.060302734,-0.98321533,0.23162842,0.015625,1.375,0.234375
575,1695773405787,-0.050048828,-0.972229,0.22161865,-1.453125,-0.375,-0.4375
576,1695773405829,-0.064208984,-0.99005127,0.22454834,-1.46875,1.15625,-0.59375
577,1695773405863,-0.0546875,-0.98101807,0.2399292,-1.40625,1.109375,-1.234375
578,1695773405903,-0.061767578,-0.973938,0.2333374,-1.109375,-0.859375,-0.40625
579,1695773405952,-0.06518555,-0.9841919,0.24017334,-0.53125,0.171875,-0.453125
580,1695773405979,-0.05908203,-0.9834595,0.23162842,-2.203125,0.4375,-0.09375
581,1695773406022,-0.06689453,-0.97857666,0.23651123,1.328125,0.546875,-0.046875
582,1695773406067,-0.060546875,-1.0005493,0.23602295,0.09375,0.375,-1.046875
583,1695773406097,-0.06738281,-0.97662354,0.22210693,-1.96875,-1.0,-0.84375
584,1695773406143,-0.06542969,-0.9590454,0.22479248,-0.078125,1.09375,-0.953125
585,1695773406172,-0.071777344,-0.9993286,0.23187256,0.234375,0.40625,0.125
586,1695773406217,-0.05493164,-0.973938,0.22943115,-1.765625,-0.5,0.078125
587,1695773406261,-0.05419922,-1.0049438,0.22918701,1.03125,0.0,-2.140625
588,1695773406292,-0.057617188,-0.9783325,0.2345581,-2.921875,0.734375,-0.921875
589,1695773406336,-0.076660156,-0.97662354,0.22894287,-0.4375,-0.84375,0.109375
590,1695773406413,-0.07104492,-0.9776001,0.24285889,-1.203125,1.265625,-0.40625
591,1695773406416,-0.05126953,-0.99298096,0.22479248,-0.03125,-0.484375,-1.453125
592,1695773406457,-0.059570312,-0.98760986,0.2374878,-1.671875,-0.4375,-0.8125
593,1695773406487,-0.08251953,-0.973938,0.22869873,-0.59375,0.703125,0.015625
594,1695773406531,-0.07861328,-0.97906494,0.22161865,-0.140625,0.234375,-0.296875
595,1695773406576,-0.061767578,-0.9834595,0.2255249,-0.953125,1.328125,-1.109375
596,1695773406609,-0.060302734,-0.9951782,0.23577881,0.734375,0.359375,-0.421875
597,1695773406653,-0.06958008,-0.97369385,0.23114014,-0.921875,-0.03125,0.3125
598,1695773406698,-0.0793457,-0.98101807,0.23065186,-0.21875,-0.171875,-0.40625
599,1695773406728,-0.06542969,-0.9846802,0.22772217,-2.625,0.359375,-1.125
600,1695773406776,-0.07128906,-0.9795532,0.23919678,0.84375,0.328125,0.421875
601,1695773406803,-0.07104492,-0.9939575,0.23431396,-0.3125,-0.171875,-0.546875
602,1695773406849,-0.048339844,-0.9690552,0.2345581,-2.328125,0.390625,-0.4375
603,1695773406893,-0.083984375,-0.991272,0.2218628,0.484375,-0.203125,0.078125
604,1695773406925,-0.072753906,-0.9824829,0.24578857,0.5,0.359375,0.28125
605,1695773406969,-0.06713867,-0.98883057,0.22064209,-2.53125,-0.765625,-1.9375
606,1695773407014,-0.07446289,-0.9768677,0.22918701,-0.921875,1.546875,-0.5625
607,1695773407042,-0.067871094,-0.9776001,0.23260498,-0.9375,-0.078125,0.171875
608,1695773407088,-0.06347656,-0.99224854,0.22503662,-0.875,0.359375,0.5625
609,1695773407124,-0.0546875,-0.97540283,0.23309326,-0.28125,-0.65625,-0.40625
610,1695773407165,-0.07006836,-0.9644165,0.22845459,-0.796875,-0.65625,-1.0
611,1695773407209,-0.10913086,-0.9956665,0.23284912,-1.15625,-0.671875,0.40625
612,1695773407237,-0.07128906,-0.9871216,0.24139404,-1.453125,1.484375,0.953125
613,1695773407282,-0.045898438,-0.9783325,0.21942139,0.25,1.390625,-0.359375
614,1695773407326,-0.06201172,-0.9898071,0.2333374,-0.140625,0.421875,-0.046875
615,1695773407356,-0.07055664,-0.9734497,0.2267456,-1.84375,-1.703125,-0.40625
616,1695773407401,-0.080078125,-0.9841919,0.22821045,-0.375,0.421875,-0.28125
617,1695773407432,-0.071777344,-0.9885864,0.23675537,0.96875,1.34375,0.8125
618,1695773407476,-0.068359375,-0.98150635,0.24334717,-0.28125,-0.34375,0.734375
619,1695773407521,-0.061523438,-0.98272705,0.22259521,-1.390625,0.953125,-0.546875
620,1695773407550,-0.056640625,-0.99053955,0.21942139,-3.0,-1.015625,-0.921875
621,1695773407598,-0.06518555,-0.9817505,0.22576904,-0.625,-0.6875,-0.734375
622,1695773407641,-0.06225586,-0.9729614,0.23382568,-0.4375,0.921875,-0.203125
623,1695773407671,-0.08227539,-0.99835205,0.22259521,-0.0625,0.078125,-0.078125
624,1695773407715,-0.060546875,-0.9812622,0.22845459,-2.828125,-0.125,-0.890625
625,1695773407746,-0.06933594,-0.9795532,0.24017334,-0.96875,0.15625,0.046875
626,1695773407791,-0.076416016,-0.9890747,0.24969482,0.734375,0.328125,-1.078125
627,1695773407838,-0.060791016,-0.98638916,0.24456787,-1.953125,0.6875,-0.109375
628,1695773407867,-0.0690918,-0.9697876,0.21942139,-0.15625,0.171875,0.125
629,1695773407912,-0.06567383,-0.97320557,0.23040771,-0.765625,0.390625,-1.171875
630,1695773407942,-0.07763672,-0.98443604,0.24139404,-1.40625,-0.9375,-0.125
631,1695773407987,-0.08227539,-0.9927368,0.23529053,-0.625,-0.453125,-0.28125
632,1695773408036,-0.0715332,-0.9846802,0.24822998,-0.921875,0.921875,-0.1875
633,1695773408062,-0.072509766,-0.97003174,0.23431396,-0.046875,0.09375,-0.171875
634,1695773408107,-0.07519531,-0.9783325,0.22601318,-1.109375,1.734375,0.234375
635,1695773408152,-0.06274414,-0.9800415,0.24066162,-1.046875,-0.5,0.671875
636,1695773408183,-0.053466797,-0.9807739,0.23382568,0.34375,0.59375,0.390625
637,1695773408228,-0.044189453,-0.9939575,0.23382568,0.265625,1.109375,-0.25
638,1695773408259,-0.064697266,-0.96173096,0.23675537,1.4375,0.71875,0.453125
639,1695773408303,-0.07470703,-0.99420166,0.23065186,0.75,-0.046875,-0.296875
640,1695773408349,-0.053710938,-0.987854,0.2296753,-0.953125,0.921875,0.03125
641,1695773408380,-0.052734375,-0.9812622,0.22381592,0.984375,2.0,0.546875
642,1695773408424,-0.06616211,-0.96343994,0.22772217,1.75,0.625,-0.65625
643,1695773408469,-0.048095703,-0.9968872,0.22869873,1.96875,1.40625,-1.09375
644,1695773408497,-0.076171875,-0.99224854,0.21331787,-0.203125,-0.109375,0.171875
645,1695773408545,-0.06713867,-0.9729614,0.22991943,0.203125,1.390625,-0.234375
646,1695773408574,-0.05419922,-0.98931885,0.2255249,-0.15625,0.15625,-1.453125
647,1695773408619,-0.0690918,-1.0005493,0.2267456,-2.0,0.125,-1.15625
648,1695773408666,-0.061523438,-0.96343994,0.20941162,-2.5,-0.28125,-1.796875
649,1695773408695,-0.07299805,-0.97784424,0.215271,1.265625,-0.453125,-2.03125
650,1695773408744,-0.06713867,-0.9841919,0.22503662,1.453125,-0.375,-1.5625
651,1695773408785,-0.0847168,-1.0083618,0.22454834,-1.046875,-0.5625,1.09375
652,1695773408814,-0.059814453,-0.9776001,0.20501709,-0.171875,2.15625,-0.375
653,1695773408861,-0.06665039,-0.9873657,0.20819092,1.609375,0.421875,0.171875
654,1695773408889,-0.0715332,-0.9685669,0.21942139,2.125,1.921875,-0.453125
655,1695773408935,-0.080566406,-0.9834595,0.20794678,-1.515625,-0.9375,-1.625
656,1695773408979,-0.07055664,-0.9834595,0.2033081,0.609375,1.171875,-0.90625
657,1695773409009,-0.06640625,-0.9976196,0.2086792,1.375,1.171875,0.6875
658,1695773409057,-0.07348633,-0.9854126,0.19866943,0.546875,0.40625,1.75
659,1695773409100,-0.07543945,-0.9783325,0.20037842,0.546875,0.28125,-0.96875
660,1695773409128,-0.079833984,-0.9949341,0.19671631,-0.546875,1.234375,-1.21875
661,1695773409175,-0.07714844,-0.9812622,0.2111206,0.078125,0.578125,0.65625
662,1695773409205,-0.05883789,-0.99542236,0.20428467,1.921875,0.40625,0.953125
663,1695773409250,-0.05859375,-0.9985962,0.1876831,-1.09375,-0.140625,0.0625
664,1695773409294,-0.067871094,-0.9710083,0.19647217,0.796875,0.171875,-0.171875
665,1695773409322,-0.0769043,-0.9939575,0.1954956,0.734375,-0.1875,-0.75
666,1695773409370,-0.08496094,-0.9968872,0.20037842,-0.109375,1.4375,0.765625
667,1695773409416,-0.061767578,-0.9807739,0.20770264,1.671875,2.515625,0.5625
668,1695773409445,-0.059326172,-0.9824829,0.17669678,-1.640625,0.453125,0.359375
669,1695773409490,-0.068115234,-0.9690552,0.18988037,0.734375,-0.296875,0.015625
670,1695773409518,-0.057617188,-1.0066528,0.19281006,-1.703125,0.078125,-0.515625
671,1695773409570,-0.06713867,-0.9898071,0.184021,-1.046875,0.125,1.15625
672,1695773409609,-0.06762695,-0.98443604,0.19598389,-2.703125,0.34375,-0.171875
673,1695773409641,-0.06738281,-0.9819946,0.18719482,-2.984375,0.25,0.09375
674,1695773409687,-0.061767578,-0.9866333,0.19378662,0.484375,1.125,-0.546875
675,1695773409729,-0.045654297,-0.9883423,0.20306396,-2.53125,1.328125,-2.078125
676,1695773409759,-0.053466797,-0.9692993,0.1984253,-0.1875,0.21875,-0.671875
677,1695773409805,-0.071777344,-0.9920044,0.20355225,-2.265625,-1.6875,0.9375
678,1695773409834,-0.09375,-0.99298096,0.19940186,-1.828125,-1.8125,1.09375
679,1695773409879,-0.049560547,-0.9976196,0.20062256,-4.15625,0.8125,-3.171875
680,1695773409924,-0.05859375,-1.0071411,0.21136475,-0.203125,-0.1875,-1.046875
681,1695773409955,-0.039794922,-0.97003174,0.21624756,-1.859375,-1.28125,-2.5
682,1695773410001,-0.068359375,-0.96221924,0.19354248,-4.515625,-0.875,-1.171875
683,1695773410047,-0.096191406,-0.96295166,0.19989014,-3.5,-4.359375,-0.4375
684,1695773410076,-0.0703125,-1.003479,0.22845459,-3.875,0.171875,-1.359375
685,1695773410118,-0.08081055,-1.0166626,0.2267456,-2.03125,-0.203125,0.9375
686,1695773410147,-0.064453125,-0.9470825,0.22332764,-1.4375,0.140625,-1.78125
687,1695773410194,-0.06640625,-0.98394775,0.22015381,-4.140625,-0.6875,-2.140625
688,1695773410240,-0.09741211,-0.9837036,0.2267456,-4.03125,-2.375,1.234375
689,1695773410270,-0.06616211,-0.9800415,0.24627686,-2.046875,-1.375,-0.84375
690,1695773410315,-0.07055664,-0.99102783,0.2477417,-2.65625,1.4375,-0.640625
691,1695773410361,-0.07739258,-0.98443604,0.23406982,-0.15625,-1.078125,0.578125
692,1695773410391,-0.07519531,-0.96099854,0.23480225,-1.65625,-0.71875,-0.109375
693,1695773410434,-0.08569336,-0.9807739,0.25213623,-1.328125,-0.59375,0.046875
694,1695773410465,-0.079833984,-0.989563,0.24603271,-2.765625,0.5625,-0.296875
695,1695773410513,-0.05908203,-0.98321533,0.24310303,-1.140625,0.828125,0.625
696,1695773410555,-0.06274414,-0.97198486,0.23284912,-0.765625,0.109375,1.265625
697,1695773410587,-0.078125,-0.96661377,0.24212646,-2.578125,-1.53125,-1.15625
698,1695773410632,-0.08935547,-0.9924927,0.24310303,-2.25,-0.21875,-0.5625
699,1695773410704,-0.064208984,-0.98516846,0.2531128,-0.203125,3.046875,1.390625
700,1695773410709,-0.07299805,-0.9837036,0.25579834,-0.609375,1.765625,0.984375
701,1695773410749,-0.07006836,-0.9751587,0.24871826,-0.484375,1.90625,0.078125
702,1695773410781,-0.06713867,-0.9631958,0.24310303,-1.9375,1.71875,-1.03125
703,1695773410826,-0.064941406,-0.97540283,0.25115967,-2.5,0.53125,-1.25
704,1695773410870,-0.07495117,-0.98809814,0.25628662,-2.390625,-1.078125,-0.203125
705,1695773410899,-0.07519531,-0.98321533,0.25653076,-1.453125,1.078125,0.546875
706,1695773410944,-0.06665039,-0.9902954,0.26287842,1.375,1.421875,-0.4375
707,1695773410989,-0.0690918,-0.98223877,0.25872803,0.671875,2.34375,0.328125
708,1695773411019,-0.060546875,-0.95758057,0.2399292,-1.84375,0.375,-0.4375
709,1695773411066,-0.052001953,-0.9758911,0.24481201,-0.671875,-1.0,-2.234375
710,1695773411095,-0.072021484,-0.99176025,0.2675171,0.9375,-0.890625,-0.828125
711,1695773411139,-0.084472656,-0.98760986,0.25360107,0.484375,-1.234375,1.09375
712,1695773411184,-0.07006836,-0.9783325,0.24627686,-1.1875,-0.671875,0.4375
713,1695773411213,-0.07421875,-0.96661377,0.23480225,0.40625,-0.921875,-1.25
714,1695773411260,-0.087646484,-0.99957275,0.24407959,0.65625,0.765625,-2.46875
715,1695773411306,-0.078125,-0.98516846,0.2555542,-0.40625,0.09375,0.0
716,1695773411333,-0.06933594,-0.96832275,0.24261475,-0.546875,-0.625,-0.21875
717,1695773411377,-0.06616211,-0.97662354,0.24383545,-0.140625,0.375,-0.828125
718,1695773411408,-0.072021484,-0.99102783,0.24847412,-1.5,-1.828125,-0.953125
719,1695773411454,-0.0859375,-0.9746704,0.23577881,-1.375,-0.9375,0.6875
720,1695773411500,-0.1003418,-0.98101807,0.25213623,1.5625,0.859375,1.375
721,1695773411530,-0.08862305,-0.9807739,0.2453003,-0.265625,2.0,-0.4375
722,1695773411575,-0.06347656,-0.9771118,0.23406982,-1.5625,1.71875,-0.90625
723,1695773411621,-0.052246094,-0.9800415,0.24163818,-0.109375,1.15625,-0.359375
724,1695773411649,-0.064941406,-0.98223877,0.23846436,-1.265625,-1.234375,0.453125
725,1695773411695,-0.07836914,-0.98443604,0.24554443,-0.6875,0.078125,0.71875
726,1695773411724,-0.0793457,-0.9837036,0.2489624,-0.125,1.390625,0.875
727,1695773411772,-0.08178711,-0.9780884,0.24603271,-1.328125,0.625,0.046875
728,1695773411815,-0.071777344,-0.97247314,0.2538452,-1.75,0.6875,-0.875
729,1695773411846,-0.052001953,-0.9763794,0.24383545,0.015625,1.015625,-0.703125
730,1695773411890,-0.06713867,-0.9834595,0.24090576,-0.0625,-0.34375,0.828125
731,1695773411935,-0.07836914,-0.9717407,0.2538452,-2.21875,-1.40625,-0.078125
732,1695773411967,-0.072509766,-0.97491455,0.24578857,-1.0,-0.203125,-1.0
733,1695773412008,-0.079833984,-1.0059204,0.25042725,-0.09375,1.40625,-0.328125
734,1695773412040,-0.057861328,-0.9692993,0.24554443,-0.375,1.15625,-0.0625
735,1695773412086,-0.06762695,-0.9729614,0.24090576,-2.078125,0.3125,-0.1875
736,1695773412130,-0.08178711,-0.97320557,0.24969482,-0.15625,-0.65625,-0.125
737,1695773412159,-0.064697266,-0.9812622,0.25823975,-0.453125,0.0625,-1.625
738,1695773412201,-0.08544922,-0.99664307,0.24285889,-1.921875,0.25,0.078125
739,1695773412232,-0.06201172,-0.9573364,0.26239014,0.84375,1.375,-0.125
740,1695773412282,-0.07128906,-1.000061,0.24334717,-0.6875,-0.1875,-0.203125
741,1695773412325,-0.072265625,-0.97247314,0.24749756,-0.328125,0.03125,0.21875
742,1695773412353,-0.06933594,-0.99053955,0.24578857,-1.375,-0.5,-1.171875
743,1695773412398,-0.0715332,-0.9771118,0.24139404,-1.15625,-0.234375,0.140625
744,1695773412442,-0.079589844,-0.98931885,0.24505615,1.15625,0.03125,-0.828125
745,1695773412474,-0.07788086,-0.9932251,0.24700928,-2.875,-0.828125,0.21875
746,1695773412519,-0.072509766,-0.95928955,0.25042725,0.671875,-0.28125,-0.21875
747,1695773412550,-0.07348633,-0.98565674,0.24041748,-0.6875,0.75,-0.03125
748,1695773412594,-0.0769043,-0.97979736,0.2584839,-0.109375,0.140625,0.625
749,1695773412641,-0.07421875,-0.98101807,0.25286865,-0.953125,-0.140625,-0.46875
750,1695773412671,-0.07495117,-0.9741821,0.25042725,0.484375,0.078125,-0.375
751,1695773412717,-0.07055664,-0.9915161,0.23919678,-0.21875,0.59375,-1.234375
752,1695773412760,-0.07055664,-0.9800415,0.23406982,-2.640625,-0.03125,0.328125
753,1695773412788,-0.07128906,-0.9751587,0.2514038,0.015625,0.453125,0.5625
754,1695773412834,-0.072509766,-0.9776001,0.25482178,-1.046875,0.34375,-0.484375
755,1695773412863,-0.07373047,-0.9873657,0.24749756,-0.921875,0.3125,-0.78125
756,1695773412909,-0.06738281,-0.97540283,0.23406982,-0.859375,0.296875,-1.078125
757,1695773412955,-0.0637207,-0.96539307,0.25213623,-0.546875,-0.1875,0.046875
758,1695773412983,-0.084472656,-0.9819946,0.24432373,0.546875,-0.015625,0.84375
759,1695773413028,-0.078125,-0.9907837,0.25457764,-1.265625,0.6875,0.140625
760,1695773413076,-0.0637207,-0.9751587,0.2501831,0.296875,1.484375,-0.078125
761,1695773413109,-0.07373047,-0.9841919,0.23968506,-0.671875,0.359375,-1.421875
762,1695773413150,-0.057617188,-0.96466064,0.24993896,0.1875,0.8125,-0.453125
763,1695773413181,-0.07324219,-0.9890747,0.23773193,-1.15625,-0.921875,-0.0625
764,1695773413223,-0.08300781,-0.97784424,0.25335693,-1.296875,-0.421875,0.3125
765,1695773413270,-0.07836914,-0.9829712,0.24359131,-0.828125,0.453125,-0.328125
766,1695773413300,-0.08105469,-0.98028564,0.2423706,-2.0625,1.15625,-0.328125
767,1695773413346,-0.068115234,-0.97052,0.24456787,-0.625,0.921875,-0.515625
768,1695773413390,-0.051757812,-0.97198486,0.24310303,-1.21875,0.765625,-0.28125
769,1695773413422,-0.0703125,-0.98443604,0.24945068,-0.0625,0.234375,0.875
770,1695773413467,-0.092285156,-0.9807739,0.25726318,-1.390625,-0.875,0.0625
771,1695773413493,-0.07470703,-0.97857666,0.25482178,-1.1875,0.15625,-0.921875
772,1695773413540,-0.060058594,-0.98809814,0.24310303,0.421875,1.421875,-0.546875
773,1695773413584,-0.06542969,-0.96832275,0.25457764,-0.6875,1.046875,0.015625
774,1695773413616,-0.0703125,-0.9817505,0.246521,-0.984375,-1.09375,-0.8125
775,1695773413658,-0.0625,-0.9702759,0.24041748,-1.5,-1.234375,-1.0625
776,1695773413706,-0.06713867,-0.9866333,0.262146,-0.4375,0.3125,-0.96875
777,1695773413734,-0.0871582,-0.9776001,0.25579834,-0.640625,-0.421875,0.28125
778,1695773413779,-0.09277344,-0.96539307,0.25408936,-0.609375,0.546875,0.96875
779,1695773413809,-0.061279297,-0.956604,0.24847412,0.953125,1.328125,-0.078125
780,1695773413856,-0.06738281,-1.0044556,0.2411499,-0.375,0.765625,-2.296875
781,1695773413900,-0.0690918,-0.987854,0.23797607,-2.015625,0.1875,-0.953125
782,1695773413945,-0.06762695,-0.96539307,0.25823975,0.671875,1.921875,1.71875
783,1695773413973,-0.07299805,-0.97125244,0.23577881,0.65625,0.0,0.59375
784,1695773414020,-0.091308594,-0.98321533,0.24847412,-3.5625,0.1875,-0.046875
785,1695773414050,-0.049804688,-0.9763794,0.24798584,-0.375,1.53125,-1.453125
786,1695773414095,-0.060546875,-0.99884033,0.24676514,0.65625,0.96875,-1.734375
787,1695773414125,-0.07739258,-0.9758911,0.2518921,-3.109375,-0.125,0.78125
788,1695773414172,-0.06542969,-0.9524536,0.24017334,-1.296875,0.71875,1.421875
789,1695773414214,-0.080078125,-0.9763794,0.23797607,-1.578125,0.90625,-0.875
790,1695773414243,-0.07519531,-0.9915161,0.26141357,-0.109375,-0.578125,-0.765625
791,1695773414288,-0.06713867,-0.99468994,0.2543335,-1.09375,0.78125,-2.21875
792,1695773414334,-0.06274414,-0.9788208,0.24945068,-1.125,0.171875,-0.9375
793,1695773414365,-0.08935547,-0.97320557,0.24969482,0.265625,-0.84375,0.5625
794,1695773414409,-0.07836914,-0.972229,0.24285889,-1.046875,-0.859375,-0.328125
795,1695773414437,-0.05102539,-0.95880127,0.2501831,1.453125,0.84375,-1.171875
796,1695773414483,-0.0859375,-1.0117798,0.24847412,-2.390625,0.859375,-1.0
797,1695773414529,-0.064208984,-0.98565674,0.24749756,-1.1875,-1.359375,0.8125
798,1695773414559,-0.07421875,-0.9932251,0.27264404,-0.296875,1.859375,1.515625
799,1695773414604,-0.07397461,-0.9536743,0.25506592,3.390625,0.796875,1.359375
800,1695773414650,-0.07861328,-0.98809814,0.25213623,-0.671875,1.28125,-1.515625
801,1695773414681,-0.060302734,-0.960022,0.23822021,-0.34375,0.234375,0.078125
802,1695773414731,-0.06738281,-0.9944458,0.25506592,2.484375,1.375,0.078125
803,1695773414753,-0.048095703,-0.98272705,0.23895264,-0.59375,0.984375,-2.28125
804,1695773414800,-0.099121094,-0.9885864,0.2374878,-1.484375,-0.15625,1.34375
805,1695773414846,-0.08105469,-0.9619751,0.23602295,0.1875,1.171875,1.015625
806,1695773414874,-0.07373047,-0.991272,0.23724365,1.015625,2.125,0.328125
807,1695773414923,-0.053955078,-0.9714966,0.23895264,1.703125,4.203125,1.453125
808,1695773414995,-0.06201172,-0.9834595,0.21258545,-2.328125,-0.625,0.609375
809,1695773414998,-0.07373047,-0.9780884,0.2374878,0.671875,0.5625,2.0
810,1695773415040,-0.041015625,-0.9768677,0.25482178,1.078125,1.296875,-1.9375
811,1695773415071,-0.072265625,-1.0005493,0.23382568,0.625,0.59375,-1.421875
812,1695773415115,-0.07055664,-0.972229,0.2296753,-0.921875,0.171875,0.078125
813,1695773415161,-0.05810547,-0.96343994,0.23040771,1.453125,1.6875,0.46875
814,1695773415190,-0.046875,-0.9924927,0.22991943,0.734375,0.109375,0.84375
815,1695773415236,-0.049560547,-1.0071411,0.24041748,-0.328125,-0.546875,-1.09375
816,1695773415276,-0.06958008,-0.9729614,0.2189331,-0.328125,-0.4375,-2.234375
817,1695773415307,-0.079833984,-0.95684814,0.20916748,-1.3125,-0.484375,-1.671875
818,1695773415354,-0.07495117,-0.97735596,0.23114014,0.328125,-0.875,0.71875
819,1695773415385,-0.076416016,-1.0095825,0.23358154,-2.125,0.5625,1.328125
820,1695773415429,-0.057617188,-0.9741821,0.22137451,-1.46875,2.65625,-0.671875
821,1695773415474,-0.06640625,-0.97906494,0.22381592,0.5,0.265625,-1.265625
822,1695773415505,-0.053710938,-0.9812622,0.23968506,1.21875,-0.203125,-2.09375
823,1695773415547,-0.09399414,-0.9993286,0.2230835,-2.671875,-2.3125,0.625
824,1695773415593,-0.059570312,-0.9602661,0.23040771,2.359375,1.625,0.25
825,1695773415623,-0.06689453,-1.0022583,0.23065186,0.125,1.3125,0.59375
826,1695773415669,-0.06542969,-0.97052,0.20794678,-0.34375,-0.71875,2.0
827,1695773415700,-0.044921875,-0.99713135,0.23236084,0.046875,1.65625,0.125
828,1695773415744,-0.053710938,-0.97198486,0.22845459,1.46875,0.046875,0.15625
829,1695773415788,-0.03955078,-0.9727173,0.21746826,-0.796875,-0.65625,-3.703125
830,1695773415818,-0.052001953,-0.9939575,0.21014404,-2.1875,-2.703125,-2.28125
831,1695773415863,-0.053222656,-0.9907837,0.21209717,-1.890625,-3.0,-0.546875
832,1695773415909,-0.09838867,-0.9807739,0.2243042,-3.40625,-2.34375,0.4375
833,1695773415939,-0.092041016,-0.9788208,0.22698975,-2.125,-0.546875,-1.140625
834,1695773415986,-0.067871094,-0.99005127,0.23919678,-2.453125,1.3125,-0.109375
835,1695773416013,-0.05078125,-0.9717407,0.22454834,-1.90625,0.875,-0.46875
836,1695773416058,-0.05493164,-0.973938,0.23114014,-2.328125,0.1875,-1.640625
837,1695773416105,-0.060791016,-0.97247314,0.22869873,-0.15625,-0.765625,0.78125
838,1695773416134,-0.07055664,-1.0054321,0.22381592,-0.703125,-1.34375,1.671875
839,1695773416180,-0.087890625,-0.99420166,0.24407959,-1.375,0.5625,1.765625
840,1695773416224,-0.07373047,-0.973938,0.24554443,1.40625,0.59375,-0.828125
841,1695773416252,-0.06567383,-0.9758911,0.22332764,-2.703125,-0.140625,-1.515625
842,1695773416298,-0.07836914,-0.98565674,0.23822021,-0.84375,-0.125,1.3125
843,1695773416328,-0.051513672,-0.9885864,0.24578857,-0.40625,0.0,0.671875
844,1695773416374,-0.06274414,-0.9800415,0.22772217,-1.3125,-0.125,0.0
845,1695773416419,-0.06347656,-0.9680786,0.2321167,-0.28125,0.65625,0.25
846,1695773416447,-0.04663086,-0.97735596,0.23284912,-0.640625,-0.25,-1.734375
847,1695773416491,-0.05444336,-0.99542236,0.22650146,-3.140625,-0.390625,-0.296875
848,1695773416521,-0.06274414,-0.9944458,0.2477417,-1.421875,0.03125,0.28125
849,1695773416566,-0.061523438,-0.97125244,0.23846436,-1.0625,1.015625,0.859375
850,1695773416611,-0.07128906,-0.96661377,0.23553467,-1.296875,-0.21875,-0.59375
851,1695773416642,-0.050048828,-0.9981079,0.23968506,-1.515625,0.71875,-0.71875
852,1695773416687,-0.061767578,-0.98516846,0.2321167,-0.234375,-0.265625,0.671875
853,1695773416731,-0.076660156,-0.98394775,0.24847412,-0.375,-0.640625,-1.046875
854,1695773416761,-0.072265625,-0.9795532,0.24163818,-2.1875,-0.046875,-0.53125
855,1695773416806,-0.0690918,-0.9780884,0.23822021,0.96875,1.453125,0.296875
856,1695773416835,-0.052978516,-0.9697876,0.23577881,-1.53125,0.6875,-1.28125
857,1695773416881,-0.056152344,-0.9780884,0.24481201,-2.875,-0.640625,-0.4375
858,1695773416927,-0.055908203,-0.98883057,0.23480225,-1.3125,-0.21875,-0.78125
859,1695773416956,-0.049316406,-0.97979736,0.25335693,-1.109375,-0.25,-1.265625
860,1695773417002,-0.0703125,-0.97442627,0.26312256,-1.515625,-0.796875,-1.125
861,1695773417047,-0.09057617,-0.99005127,0.24017334,-2.0,-1.5625,-0.9375
862,1695773417076,-0.07495117,-0.96832275,0.25408936,-2.1875,0.734375,-1.421875
863,1695773417122,-0.053710938,-0.973938,0.24285889,-1.25,-0.578125,-1.34375
864,1695773417151,-0.07421875,-0.9976196,0.26678467,-0.078125,-0.234375,-0.1875
865,1695773417195,-0.084228516,-0.989563,0.25482178,-2.15625,-0.359375,-0.6875
866,1695773417240,-0.07495117,-0.9697876,0.25238037,-0.515625,0.78125,-0.703125
867,1695773417272,-0.078125,-0.98272705,0.25457764,0.5625,1.140625,0.328125
868,1695773417318,-0.061035156,-0.96832275,0.24212646,-0.734375,-0.5,-1.03125
869,1695773417361,-0.06591797,-0.97662354,0.25946045,-1.9375,-0.6875,-1.59375
870,1695773417391,-0.07763672,-0.9819946,0.25091553,-0.171875,-1.296875,-1.109375
871,1695773417438,-0.08154297,-0.98321533,0.26483154,-0.25,0.46875,0.515625
872,1695773417468,-0.07470703,-0.9727173,0.25335693,0.15625,0.0625,0.4375
873,1695773417517,-0.06225586,-0.98101807,0.25042725,-0.96875,0.328125,-0.1875
874,1695773417558,-0.076171875,-0.97491455,0.2518921,-0.421875,0.234375,0.40625
875,1695773417586,-0.08691406,-0.9788208,0.24359131,-0.8125,-0.625,-1.90625
876,1695773417631,-0.0871582,-0.9817505,0.24945068,-1.265625,1.03125,0.03125
877,1695773417677,-0.064208984,-0.972229,0.25701904,-0.859375,0.21875,-0.1875
878,1695773417706,-0.075927734,-0.9795532,0.24700928,0.40625,1.921875,1.125
879,1695773417752,-0.04711914,-0.9710083,0.25750732,-0.203125,1.421875,0.59375
880,1695773417781,-0.056640625,-0.9768677,0.24334717,-1.0625,-0.9375,-1.5
881,1695773417826,-0.08251953,-1.003479,0.24920654,-0.40625,-1.484375,-1.265625
882,1695773417873,-0.084472656,-0.9805298,0.2584839,-1.671875,-0.625,0.59375
883,1695773417903,-0.087402344,-0.95977783,0.24188232,0.21875,0.171875,0.53125
884,1695773417946,-0.06298828,-0.98394775,0.25872803,0.25,2.21875,-1.21875
885,1695773417993,-0.056640625,-0.987854,0.24749756,-2.03125,0.109375,-1.234375
886,1695773418021,-0.0769043,-0.975647,0.2423706,-0.4375,1.171875,-1.34375
887,1695773418067,-0.0715332,-0.98321533,0.24725342,-0.625,0.34375,-0.609375
888,1695773418096,-0.08081055,-0.9885864,0.25701904,-1.078125,-1.125,0.546875
889,1695773418142,-0.08935547,-0.96759033,0.25872803,-1.296875,0.53125,-0.625
890,1695773418188,-0.07910156,-0.9690552,0.2501831,-1.1875,-0.203125,-1.9375
891,1695773418217,-0.07299805,-0.99664307,0.2592163,-0.140625,0.53125,-0.75
892,1695773418262,-0.076660156,-0.98223877,0.25628662,-2.140625,-0.71875,0.8125
893,1695773418307,-0.08227539,-0.9710083,0.2501831,-2.484375,-1.3125,0.109375
894,1695773418339,-0.07861328,-0.9776001,0.2579956,-0.703125,-0.21875,-0.6875
895,1695773418383,-0.079589844,-0.97320557,0.27435303,0.84375,1.484375,-0.171875
896,1695773418414,-0.08886719,-0.987854,0.2616577,-1.703125,0.484375,-0.578125
897,1695773418461,-0.07788086,-0.97247314,0.2555542,-1.578125,-0.875,-0.984375
898,1695773418505,-0.068603516,-0.97979736,0.26141357,-0.5,0.953125,-0.125
899,1695773418532,-0.08569336,-0.97369385,0.26849365,1.03125,1.03125,0.40625
900,1695773418578,-0.0793457,-0.98223877,0.25238037,-2.15625,-0.15625,-0.671875
901,1695773418622,-0.07373047,-0.97125244,0.25579834,-0.46875,-0.3125,0.609375
902,1695773418658,-0.08520508,-0.9812622,0.25213623,-0.328125,-0.171875,-0.21875
903,1695773418699,-0.08691406,-0.9692993,0.26287842,-1.0625,-0.3125,-0.75
904,1695773418730,-0.07055664,-0.9883423,0.27459717,0.59375,0.203125,-0.890625
905,1695773418774,-0.075927734,-0.98687744,0.2526245,-1.15625,0.140625,0.21875
906,1695773418819,-0.08081055,-0.96588135,0.24969482,-1.234375,-0.515625,0.203125
907,1695773418849,-0.07373047,-0.9819946,0.26507568,-0.953125,-0.171875,-0.84375
908,1695773418896,-0.0793457,-0.9795532,0.26483154,0.328125,0.203125,-0.453125
909,1695773418939,-0.07421875,-0.9680786,0.25750732,-1.828125,0.75,0.78125
910,1695773418972,-0.0769043,-0.9697876,0.25506592,-0.40625,0.453125,0.421875
911,1695773419011,-0.07470703,-0.98883057,0.26312256,-0.8125,-0.078125,-1.5
