,timestamp,accel_x,accel_y,accel_z,gyro_x,gyro_y,gyro_z
0,1695773099423,-0.04736328,-0.94195557,0.11175537,-1.625,0.25,-0.671875
1,1695773099468,-0.08642578,-1.0513306,0.015319824,-9.046875,-1.109375,-1.609375
2,1695773099512,-0.06762695,-0.9356079,0.05291748,3.125,10.59375,0.03125
3,1695773099542,0.041259766,-1.0830688,0.14910889,22.546875,13.8125,1.171875
4,1695773099588,-0.13769531,-1.020813,0.05999756,-7.984375,-0.09375,12.53125
5,1695773099617,-0.06640625,-0.81256104,-0.009094238,-4.515625,-0.40625,-6.65625
6,1695773099663,0.03466797,-1.065979,0.08294678,16.859375,6.875,-5.234375
7,1695773099708,-0.040039062,-1.0872192,0.101501465,-3.25,-0.796875,10.125
8,1695773099738,-0.0546875,-0.92926025,-0.018615723,-6.6875,-1.203125,1.1875
9,1695773099782,0.0068359375,-0.99884033,0.04437256,12.5,8.609375,-4.25
10,1695773099827,-0.05444336,-1.0339966,0.018249512,-7.046875,-1.171875,4.90625
11,1695773099859,-0.07080078,-0.9143677,0.06781006,-2.59375,-0.546875,4.015625
12,1695773099902,0.0034179688,-1.0007935,0.07122803,11.328125,5.71875,-6.6875
13,1695773099933,-0.09765625,-1.0198364,-0.0029907227,-16.78125,-0.625,-0.859375
14,1695773099978,0.00024414062,-0.91534424,0.09857178,-1.328125,5.203125,-7.390625
15,1695773100026,0.004638672,-1.1167603,0.07220459,-8.375,-0.484375,2.359375
16,1695773100054,0.00048828125,-0.9636841,0.09442139,-28.328125,-5.3125,4.203125
17,1695773100099,-0.06201172,-0.99468994,0.121032715,5.640625,-5.296875,-0.875
18,1695773100130,-0.02319336,-1.0286255,0.07098389,2.109375,-2.46875,1.625
19,1695773100174,-0.099365234,-0.9331665,0.070251465,-3.890625,-0.65625,3.3125
20,1695773100220,0.024414062,-0.954895,0.09613037,14.296875,2.96875,-6.484375
21,1695773100252,-0.026367188,-1.1121216,0.070007324,-5.546875,-3.96875,2.15625
22,1695773100296,-0.017089844,-0.89019775,0.06707764,-4.484375,-2.75,1.875
23,1695773100341,-0.009033203,-1.0195923,0.05633545,2.484375,-2.09375,-6.0
24,1695773100370,-0.009277344,-1.0071411,0.10223389,-2.15625,1.140625,-2.53125
25,1695773100416,-0.05859375,-1.0073853,0.10809326,0.640625,-3.40625,-1.65625
26,1695773100446,-0.05834961,-1.0083618,0.06854248,-4.734375,-5.21875,-3.09375
27,1695773100491,-0.06347656,-0.96051025,0.046081543,2.984375,-0.046875,-1.53125
28,1695773100534,-0.04296875,-1.0352173,0.08905029,11.140625,2.453125,-5.640625
29,1695773100566,-0.04663086,-0.97491455,0.17791748,12.8125,2.96875,-1.59375
30,1695773100610,-0.14453125,-1.0454712,0.0060424805,-0.46875,-2.4375,9.640625
31,1695773100656,-0.115722656,-0.89508057,0.005554199,-6.59375,6.015625,0.0
32,1695773100685,-0.025878906,-1.1091919,0.062683105,9.796875,10.28125,0.578125
33,1695773100728,0.018798828,-0.9492798,0.08929443,10.375,14.984375,15.921875
34,1695773100764,-0.11791992,-1.0527954,0.058532715,6.75,7.03125,21.71875
35,1695773100807,-0.07885742,-0.90411377,0.041931152,-3.078125,6.546875,1.859375
36,1695773100850,0.091796875,-0.96295166,-0.097961426,1.6875,9.359375,-0.421875
37,1695773100881,0.08862305,-1.0247192,-0.003479004,-2.859375,5.703125,8.15625
38,1695773100927,0.12231445,-0.95562744,0.04925537,7.703125,-2.140625,-1.125
39,1695773100971,0.08154297,-1.0628052,0.051696777,-5.328125,-8.28125,1.71875
40,1695773101002,0.096191406,-0.79888916,-0.022277832,-5.453125,-9.453125,-9.953125
41,1695773101048,-0.16186523,-1.0476685,0.0758667,12.625,-13.609375,3.359375
42,1695773101077,0.03930664,-0.9126587,0.015808105,5.40625,-2.59375,17.1875
43,1695773101122,-0.024902344,-1.0261841,-0.034484863,-18.359375,-3.203125,-8.75
44,1695773101166,0.14868164,-0.9492798,0.06585693,6.90625,5.5625,-20.5
45,1695773101195,-0.21459961,-1.2940063,0.121276855,16.5625,-28.84375,1.46875
46,1695773101240,0.01953125,-0.69659424,-0.050598145,-5.765625,13.671875,17.484375
47,1695773101285,0.036376953,-0.973938,0.008972168,-27.453125,10.484375,-22.6875
48,1695773101315,0.07763672,-0.85235596,0.12884521,2.6875,3.203125,-19.015625
49,1695773101371,-0.24804688,-1.3984985,0.16082764,26.671875,-23.40625,19.4375
50,1695773101389,0.10473633,-0.6411743,-0.117492676,-13.15625,21.25,31.59375
51,1695773101433,0.13842773,-0.8230591,0.009216309,-16.875,6.703125,-26.515625
52,1695773101484,0.064208984,-1.170227,0.117126465,-0.734375,0.0625,-20.9375
53,1695773101513,-0.0859375,-1.1951294,0.18939209,6.046875,-18.0625,14.453125
54,1695773101558,-0.08203125,-0.7686157,0.00091552734,-2.3125,2.828125,11.78125
55,1695773101601,0.009033203,-0.9541626,0.074645996,-8.0,0.25,-21.421875
56,1695773101631,-0.032958984,-1.1026001,0.11541748,-19.34375,6.328125,-4.34375
57,1695773101676,-0.08642578,-0.9199829,0.11419678,-0.21875,3.90625,10.03125
58,1695773101705,-0.125,-1.0913696,0.18670654,21.984375,9.28125,4.65625
59,1695773101751,0.016113281,-1.0325317,0.11639404,-6.640625,6.765625,0.703125
60,1695773101800,0.0075683594,-0.9182739,0.03265381,-17.609375,0.75,0.625
61,1695773101830,-0.072509766,-1.0444946,0.10296631,11.46875,8.546875,11.890625
62,1695773101871,-0.008300781,-0.9314575,0.08514404,11.25,-2.359375,7.421875
63,1695773101914,0.091308594,-0.9924927,0.031921387,18.546875,12.890625,13.921875
64,1695773101945,0.041015625,-0.99884033,0.010681152,-0.9375,-10.1875,5.125
65,1695773101991,0.0871582,-0.90704346,-0.024719238,-8.09375,-1.71875,-3.796875
66,1695773102020,0.10229492,-1.1345825,-0.035949707,-14.140625,3.046875,-7.328125
67,1695773102070,0.033447266,-0.90875244,0.12371826,4.046875,7.015625,6.9375
68,1695773102109,-0.01953125,-1.0396118,0.16033936,18.078125,-3.984375,5.15625
69,1695773102141,-0.017822266,-0.9038696,0.020690918,-14.984375,-11.203125,5.59375
70,1695773102188,0.08666992,-0.8635864,-0.004699707,-15.625,3.90625,-24.453125
71,1695773102229,0.092285156,-1.234436,0.12738037,-3.890625,4.265625,-11.453125
72,1695773102261,0.0234375,-0.97491455,0.16790771,6.9375,-9.734375,14.46875
73,1695773102304,-0.06933594,-1.0247192,0.029724121,-2.234375,-5.75,14.5
74,1695773102335,0.05834961,-0.788147,0.016540527,-20.171875,1.59375,-23.46875
75,1695773102383,0.09082031,-1.1958618,0.109558105,-9.4375,4.609375,-15.34375
76,1695773102425,0.0026855469,-0.9380493,0.109802246,4.96875,-3.109375,19.015625
77,1695773102459,-0.0859375,-0.97442627,0.1149292,8.171875,-4.25,10.234375
78,1695773102501,0.0234375,-0.87823486,0.08416748,-13.1875,-0.859375,-17.140625
79,1695773102546,0.115722656,-1.1309204,0.105163574,-14.625,-0.4375,-15.65625
80,1695773102576,0.02319336,-1.0178833,0.09539795,-2.46875,-2.125,13.703125
81,1695773102620,-0.08520508,-0.9155884,0.17572021,13.59375,2.78125,10.875
82,1695773102649,-0.010986328,-1.0042114,0.16204834,-3.59375,0.25,-7.453125
83,1695773102693,-0.005126953,-1.0420532,0.113464355,-4.234375,-2.0,-4.1875
84,1695773102738,0.083984375,-0.9956665,-0.01373291,17.28125,8.609375,-0.03125
85,1695773102768,0.018310547,-1.0391235,0.09466553,10.453125,12.09375,13.625
86,1695773102829,0.041748047,-0.9763794,0.20697021,7.578125,8.71875,-2.125
87,1695773102887,0.05810547,-0.9224243,0.14691162,-5.734375,-12.09375,0.65625
88,1695773102888,0.041503906,-1.0733032,-0.094055176,2.171875,-3.296875,-3.453125
89,1695773102934,0.020019531,-0.8140259,0.12908936,14.21875,6.421875,-2.375
90,1695773102964,0.024169922,-1.1382446,0.11956787,2.921875,1.25,3.265625
91,1695773103008,0.04248047,-0.81427,0.020202637,-21.640625,-3.859375,-1.78125
92,1695773103056,0.0043945312,-1.0679321,-0.06890869,7.78125,-1.203125,-9.328125
93,1695773103084,0.109375,-1.0838013,0.15765381,8.25,4.84375,4.90625
94,1695773103128,-0.100097656,-0.93341064,0.05682373,-8.9375,-0.1875,7.015625
95,1695773103174,-0.01586914,-0.95684814,0.07366943,-3.046875,4.484375,-13.265625
96,1695773103204,0.07470703,-1.02594,0.024597168,-2.21875,-1.234375,-5.859375
97,1695773103248,0.01977539,-1.0027466,0.10223389,-2.125,8.609375,5.6875
98,1695773103323,-0.13623047,-0.9614868,0.113464355,-8.296875,-0.71875,1.875
99,1695773103326,-0.016357422,-1.008606,0.062927246,-4.5625,0.5,-8.453125
100,1695773103369,0.075683594,-1.0706177,0.04559326,-2.90625,-0.1875,-3.140625
101,1695773103399,0.15625,-0.9378052,0.1798706,6.765625,7.921875,5.859375
102,1695773103443,-0.18920898,-0.94244385,0.12762451,-20.4375,-7.234375,-0.328125
103,1695773103520,-0.036132812,-0.9192505,0.15667725,-12.4375,0.5625,-0.578125
104,1695773103525,-0.013671875,-1.1287231,-6.1035156e-05,10.84375,-4.234375,-2.328125
105,1695773103572,0.064453125,-1.0217896,0.19256592,-1.828125,13.921875,15.984375
106,1695773103594,0.15185547,-0.78448486,0.08905029,-5.171875,2.359375,-5.0625
107,1695773103641,-0.005126953,-1.0750122,0.14129639,-12.78125,-4.96875,-14.4375
108,1695773103688,0.016357422,-0.94195557,0.21502686,8.4375,-16.15625,2.140625
109,1695773103715,-0.060058594,-1.3023071,0.016540527,19.21875,-11.265625,3.1875
110,1695773103760,0.099121094,-0.74542236,0.19110107,-6.390625,23.421875,-14.90625
111,1695773103807,-0.005859375,-0.94000244,0.0692749,-3.703125,-1.90625,-17.328125
112,1695773103837,-0.118896484,-1.0654907,0.124694824,-11.984375,-0.3125,6.359375
113,1695773103881,-0.044433594,-0.90093994,0.2736206,23.953125,-6.6875,18.703125
114,1695773103911,-0.107421875,-1.1279907,-0.020324707,-0.703125,3.796875,2.921875
115,1695773103955,0.14038086,-1.0847778,0.07318115,10.15625,13.34375,-23.71875
116,1695773104000,0.039794922,-0.8484497,0.08807373,-21.53125,-6.09375,-4.484375
117,1695773104031,-0.0043945312,-0.8855591,0.11151123,-14.5,-11.015625,1.546875
118,1695773104076,-0.08251953,-0.9031372,0.101745605,-1.09375,2.78125,7.765625
119,1695773104121,-0.1274414,-1.1404419,0.13568115,42.84375,-0.984375,-5.046875
120,1695773104153,-0.01171875,-1.1841431,-0.0134887695,3.171875,-5.640625,-6.078125
121,1695773104195,0.033203125,-0.9463501,0.093444824,-9.3125,14.25,14.453125
122,1695773104224,-0.078125,-0.72369385,-0.012512207,-22.6875,15.375,-5.90625
123,1695773104270,-0.09350586,-1.0332642,0.097351074,-12.328125,-12.890625,-3.5
124,1695773104316,0.008544922,-1.1050415,0.32000732,6.734375,-4.28125,2.703125
125,1695773104344,-0.012207031,-1.1018677,-0.046447754,28.625,1.34375,-10.6875
126,1695773104392,-0.019042969,-0.9170532,-0.031555176,-12.03125,5.78125,-10.84375
127,1695773104421,0.114746094,-0.9602661,0.0028686523,-10.59375,3.109375,-7.171875
128,1695773104467,-0.06201172,-1.0459595,0.09564209,-8.390625,-3.359375,11.5625
129,1695773104515,-0.16333008,-0.95928955,0.20574951,-3.328125,5.296875,-2.125
130,1695773104543,-0.08618164,-1.1685181,0.09954834,-7.40625,-4.484375,-12.671875
131,1695773104586,-0.0053710938,-0.8267212,0.09075928,-23.015625,-2.453125,-11.65625
132,1695773104632,-0.052734375,-0.8748169,0.15765381,-20.890625,-1.984375,-1.5625
133,1695773104663,-0.19360352,-1.0105591,0.25238037,8.78125,-3.734375,12.828125
134,1695773104711,0.016113281,-1.1807251,0.18304443,-5.140625,0.96875,18.515625
135,1695773104735,-0.03540039,-0.7542114,0.047790527,8.421875,-4.265625,-1.953125
136,1695773104782,0.032226562,-1.125061,-0.023498535,52.5625,6.171875,-12.265625
137,1695773104827,0.009033203,-0.88287354,0.07757568,5.640625,10.390625,23.3125
138,1695773104854,-0.080566406,-0.87457275,0.18133545,-1.4375,-4.953125,-5.96875
139,1695773104901,-0.0234375,-1.3096313,0.16937256,-18.21875,-6.515625,-15.671875
140,1695773104946,-0.05493164,-0.9602661,0.066589355,-2.46875,1.5,5.984375
141,1695773104980,0.0073242188,-0.9192505,0.038757324,14.0625,2.25,0.53125
142,1695773105026,-0.088134766,-0.9963989,0.06121826,-7.34375,-2.078125,4.84375
143,1695773105052,-0.07446289,-0.97125244,0.10272217,-2.90625,-0.234375,-1.90625
144,1695773105096,-0.00048828125,-1.0979614,0.11834717,6.4375,1.6875,-2.59375
145,1695773105140,-0.06958008,-1.0437622,-0.089416504,0.28125,2.15625,7.0625
146,1695773105170,0.0126953125,-0.9663696,0.12835693,18.328125,8.125,8.453125
147,1695773105215,0.07080078,-1.0689087,0.058532715,2.15625,9.0625,10.65625
148,1695773105266,-0.08691406,-0.8274536,0.093933105,-10.421875,7.328125,3.671875
149,1695773105293,-0.09814453,-0.97784424,0.2723999,6.84375,-8.796875,-17.34375
150,1695773105339,-0.059326172,-1.15094,0.046325684,-1.25,-1.359375,1.828125
151,1695773105367,0.17822266,-0.7659302,-0.013000488,-14.46875,11.359375,4.78125
152,1695773105411,-0.015380859,-0.9973755,0.043151855,-11.578125,-4.53125,3.65625
153,1695773105459,-0.030761719,-1.0891724,0.21966553,15.203125,-16.0,-0.0625
154,1695773105487,-0.16430664,-1.2393188,0.10687256,13.0,-3.453125,16.140625
155,1695773105532,0.024169922,-0.8130493,-0.054016113,-13.8125,11.265625,-17.625
156,1695773105578,0.06298828,-0.80596924,-0.042785645,-6.984375,2.875,-19.34375
157,1695773105606,0.019042969,-1.2105103,0.20721436,29.71875,-16.859375,1.140625
158,1695773105650,-0.09301758,-1.0723267,0.13739014,1.4375,0.96875,29.40625
159,1695773105682,0.048583984,-0.8074341,0.0016479492,-5.578125,-0.1875,-20.078125
160,1695773105726,0.16625977,-1.0606079,-0.020080566,1.484375,-13.375,-25.296875
161,1695773105771,0.0026855469,-1.0281372,-0.044006348,-9.53125,0.34375,17.984375
162,1695773105802,-0.25952148,-0.9717407,0.098083496,-8.4375,-2.203125,21.71875
163,1695773105845,-0.14282227,-1.0664673,0.23651123,-18.140625,3.015625,-11.515625
164,1695773105889,-0.026855469,-0.98272705,0.13348389,-21.59375,3.71875,-14.375
165,1695773105924,0.013671875,-1.1445923,0.044128418,7.78125,13.328125,5.34375
166,1695773105965,-0.040283203,-0.78497314,0.06463623,-10.796875,9.109375,15.3125
167,1695773105996,-0.083496094,-1.0464478,0.17816162,11.125,8.0625,11.359375
168,1695773106038,0.1394043,-1.0637817,0.09661865,8.5625,1.0625,19.921875
169,1695773106085,0.1262207,-0.8057251,0.023620605,-3.15625,-0.28125,-6.171875
170,1695773106117,0.048828125,-1.0361938,0.035583496,8.171875,2.0,-15.359375
171,1695773106162,0.052001953,-1.034729,0.121032715,0.734375,-0.5,2.078125
172,1695773106204,-0.015136719,-0.9224243,0.07318115,-1.171875,-2.34375,10.6875
173,1695773106235,0.050048828,-1.013977,0.10784912,-3.875,-1.828125,1.71875
174,1695773106281,0.046875,-1.0195923,0.06488037,-5.265625,-0.796875,0.28125
175,1695773106309,0.043945312,-0.9800415,0.07147217,3.015625,-1.78125,-1.703125
176,1695773106360,0.042236328,-1.003479,0.090026855,0.890625,-1.046875,-1.015625
177,1695773106404,0.00024414062,-0.99835205,0.09979248,-2.0,-1.5,2.75
178,1695773106434,0.048828125,-1.003479,0.10687256,-3.75,-0.5,0.6875
179,1695773106475,-0.0056152344,-0.99591064,0.008239746,-4.3125,2.546875,0.015625
180,1695773106522,0.13378906,-0.956604,0.17425537,15.734375,11.578125,-1.734375
181,1695773106550,0.08935547,-1.0982056,0.06341553,-3.015625,-6.859375,10.203125
182,1695773106596,-0.03466797,-0.8911743,0.093933105,-21.515625,-2.984375,-3.65625
183,1695773106626,0.0847168,-0.87042236,0.13641357,-9.25,3.6875,-22.625
184,1695773106674,0.0061035156,-1.0603638,0.11907959,12.609375,-9.375,-12.234375
185,1695773106718,-0.0043945312,-0.9512329,0.15838623,1.96875,-10.171875,14.0625
186,1695773106745,-0.0546875,-0.98687744,0.030212402,10.75,-13.234375,4.796875
187,1695773106791,0.05444336,-1.2136841,-0.012756348,-2.359375,8.21875,4.734375
188,1695773106836,0.03515625,-1.0025024,-0.013244629,-20.796875,1.9375,-2.265625
189,1695773106866,-0.037841797,-0.87872314,0.23724365,-0.171875,7.265625,-5.890625
190,1695773106910,-0.0029296875,-1.1072388,0.08416748,19.15625,0.984375,-2.703125
191,1695773106942,0.010498047,-0.87091064,0.035827637,-15.140625,3.421875,10.125
192,1695773106990,0.11352539,-0.7866821,0.14324951,6.75,3.203125,-10.703125
193,1695773107029,-0.03466797,-1.1355591,0.13470459,6.859375,2.515625,13.859375
194,1695773107064,-0.011230469,-0.93170166,0.2267456,-16.140625,-3.703125,18.6875
195,1695773107106,0.15405273,-1.1130981,0.1618042,-6.859375,-3.59375,-7.375
196,1695773107181,0.05444336,-1.0422974,0.074157715,-11.515625,2.421875,-7.984375
197,1695773107185,0.06689453,-0.8550415,0.050964355,5.71875,1.625,-9.28125
198,1695773107227,0.01586914,-1.0039673,0.10736084,6.421875,3.078125,8.984375
199,1695773107260,0.008544922,-0.92437744,0.15911865,4.625,1.984375,15.890625
200,1695773107300,-0.0234375,-1.053772,0.17938232,8.796875,-5.25,-0.359375
201,1695773107346,0.118652344,-1.0264282,0.039245605,-11.8125,8.09375,-12.453125
202,1695773107374,0.1665039,-0.9312134,0.002380371,-12.71875,8.796875,-14.859375
203,1695773107420,0.12084961,-0.989563,0.15252686,7.8125,-3.109375,3.328125
204,1695773107466,-0.060302734,-1.0825806,0.17449951,16.40625,-6.671875,9.734375
205,1695773107499,0.015136719,-0.8999634,0.07513428,-5.734375,3.796875,-4.890625
206,1695773107542,0.052734375,-0.9680786,0.1227417,-5.96875,8.46875,-15.296875
207,1695773107571,0.03930664,-1.046936,0.07733154,1.625,5.578125,-0.09375
208,1695773107617,-0.0014648438,-0.96710205,0.15985107,2.375,-2.859375,2.125
209,1695773107659,0.033447266,-1.0042114,0.10662842,-8.9375,-2.40625,-2.78125
210,1695773107691,0.061279297,-0.95391846,0.120788574,-27.859375,-1.4375,-6.765625
211,1695773107736,0.01928711,-0.9414673,0.1708374,8.5,-1.9375,-3.671875
212,1695773107781,-0.03100586,-1.1279907,0.18304443,8.21875,-6.171875,6.90625
213,1695773107817,-0.0009765625,-0.94854736,0.15814209,-16.453125,0.421875,-0.140625
214,1695773107857,-0.072021484,-0.99664307,0.117126465,6.109375,2.015625,-8.5
215,1695773107886,0.048828125,-1.0984497,0.11224365,13.875,7.96875,3.484375
216,1695773107932,0.041015625,-0.9385376,0.1461792,2.46875,0.5,2.515625
217,1695773107977,-0.044189453,-0.95684814,0.086120605,2.125,-4.171875,-5.515625
218,1695773108008,-0.03955078,-0.9417114,0.11517334,8.46875,-2.125,1.1875
219,1695773108049,0.043701172,-0.9570923,0.059020996,4.625,-3.421875,2.34375
220,1695773108096,-0.022949219,-0.9517212,0.04119873,-6.59375,-5.6875,4.0625
221,1695773108127,0.08129883,-1.013977,0.13787842,9.9375,7.25,-5.09375
222,1695773108170,-0.015380859,-1.0618286,0.10760498,-1.234375,2.6875,7.25
223,1695773108200,-0.018798828,-0.9224243,0.1149292,-1.515625,-0.890625,0.890625
224,1695773108247,0.028320312,-1.0623169,0.089782715,2.71875,-2.4375,-1.703125
225,1695773108288,0.037597656,-0.96661377,0.10858154,0.640625,-0.015625,2.59375
226,1695773108320,0.022460938,-1.0496216,0.082458496,1.109375,-2.28125,1.296875
227,1695773108365,0.0087890625,-0.9380493,0.070251465,-6.53125,-1.640625,1.203125
228,1695773108396,0.033203125,-0.98638916,0.097595215,7.734375,6.671875,-0.015625
229,1695773108443,0.040283203,-1.0286255,0.08807373,5.828125,1.78125,2.359375
230,1695773108487,-0.010253906,-1.008606,-0.035217285,-8.25,0.234375,3.59375
231,1695773108517,0.08984375,-0.9631958,0.070739746,3.46875,1.890625,1.53125
232,1695773108559,0.049316406,-1.210022,-0.010803223,1.734375,1.515625,5.546875
233,1695773108607,-0.036621094,-0.78082275,0.09124756,-10.75,9.734375,-1.109375
234,1695773108635,0.05810547,-0.9006958,0.19207764,4.125,12.875,-16.640625
235,1695773108684,-0.104003906,-1.0923462,0.20721436,27.390625,-19.796875,5.46875
236,1695773108714,0.11279297,-1.0894165,0.042419434,-18.515625,-11.1875,18.890625
237,1695773108758,0.05493164,-0.7515259,-0.074523926,-34.53125,6.953125,-16.640625
238,1695773108802,0.022705078,-1.227356,0.08856201,-8.3125,11.703125,-14.453125
239,1695773108832,-0.032470703,-0.96661377,0.28411865,11.0,-25.609375,4.90625
240,1695773108875,0.043701172,-1.1924438,0.11517334,16.484375,1.3125,17.21875
241,1695773108920,0.045166016,-0.6848755,-0.08306885,-31.921875,11.859375,-5.953125
242,1695773108951,0.008300781,-0.95806885,0.094177246,-15.265625,0.890625,-24.578125
243,1695773108995,0.029052734,-1.1201782,0.22332764,9.375,-24.75,2.0625
244,1695773109027,0.018798828,-1.2017212,0.27313232,30.0625,2.765625,17.8125
245,1695773109070,0.08544922,-0.866272,-0.023498535,-23.65625,11.109375,-1.5625
246,1695773109116,0.1381836,-0.8255005,0.06463623,-17.125,2.34375,-24.890625
247,1695773109146,0.07006836,-1.0969849,0.09295654,16.4375,-9.875,-2.484375
248,1695773109193,-0.111328125,-1.145813,0.22283936,34.03125,-10.71875,18.375
249,1695773109236,0.010253906,-0.8994751,0.09442139,-14.359375,9.875,2.40625
250,1695773109266,-0.025146484,-0.8748169,-0.014221191,-19.953125,7.453125,-19.546875
251,1695773109309,0.057617188,-1.0740356,0.09954834,4.859375,6.609375,-10.84375
252,1695773109340,0.017822266,-0.99957275,0.09613037,3.046875,1.421875,8.09375
253,1695773109385,-0.046142578,-1.0549927,0.08660889,3.421875,3.0625,6.6875
254,1695773109434,0.018554688,-0.94610596,0.07977295,-7.140625,-1.5625,-6.65625
255,1695773109461,0.024658203,-0.9768677,0.044128418,1.203125,-3.5625,-9.71875
256,1695773109507,-0.018798828,-0.99102783,0.049987793,7.0625,2.265625,0.84375
257,1695773109551,-0.061279297,-1.0484009,0.11419678,8.90625,3.78125,3.75
258,1695773109582,-0.025634766,-0.97491455,0.08905029,-7.28125,-3.75,2.125
259,1695773109627,-0.015380859,-0.9949341,0.078308105,0.59375,-0.875,-2.359375
260,1695773109656,-0.0146484375,-1.0022583,0.070739746,2.671875,-2.71875,-3.703125
261,1695773109700,-0.06347656,-0.9854126,0.0836792,4.3125,-0.046875,-1.28125
262,1695773109748,-0.03149414,-1.1201782,-0.10601807,0.546875,-12.71875,-0.3125
263,1695773109777,0.07348633,-1.0322876,0.2687378,0.953125,12.546875,6.765625
264,1695773109823,-0.09667969,-0.9019165,-0.016174316,-6.875,5.328125,8.65625
265,1695773109866,-0.0061035156,-0.87994385,0.19793701,-19.5625,-5.578125,-6.953125
266,1695773109898,-0.02758789,-0.89923096,0.25750732,1.828125,-2.640625,-2.78125
267,1695773109942,-0.021728516,-1.0615845,0.04949951,18.75,2.890625,-4.90625
268,1695773109970,0.0126953125,-1.1448364,0.005554199,13.953125,-15.421875,-1.375
269,1695773110019,-0.013916016,-0.8989868,-0.018371582,-16.265625,0.40625,25.625
270,1695773110062,0.08618164,-1.1690063,-0.061584473,-0.984375,7.703125,14.296875
271,1695773110091,0.14331055,-0.9439087,0.14764404,-0.640625,16.890625,-14.796875
272,1695773110138,0.01977539,-1.0322876,0.078552246,-19.78125,3.671875,-15.078125
273,1695773110186,-0.100097656,-0.8303833,0.24798584,13.90625,-10.765625,-14.296875
274,1695773110211,-0.07373047,-0.95318604,0.047546387,14.15625,-16.140625,13.21875
275,1695773110257,0.09448242,-0.8284302,0.02142334,-9.28125,11.046875,12.28125
276,1695773110286,0.016357422,-1.2129517,-0.07281494,-3.390625,8.84375,6.140625
277,1695773110332,0.01928711,-1.0999146,0.07269287,-7.5,-7.59375,0.9375
278,1695773110383,0.04345703,-1.1265259,0.2699585,20.75,-22.65625,5.859375
279,1695773110405,-0.044433594,-0.96417236,0.02142334,-2.3125,5.984375,-2.296875
280,1695773110451,-0.03540039,-0.84625244,-0.13360596,-24.65625,9.625,-10.53125
281,1695773110498,0.08129883,-0.92388916,0.05657959,3.640625,7.015625,-4.953125
282,1695773110527,0.06201172,-1.0603638,0.15447998,5.0625,-12.125,9.40625
283,1695773110569,-0.011230469,-0.9993286,0.14422607,-9.28125,-5.0,9.953125
284,1695773110600,0.13305664,-0.928772,0.10369873,-27.734375,-0.4375,-12.296875
285,1695773110647,0.052734375,-0.8838501,-0.006652832,-36.1875,-0.84375,-2.640625
286,1695773110692,0.08081055,-1.0344849,0.20794678,39.484375,-2.09375,0.25
287,1695773110720,-0.012207031,-1.204895,0.23626709,-2.75,-0.984375,9.328125
288,1695773110766,0.007080078,-0.9163208,0.04510498,-33.125,2.15625,-4.5625
289,1695773110810,0.043945312,-0.991272,0.08856201,11.5625,1.5625,-10.203125
290,1695773110841,0.14770508,-0.92803955,0.04046631,3.09375,-0.5625,6.390625
291,1695773110887,0.0014648438,-0.84039307,0.11419678,3.390625,-6.203125,1.609375
292,1695773110917,-0.0053710938,-1.0278931,0.16082764,12.234375,0.96875,-5.1875
293,1695773110962,-0.005859375,-1.0188599,0.12542725,-11.359375,-6.25,1.234375
294,1695773111006,0.047607422,-1.0037231,0.11859131,2.421875,-0.0625,-5.703125
295,1695773111040,0.07421875,-1.0886841,0.09710693,4.625,-2.34375,-3.640625
296,1695773111080,-0.034423828,-1.0159302,0.07537842,1.671875,-4.109375,1.421875
297,1695773111126,-0.008300781,-0.9229126,0.09197998,5.65625,0.90625,0.0
298,1695773111154,0.033203125,-1.1043091,0.04827881,12.5,-10.71875,-5.46875
299,1695773111203,-0.022949219,-0.8648071,0.13153076,-11.59375,-6.078125,-7.84375
300,1695773111232,0.06665039,-0.98883057,0.066101074,-2.65625,5.125,-16.515625
301,1695773111278,-0.092285156,-1.0401001,0.023376465,-17.53125,-4.140625,-8.109375
302,1695773111324,-0.032958984,-0.97491455,0.16497803,-20.375,0.53125,1.609375
303,1695773111350,-0.06762695,-0.88604736,0.22821045,3.640625,-30.609375,-11.109375
304,1695773111396,-0.087646484,-1.2554321,0.20452881,34.15625,-9.796875,11.859375
305,1695773111441,-0.05126953,-0.8870239,-0.019836426,-14.296875,6.28125,19.359375
306,1695773111473,-0.0703125,-0.99346924,-0.0051879883,-10.359375,9.359375,-13.671875
307,1695773111516,0.041748047,-1.1602173,0.1383667,-16.75,3.265625,-8.65625
308,1695773111551,0.044433594,-0.8064575,0.21795654,-0.484375,-3.21875,9.34375
309,1695773111591,-0.064453125,-1.1709595,0.16619873,36.90625,-1.5625,8.53125
310,1695773111636,0.050048828,-0.81866455,0.014831543,-24.421875,19.078125,3.9375
311,1695773111670,0.044677734,-0.77130127,0.03338623,-18.8125,4.171875,-15.859375
312,1695773111713,0.023925781,-1.1792603,0.23626709,26.59375,-1.125,-6.296875
313,1695773111788,-0.02758789,-1.2490845,0.2387085,2.703125,0.640625,15.234375
314,1695773111791,-0.04321289,-0.8706665,0.0014038086,-17.328125,9.578125,6.53125
315,1695773111839,0.012451172,-0.84210205,0.08807373,7.203125,5.40625,-26.546875
316,1695773111864,0.03857422,-1.0984497,0.1618042,10.453125,4.390625,-5.5625
317,1695773111910,-0.036621094,-1.0256958,0.13153076,-1.84375,15.59375,13.0
318,1695773111951,-0.11694336,-0.91778564,0.1005249,-7.265625,2.953125,-6.5
319,1695773111981,-0.12158203,-1.0342407,0.1618042,4.328125,-5.421875,-8.453125
320,1695773112029,0.04345703,-1.0532837,0.034606934,-0.28125,-0.234375,3.03125
321,1695773112075,-0.07495117,-0.9343872,0.08660889,-12.578125,-2.859375,1.109375
322,1695773112099,-0.04638672,-1.0095825,0.1005249,4.75,0.65625,-5.5625
323,1695773112143,-0.06616211,-0.9763794,0.07611084,22.90625,6.109375,7.765625
324,1695773112172,-0.025146484,-0.975647,0.03704834,33.96875,0.3125,6.390625
325,1695773112219,-0.1015625,-1.133606,0.058776855,1.5625,-1.71875,16.9375
326,1695773112268,-0.037353516,-0.88409424,-0.023986816,-13.59375,1.640625,7.140625
327,1695773112298,-0.061767578,-1.0581665,0.061706543,-7.203125,9.890625,-1.0
328,1695773112341,0.053955078,-0.9751587,0.09246826,-9.421875,6.765625,2.1875
329,1695773112385,0.00024414062,-0.9248657,0.07904053,5.515625,-8.828125,12.0625
330,1695773112416,-0.017822266,-1.0842896,0.035583496,-1.796875,-2.28125,13.203125
331,1695773112462,0.04736328,-0.8838501,0.027282715,-12.546875,3.84375,8.21875
332,1695773112493,0.09423828,-1.0706177,0.082214355,-0.96875,5.328125,-8.34375
333,1695773112536,0.060791016,-1.0298462,0.15594482,-8.734375,-8.6875,3.078125
334,1695773112580,0.09057617,-0.9920044,0.12420654,-2.078125,-4.921875,2.25
335,1695773112609,0.14038086,-0.8743286,0.08001709,-12.0,0.75,-11.46875
336,1695773112656,0.09692383,-1.1140747,0.07244873,2.171875,-3.609375,-12.140625
337,1695773112686,-0.040771484,-1.0679321,0.16400146,-3.328125,-8.328125,11.9375
338,1695773112732,0.10253906,-0.798645,0.15179443,0.03125,6.953125,-8.421875
339,1695773112778,0.10595703,-1.0767212,0.002380371,-8.25,2.75,-16.171875
340,1695773112805,0.05810547,-1.0215454,0.11517334,0.390625,-6.84375,-3.671875
341,1695773112851,-0.0041503906,-0.93585205,0.15716553,1.25,-7.5625,-1.875
342,1695773112895,-0.09375,-0.8826294,0.089538574,-17.859375,-3.5,-14.6875
343,1695773112927,-0.0871582,-0.87286377,0.17816162,-37.796875,-1.203125,-38.65625
344,1695773112971,-0.03515625,-1.0332642,0.2868042,-11.03125,-7.65625,-24.03125
345,1695773113000,-0.19750977,-1.3032837,0.22918701,14.515625,1.59375,17.953125
346,1695773113049,-0.15063477,-0.91778564,0.22528076,-5.453125,-1.5,10.5625
347,1695773113093,-0.104003906,-0.9990845,0.15838623,-1.84375,-3.625,-1.21875
348,1695773113122,0.01953125,-0.93707275,0.10858154,6.4375,12.015625,1.25
349,1695773113164,-0.043945312,-0.83380127,0.19647217,12.15625,0.234375,-4.28125
350,1695773113211,-0.1381836,-0.9907837,0.14422607,8.65625,-5.609375,-3.71875
351,1695773113241,-0.11987305,-0.99542236,0.11834717,-2.34375,-1.546875,4.421875
352,1695773113289,-0.0637207,-1.0442505,0.15985107,9.21875,9.796875,10.421875
353,1695773113317,-0.075683594,-1.0654907,0.12542725,4.71875,5.03125,6.84375
354,1695773113359,-0.03149414,-1.008606,0.16033936,6.46875,-0.140625,-0.015625
355,1695773113406,0.009033203,-1.0474243,0.13665771,14.375,4.46875,-0.84375
356,1695773113437,-0.0625,-0.94610596,0.093688965,5.421875,5.09375,1.140625
357,1695773113480,-0.1105957,-0.9175415,0.043395996,8.046875,-0.25,2.59375
358,1695773113525,-0.030517578,-0.93878174,0.081726074,3.484375,0.796875,0.203125
359,1695773113557,0.013916016,-1.0264282,0.10247803,8.078125,9.984375,6.921875
360,1695773113602,-0.053955078,-1.0637817,0.06390381,-4.125,-4.578125,3.96875
361,1695773113633,0.014160156,-0.9307251,0.08099365,-1.96875,-0.578125,-6.53125
362,1695773113675,-0.0107421875,-1.017395,0.077819824,5.671875,3.859375,-3.171875
363,1695773113724,-0.106933594,-1.050354,0.06829834,-7.46875,-4.203125,7.859375
364,1695773113748,-0.0048828125,-0.90802,0.109802246,-0.328125,1.046875,0.625
365,1695773113795,-0.007080078,-1.0379028,0.074401855,5.21875,6.53125,-2.890625
366,1695773113840,-0.06591797,-1.0025024,0.038513184,-13.78125,-2.21875,1.46875
367,1695773113872,0.008056641,-0.9368286,0.10760498,0.90625,0.53125,-3.15625
368,1695773113915,0.020019531,-1.0823364,0.066101074,3.46875,3.5625,-0.09375
369,1695773113949,-0.048095703,-0.9873657,0.08148193,-16.546875,0.25,6.15625
370,1695773113992,0.016845703,-0.9019165,0.12860107,-15.890625,3.859375,-9.828125
371,1695773114038,-0.15795898,-0.9727173,0.16864014,-12.921875,-9.890625,-9.140625
372,1695773114066,0.009033203,-1.1680298,0.19818115,2.453125,-5.546875,-5.734375
373,1695773114111,-0.0041503906,-1.00177,0.08709717,-16.03125,-2.21875,0.9375
374,1695773114159,-0.08081055,-0.92510986,0.16253662,5.703125,-4.0,-2.765625
375,1695773114186,-0.11279297,-1.0825806,0.1762085,7.90625,-5.1875,0.609375
376,1695773114232,-0.09790039,-0.79766846,0.11468506,-7.453125,-4.078125,3.734375
377,1695773114260,-0.03100586,-0.98394775,0.12982178,15.625,-3.03125,-8.3125
378,1695773114308,-0.072509766,-1.1409302,0.11224365,0.921875,-1.703125,9.703125
379,1695773114349,-0.017089844,-0.96954346,0.1383667,3.5625,4.171875,1.265625
380,1695773114382,-0.09057617,-1.093811,0.12298584,-1.5,-0.609375,-0.734375
381,1695773114427,-0.06274414,-0.944397,0.08148193,-7.65625,-2.546875,0.609375
382,1695773114472,-0.040039062,-0.88946533,0.09197998,-1.640625,0.5625,-0.3125
383,1695773114500,-0.01977539,-0.96881104,0.13909912,30.53125,3.578125,-1.109375
384,1695773114549,-0.09838867,-1.1924438,0.086364746,29.21875,1.484375,15.546875
385,1695773114576,-0.005126953,-0.9170532,0.16351318,-2.390625,1.84375,14.390625
386,1695773114626,-0.10058594,-0.9968872,-0.040100098,3.578125,2.3125,4.921875
387,1695773114666,-0.024414062,-0.90216064,-0.085998535,-12.171875,2.265625,-5.640625
388,1695773114697,0.140625,-0.99591064,0.19256592,6.546875,9.515625,-11.53125
389,1695773114742,0.0031738281,-1.1177368,-0.018859863,-1.15625,-0.875,6.625
390,1695773114786,-0.079589844,-0.76812744,0.023132324,-8.109375,-3.984375,2.109375
391,1695773114816,-0.012939453,-0.9380493,0.093444824,3.71875,1.0625,-2.4375
392,1695773114860,-0.036865234,-1.2254028,0.03265381,-7.453125,3.046875,1.140625
393,1695773114892,-0.0107421875,-0.94903564,0.1161499,-9.46875,-5.875,-5.375
394,1695773114935,0.026367188,-1.0759888,0.097839355,8.34375,0.984375,0.96875
395,1695773114979,-0.06958008,-0.99053955,0.055603027,-3.109375,3.921875,10.09375
396,1695773115009,-0.08227539,-0.92315674,0.08148193,-5.109375,-4.46875,0.828125
397,1695773115054,0.0009765625,-1.0083618,0.07147217,-5.75,4.03125,-2.640625
398,1695773115099,0.025634766,-1.0264282,0.054138184,-27.765625,7.5,-0.84375
399,1695773115129,0.08300781,-0.7822876,0.10858154,-39.34375,-3.796875,-13.609375
400,1695773115176,-0.012207031,-1.0789185,0.30804443,2.6875,-21.875,-17.5
401,1695773115205,0.016601562,-1.2615356,0.16375732,4.0625,-1.28125,19.8125
402,1695773115249,-0.095214844,-0.83477783,0.10882568,-17.46875,-6.109375,7.671875
403,1695773115298,-0.18041992,-0.9578247,0.20672607,13.6875,2.84375,-11.46875
404,1695773115323,0.057861328,-0.99420166,0.19281006,6.34375,2.953125,-3.046875
405,1695773115371,0.013183594,-0.9607544,0.0758667,-4.8125,-0.703125,6.734375
406,1695773115444,-0.01977539,-1.000061,0.13739014,3.359375,0.65625,-3.875
407,1695773115448,-0.009765625,-1.0471802,0.16448975,3.921875,1.828125,-1.3125
408,1695773115491,-0.022705078,-1.0088501,0.14398193,-1.15625,-1.140625,1.328125
409,1695773115522,-0.0007324219,-0.97613525,0.13690186,-0.84375,-0.25,-1.984375
410,1695773115567,-0.0031738281,-0.99346924,0.101989746,0.21875,1.203125,-2.609375
411,1695773115614,-0.044433594,-0.98321533,0.07952881,12.640625,5.046875,1.625
412,1695773115643,-0.01171875,-1.0071411,0.18475342,25.390625,9.21875,1.84375
413,1695773115685,-0.17358398,-1.0552368,0.04901123,-6.03125,-2.578125,9.09375
414,1695773115731,0.00024414062,-0.88531494,0.16107178,-12.890625,5.109375,-6.5
415,1695773115762,0.029052734,-1.0733032,0.070495605,-30.828125,-0.1875,-17.296875
416,1695773115807,0.035888672,-0.8233032,0.1239624,-11.578125,-15.15625,-11.640625
417,1695773115837,-0.001953125,-1.2798462,0.14276123,63.734375,-5.828125,13.53125
418,1695773115880,-0.15722656,-0.9480591,0.04071045,-32.265625,-2.453125,23.984375
419,1695773115927,-0.09765625,-0.753479,0.10003662,-25.53125,4.734375,-18.546875
420,1695773115953,-0.024169922,-1.1604614,0.16497803,5.234375,-2.71875,-11.6875
421,1695773115999,0.025146484,-0.99420166,0.26483154,2.296875,2.078125,10.609375
422,1695773116047,-0.02734375,-1.1043091,0.1437378,10.09375,0.96875,6.4375
423,1695773116078,-0.048828125,-0.94366455,0.06365967,-20.09375,2.5,2.265625
424,1695773116120,-0.03540039,-0.8792114,0.1383667,-6.015625,3.359375,-3.234375
425,1695773116150,-0.08544922,-0.9937134,0.15447998,4.171875,4.828125,5.984375
426,1695773116196,-0.09033203,-0.9717407,0.2008667,20.703125,-7.546875,0.46875
427,1695773116241,0.123291016,-1.1946411,0.113464355,-4.375,10.5,10.296875
428,1695773116270,0.11376953,-0.8530884,0.050231934,-19.875,-1.328125,-2.3125
429,1695773116318,-0.068115234,-1.0064087,0.14105225,-4.71875,-1.859375,-8.921875
430,1695773116364,-0.028076172,-0.9902954,0.24188232,-15.8125,0.15625,6.03125
431,1695773116391,0.095458984,-0.8933716,0.28240967,-7.3125,0.703125,0.640625
432,1695773116436,0.0068359375,-1.0440063,0.23944092,-0.3125,-6.4375,-1.859375
433,1695773116466,0.015136719,-1.0474243,0.17230225,-0.265625,-6.25,-1.96875
434,1695773116510,0.045654297,-0.97784424,0.14520264,1.625,2.25,-5.125
435,1695773116554,0.021484375,-1.0750122,0.19281006,2.4375,0.125,-5.421875
436,1695773116586,-0.08325195,-0.9053345,0.19232178,-0.625,-4.75,-5.015625
437,1695773116629,-0.1303711,-0.8267212,0.13934326,24.578125,0.09375,-8.40625
438,1695773116661,0.010986328,-1.022522,0.19500732,21.109375,1.46875,2.0
439,1695773116703,-0.071777344,-0.9768677,0.16448975,-4.0,-3.515625,9.671875
440,1695773116748,-0.13427734,-1.0159302,0.14324951,-13.953125,-3.640625,-2.796875
441,1695773116777,0.026123047,-1.0757446,0.16326904,-1.28125,6.6875,-16.40625
442,1695773116822,-0.020996094,-1.0664673,0.11541748,-3.421875,-0.625,1.15625
443,1695773116867,-0.07836914,-0.87945557,0.1618042,15.4375,1.90625,3.578125
444,1695773116897,-0.0859375,-1.0518188,0.15472412,12.265625,-1.515625,4.953125
445,1695773116946,-0.08959961,-0.88287354,0.09954834,-3.375,4.984375,-0.390625
446,1695773116972,-0.0073242188,-1.0386353,0.13250732,-2.0,5.328125,-11.421875
447,1695773117017,-0.0925293,-1.0430298,0.16156006,16.578125,4.265625,1.484375
448,1695773117062,0.07348633,-1.0166626,0.11102295,5.3125,0.234375,5.828125
449,1695773117092,-0.01953125,-0.9834595,0.04925537,-27.546875,-6.96875,-4.984375
450,1695773117137,-0.123291016,-0.9258423,0.046325684,-12.875,-12.390625,-16.21875
451,1695773117182,0.012451172,-1.0342407,0.17327881,4.109375,-3.765625,-4.109375
452,1695773117214,-0.033935547,-0.9973755,0.13006592,4.640625,-1.703125,7.625
453,1695773117257,-0.14086914,-0.95806885,0.0993042,-5.09375,-6.40625,-2.734375
454,1695773117287,-0.1303711,-0.9373169,0.11810303,-10.0625,-1.5625,-10.03125
455,1695773117332,-0.056152344,-1.0601196,0.19403076,-1.09375,-1.796875,-2.59375
456,1695773117378,-0.06542969,-1.1035767,0.16888428,-23.125,-3.609375,0.3125
457,1695773117409,-0.17285156,-0.80548096,0.07928467,-3.6875,-1.671875,-8.828125
458,1695773117452,-0.045898438,-1.1553345,0.16815186,31.5,4.25,-3.046875
459,1695773117499,-0.09814453,-1.1316528,0.035583496,7.171875,5.5,11.0
460,1695773117529,-0.13134766,-0.88946533,0.13446045,-7.734375,20.125,12.765625
461,1695773117572,0.053955078,-0.9146118,0.09857178,11.859375,1.359375,-6.296875
462,1695773117603,-0.12646484,-0.9949341,0.18670654,-8.59375,0.0625,2.6875
463,1695773117655,0.037109375,-0.913147,0.12835693,-5.28125,-14.359375,-11.546875
464,1695773117696,-0.1340332,-1.1604614,0.10272217,18.4375,-0.59375,6.65625
465,1695773117726,-0.10888672,-0.8513794,-0.074523926,-3.90625,9.78125,10.546875
466,1695773117771,-0.10180664,-0.99884033,0.1539917,-2.21875,4.234375,10.171875
467,1695773117815,0.02709961,-1.1629028,0.22210693,0.21875,7.5,3.0
468,1695773117848,-0.11425781,-0.99420166,0.001159668,-6.671875,-2.265625,-5.515625
469,1695773117891,-0.018310547,-1.0181274,0.18304443,5.546875,0.40625,-7.640625
470,1695773117921,0.056640625,-0.8904419,0.04901123,0.3125,2.4375,8.65625
471,1695773117965,-0.2199707,-0.8665161,0.10321045,-13.28125,0.546875,11.40625
472,1695773118013,-0.049804688,-0.9602661,0.051696777,15.265625,-14.0,-17.0625
473,1695773118041,0.049804688,-1.3225708,0.18304443,14.796875,16.84375,9.15625
474,1695773118086,0.016113281,-0.7974243,-0.08258057,-14.359375,13.265625,2.6875
475,1695773118135,-0.10546875,-0.8850708,0.10784912,-7.625,-6.515625,-15.71875
476,1695773118161,-0.099853516,-1.2241821,0.230896,14.390625,-25.984375,-0.171875
477,1695773118207,0.0075683594,-1.0505981,0.21209717,3.578125,21.03125,31.421875
478,1695773118235,-0.063964844,-0.71221924,-0.019104004,-2.265625,11.375,-10.15625
479,1695773118284,-0.049560547,-0.85528564,0.12615967,8.75,-4.640625,-22.34375
480,1695773118324,-0.20507812,-1.3731079,0.16204834,10.671875,-3.828125,19.203125
481,1695773118357,0.15625,-0.831604,0.08416748,-2.484375,33.984375,23.21875
482,1695773118414,-0.13647461,-1.0444946,0.105895996,-17.28125,0.828125,-15.875
483,1695773118443,-0.09472656,-1.0015259,0.09173584,-28.703125,5.328125,-3.84375
484,1695773118474,-0.037353516,-0.9302368,0.15765381,0.34375,-2.921875,-0.34375
485,1695773118518,0.22705078,-1.1167603,0.07928467,-0.34375,3.359375,11.6875
486,1695773118548,-0.09399414,-0.77593994,0.11907959,11.703125,-14.5,9.015625
487,1695773118592,-0.100097656,-1.1812134,0.018737793,20.359375,-10.921875,-2.375
488,1695773118637,0.04663086,-0.725647,0.07684326,-4.96875,0.25,19.359375
489,1695773118667,0.030517578,-1.185852,0.12005615,8.09375,-1.875,-7.53125
490,1695773118713,-0.055419922,-1.0366821,0.13568115,-6.359375,-3.5625,2.484375
491,1695773118759,0.08618164,-0.9060669,0.038757324,4.640625,-0.625,-8.328125
492,1695773118792,-0.0061035156,-0.97735596,0.025817871,12.125,-6.15625,5.234375
493,1695773118835,0.008056641,-1.1104126,-0.004211426,3.21875,-9.4375,0.109375
494,1695773118868,0.19116211,-1.0945435,0.28045654,-1.765625,6.25,7.1875
495,1695773118910,-0.103759766,-0.91363525,-0.03692627,-18.28125,0.546875,2.0
496,1695773118956,0.0041503906,-0.79693604,0.06903076,3.609375,-2.625,-19.46875
497,1695773118985,-0.036132812,-1.0166626,0.25286865,13.34375,-15.828125,-5.328125
498,1695773119030,-0.055908203,-1.085022,-0.040100098,0.28125,-3.453125,6.3125
499,1695773119075,-0.13110352,-1.2532349,0.117614746,-9.5625,14.71875,-0.671875
500,1695773119106,0.096191406,-0.8533325,0.05657959,-30.265625,2.96875,-1.125
501,1695773119151,-0.10449219,-0.87091064,0.055603027,-22.21875,11.59375,-3.90625
502,1695773119183,0.08691406,-0.9639282,0.2567749,8.96875,-1.84375,-6.921875
503,1695773119226,-0.0021972656,-1.0899048,0.038513184,7.421875,-13.65625,-4.375
504,1695773119274,-0.12646484,-0.90631104,0.2904663,-5.640625,17.09375,-5.671875
505,1695773119305,0.049316406,-0.75982666,0.078552246,-19.234375,2.765625,-3.671875
506,1695773119344,-0.1953125,-0.8467407,0.24090576,-4.53125,-5.0625,0.515625
507,1695773119391,-0.045654297,-1.4021606,0.230896,12.046875,2.34375,7.953125
508,1695773119421,0.11303711,-1.1521606,0.15057373,-2.5,1.625,2.25
509,1695773119464,0.13183594,-0.9763794,0.12030029,5.28125,8.9375,-8.46875
510,1695773119492,-0.061279297,-0.70318604,-0.085998535,-11.5,-1.59375,-10.421875
511,1695773119542,-0.07080078,-0.7593384,0.24798584,6.140625,8.015625,-6.015625
512,1695773119585,-0.17919922,-1.2703247,0.28240967,21.78125,-17.796875,5.640625
513,1695773119617,-0.13891602,-1.0776978,0.10345459,7.765625,0.9375,19.390625
514,1695773119661,0.1105957,-0.7542114,-0.059387207,-12.859375,15.53125,-25.59375
515,1695773119707,0.06665039,-1.0193481,-0.06402588,-4.46875,2.484375,-14.625
516,1695773119733,-0.17138672,-1.1467896,0.29974365,-9.109375,7.34375,10.59375
517,1695773119777,-0.2993164,-1.12677,0.34124756,2.78125,-19.125,8.46875
518,1695773119807,-0.18774414,-0.90045166,0.035827637,-5.75,1.9375,5.390625
519,1695773119852,-0.028564453,-0.9468384,0.0028686523,5.15625,5.921875,-8.828125
520,1695773119897,-0.05810547,-1.1372681,0.1449585,2.875,10.71875,19.046875
521,1695773119932,0.14990234,-0.862854,0.19940186,-13.71875,11.5625,8.390625
522,1695773119972,-0.13916016,-0.9866333,0.15081787,-10.78125,3.703125,-9.53125
523,1695773120018,0.060546875,-1.0144653,0.17596436,-3.0625,5.09375,-10.6875
524,1695773120047,-0.008544922,-0.8870239,0.10345459,-0.5,-17.015625,7.53125
525,1695773120092,-0.040527344,-0.8491821,0.16571045,-3.59375,-2.71875,10.015625
526,1695773120123,-0.064208984,-1.1741333,0.1630249,-3.640625,-2.75,0.96875
527,1695773120169,0.010498047,-1.1531372,0.20281982,-9.578125,-5.1875,-2.90625
528,1695773120212,0.08081055,-1.0435181,0.19598389,-19.546875,7.96875,-6.71875
529,1695773120243,-0.119628906,-0.90093994,0.1605835,-17.375,-7.5,-5.609375
530,1695773120287,-0.118652344,-1.0928345,0.24188232,6.140625,1.75,-0.96875
531,1695773120333,-0.014892578,-0.7774048,0.16815186,-4.78125,-3.015625,-0.515625
532,1695773120363,-0.03491211,-0.97320557,0.15106201,7.578125,-4.6875,-4.421875
533,1695773120407,-0.009521484,-0.8921509,0.16815186,8.1875,1.8125,-2.28125
534,1695773120439,-0.024902344,-1.0542603,0.22601318,5.453125,-0.34375,-0.390625
535,1695773120489,-0.071777344,-1.0322876,0.2255249,0.296875,-4.75,1.84375
536,1695773120532,-0.07446289,-0.96588135,0.17352295,-5.703125,-0.4375,-11.09375
537,1695773120560,-0.036621094,-1.0115356,0.17034912,0.546875,0.875,-5.640625
538,1695773120605,-0.05078125,-0.9949341,0.18572998,3.0,0.65625,2.78125
539,1695773120651,-0.092285156,-0.9780884,0.15887451,3.59375,-0.765625,5.171875
540,1695773120680,-0.0871582,-0.9829712,0.15692139,-0.640625,-0.15625,-2.375
541,1695773120724,-0.09863281,-1.022522,0.12762451,1.53125,4.609375,-8.875
542,1695773120757,-0.09667969,-1.0881958,0.109313965,7.390625,6.90625,1.484375
543,1695773120800,0.080322266,-0.87384033,0.2694702,4.4375,1.1875,-7.6875
544,1695773120844,-0.14941406,-1.0733032,0.10784912,-3.140625,0.515625,12.25
545,1695773120876,-0.0546875,-0.88482666,0.24871826,-1.46875,2.265625,-5.84375
546,1695773120919,-0.14916992,-1.0715942,0.15545654,3.953125,-12.890625,-0.3125
547,1695773120958,-0.05102539,-0.85406494,0.1798706,0.640625,4.25,0.84375
548,1695773120998,-0.06225586,-0.9990845,0.03265381,-9.390625,1.421875,-0.46875
549,1695773121039,-0.037353516,-1.0610962,0.18475342,4.234375,-2.328125,-4.28125
550,1695773121069,-0.057373047,-1.0628052,0.30706787,15.671875,-1.140625,6.765625
551,1695773121116,-0.15161133,-0.9414673,0.07098389,-5.96875,-8.90625,-2.703125
552,1695773121162,-0.052978516,-0.75128174,0.12860107,-8.03125,-5.765625,-16.34375
553,1695773121192,-0.0073242188,-1.1633911,0.12591553,-4.078125,-7.703125,-6.453125
554,1695773121238,-0.12841797,-1.0645142,0.1618042,-27.421875,-1.8125,7.609375
555,1695773121266,-0.15039062,-0.87579346,0.33343506,-5.09375,-0.375,-9.421875
556,1695773121311,-0.10644531,-1.1809692,0.24847412,7.234375,-0.625,-4.0625
557,1695773121354,-0.103515625,-1.0130005,0.120788574,-24.703125,7.65625,17.09375
558,1695773121383,-0.15161133,-0.77911377,0.16278076,13.171875,2.515625,0.875
559,1695773121431,-0.044433594,-1.1184692,0.21502686,15.28125,-2.21875,2.53125
560,1695773121474,-0.06738281,-0.93756104,0.20526123,-5.90625,-0.625,3.09375
561,1695773121506,-0.02758789,-1.05719,0.105163574,3.78125,-0.296875,-5.203125
562,1695773121550,-0.020751953,-0.87042236,0.11199951,-2.9375,0.046875,1.671875
563,1695773121581,-0.08105469,-1.0088501,0.16400146,6.484375,-1.328125,1.53125
564,1695773121641,-0.10546875,-1.0169067,0.21697998,0.40625,-1.890625,4.4375
565,1695773121671,-0.068847656,-1.0217896,0.19403076,-0.9375,0.734375,-2.34375
566,1695773121700,-0.07348633,-1.0071411,0.13006592,-0.34375,2.15625,3.21875
567,1695773121747,-0.07299805,-0.92266846,0.16107178,4.1875,0.5625,1.234375
568,1695773121792,-0.056884766,-1.0274048,0.16400146,5.984375,2.515625,-1.21875
569,1695773121819,-0.06640625,-1.0308228,0.13787842,-3.84375,1.796875,3.453125
570,1695773121864,-0.044189453,-0.98760986,0.1630249,4.375,3.265625,0.015625
571,1695773121897,-0.064941406,-1.034729,0.06439209,-2.890625,2.921875,2.03125
572,1695773121945,-0.080322266,-0.93878174,0.101745605,-2.03125,5.53125,4.796875
573,1695773121987,0.05834961,-0.9680786,0.18621826,7.765625,4.21875,-5.890625
574,1695773122021,-0.06689453,-1.0733032,0.109802246,-4.0,2.578125,8.15625
575,1695773122066,-0.06323242,-0.8362427,0.14471436,-2.953125,3.734375,-6.03125
576,1695773122107,-0.0637207,-1.0789185,0.18157959,9.609375,-0.171875,-0.078125
577,1695773122135,-0.059326172,-0.9873657,0.11859131,-6.765625,-0.421875,5.0
578,1695773122180,-0.046142578,-0.9290161,0.17816162,1.609375,1.15625,-1.234375
579,1695773122209,-0.040527344,-1.0747681,0.16741943,6.5,0.6875,-1.25
580,1695773122255,-0.08178711,-0.9602661,0.13201904,-9.3125,0.65625,6.5
581,1695773122300,-0.015380859,-0.9414673,0.16229248,2.046875,-0.140625,-3.640625
582,1695773122338,-0.008300781,-0.9907837,0.13763428,-0.671875,-2.1875,-2.40625
583,1695773122375,-0.053222656,-1.041565,0.15814209,-9.359375,-3.765625,2.96875
584,1695773122419,-0.037597656,-1.0261841,0.1749878,-19.84375,-6.859375,-6.578125
585,1695773122452,-0.10180664,-0.9434204,0.16156006,-2.28125,-1.609375,-11.71875
586,1695773122500,0.0026855469,-1.1282349,0.1774292,27.59375,4.359375,-0.671875
587,1695773122528,-0.07324219,-0.97247314,0.10247803,-6.984375,-1.75,15.671875
588,1695773122577,-0.067871094,-0.8069458,0.109558105,0.390625,-6.078125,0.125
589,1695773122619,-0.032714844,-1.0476685,0.11956787,15.1875,-2.828125,-3.125
590,1695773122647,-0.04248047,-0.99420166,0.11810303,-2.03125,-0.578125,2.21875
591,1695773122690,-0.024169922,-1.0100708,0.14691162,1.03125,0.671875,-0.34375
592,1695773122737,-0.03955078,-0.99224854,0.11126709,-4.15625,-5.484375,1.578125
593,1695773122770,-0.037109375,-1.000061,0.120788574,0.703125,-1.625,1.75
594,1695773122812,-0.035888672,-1.0276489,0.14129639,2.140625,-0.71875,2.71875
595,1695773122843,-0.05834961,-0.9561157,0.11468506,-2.046875,-1.703125,0.203125
596,1695773122892,-0.0063476562,-1.0039673,0.11175537,0.265625,1.765625,-1.375
597,1695773122932,-0.018310547,-0.9795532,0.117614746,0.3125,-0.4375,1.3125
598,1695773122962,-0.031982422,-1.0374146,0.08856201,4.40625,-1.171875,0.734375
599,1695773123009,-0.024902344,-0.9859009,0.08758545,-1.40625,2.421875,9.078125
600,1695773123052,0.0107421875,-0.9849243,0.098083496,3.671875,6.578125,-5.265625
601,1695773123083,-0.016113281,-0.98101807,0.10784912,8.15625,7.28125,-0.609375
602,1695773123124,-0.018554688,-1.0049438,0.15594482,10.28125,-0.25,0.765625
603,1695773123159,-0.07470703,-1.0332642,0.048034668,-2.875,-3.65625,-0.515625
604,1695773123201,-0.0690918,-0.9192505,0.0368042,-4.015625,6.328125,-1.6875
605,1695773123247,0.052734375,-1.036438,0.13470459,20.71875,11.328125,-8.25
606,1695773123275,-0.09326172,-1.0234985,0.039733887,-5.953125,-3.34375,8.96875
607,1695773123321,0.0031738281,-0.92388916,0.12664795,1.78125,0.40625,-1.671875
608,1695773123368,-0.052001953,-1.116272,0.025817871,-3.171875,-3.765625,-4.0
609,1695773123395,-0.028320312,-0.913147,0.061950684,-8.203125,1.828125,-2.8125
610,1695773123442,-0.059814453,-1.0357056,0.074645996,5.671875,1.921875,0.578125
611,1695773123469,-0.08325195,-0.99053955,0.08441162,-25.25,2.328125,6.359375
612,1695773123514,-0.030273438,-0.8164673,0.2111206,-13.125,-3.78125,-4.0625
613,1695773123561,-0.033203125,-1.1924438,0.08416748,5.515625,0.546875,2.234375
614,1695773123597,0.013183594,-0.92510986,0.093444824,-10.40625,2.234375,3.96875
615,1695773123637,-0.041748047,-1.0410767,0.08465576,17.59375,0.75,-1.671875
616,1695773123709,0.006591797,-0.94903564,0.13885498,0.75,-4.6875,-0.125
617,1695773123713,-0.014160156,-0.9963989,0.089782715,-3.625,-1.390625,-5.046875
618,1695773123757,-0.014160156,-0.97369385,0.07293701,-3.5625,-2.296875,-1.03125
619,1695773123785,-0.01953125,-0.9734497,0.10272217,5.328125,1.359375,-1.125
620,1695773123832,-0.055419922,-0.9944458,0.120788574,5.859375,2.609375,3.21875
621,1695773123875,-0.055664062,-1.0276489,0.10491943,0.203125,2.40625,3.0625
622,1695773123920,-0.03930664,-1.0388794,0.03778076,-1.0,1.015625,1.203125
623,1695773123950,0.008544922,-1.0564575,-0.10455322,13.578125,11.265625,4.875
624,1695773124002,0.13085938,-1.15094,0.19891357,10.515625,5.453125,13.890625
625,1695773124025,-0.06713867,-1.0293579,-0.030578613,1.359375,3.671875,28.96875
626,1695773124071,-0.10546875,-0.6914673,0.03753662,-2.046875,22.703125,-2.03125
627,1695773124147,-0.038085938,-1.0147095,0.14422607,-2.59375,3.609375,-4.125
628,1695773124150,0.15112305,-0.9763794,0.11566162,-3.59375,5.4375,0.296875
629,1695773124193,0.055419922,-0.9224243,0.08343506,-7.484375,-7.8125,-8.234375
630,1695773124222,0.032958984,-1.0718384,-0.003967285,-20.78125,-6.015625,-2.25
631,1695773124272,0.075927734,-1.0081177,0.03704834,-3.5,2.671875,3.9375
632,1695773124314,0.0024414062,-1.0879517,0.15594482,5.171875,-3.1875,4.3125
633,1695773124346,-0.00024414062,-1.0752563,0.1359253,-5.296875,-6.375,1.375
634,1695773124390,0.007080078,-0.815979,0.05316162,-12.171875,5.140625,-11.75
635,1695773124415,0.08227539,-0.9924927,0.15057373,2.5625,3.28125,-17.703125
636,1695773124459,-0.075683594,-1.0913696,0.13397217,-5.90625,-9.078125,14.421875
637,1695773124505,0.011962891,-0.84332275,0.23431396,-1.1875,2.328125,2.5625
638,1695773124536,-0.010253906,-1.1350708,0.061462402,2.015625,4.921875,0.0625
639,1695773124581,0.03466797,-0.9402466,0.10760498,-3.828125,1.671875,7.15625
640,1695773124629,0.13867188,-1.013977,0.14837646,7.359375,1.734375,0.28125
641,1695773124656,-0.017578125,-1.0669556,0.11419678,-29.25,-4.6875,5.21875
642,1695773124711,-0.057617188,-0.7918091,0.22259521,-23.125,-3.9375,-12.109375
643,1695773124729,0.06738281,-1.1235962,0.17840576,16.59375,8.3125,-22.5
644,1695773124775,0.06274414,-0.96295166,0.112976074,-10.328125,3.25,8.53125
645,1695773124822,-0.025878906,-0.92266846,0.16253662,8.15625,-0.828125,1.203125
646,1695773124853,0.017089844,-1.0842896,0.10394287,7.9375,-3.40625,3.578125
647,1695773124896,0.0026855469,-0.90826416,0.12860107,-1.015625,-1.171875,-3.5625
648,1695773124942,0.064941406,-1.0569458,0.17352295,4.046875,-0.03125,-7.21875
649,1695773124972,-0.018554688,-0.93585205,0.10638428,-6.59375,-8.453125,-0.9375
650,1695773125016,-0.028076172,-0.9546509,0.1552124,3.8125,1.984375,-4.15625
651,1695773125050,0.00024414062,-1.0632935,0.18133545,0.953125,-0.140625,1.296875
652,1695773125090,-0.03881836,-0.9710083,0.15008545,-3.421875,-7.34375,2.703125
653,1695773125134,-0.013671875,-1.0303345,0.1461792,2.390625,-1.578125,-4.6875
654,1695773125165,-0.015136719,-0.9614868,0.13201904,0.078125,-0.71875,-6.28125
655,1695773125217,-0.036376953,-0.9829712,0.13934326,0.03125,-1.0,-4.546875
656,1695773125240,-0.052978516,-1.0234985,0.14813232,0.828125,-0.984375,1.921875
657,1695773125284,-0.026611328,-0.989563,0.066345215,3.90625,3.96875,5.640625
658,1695773125331,0.020263672,-0.99346924,0.13763428,6.609375,8.15625,4.09375
659,1695773125360,0.02734375,-1.0755005,0.15252686,3.09375,2.015625,2.671875
660,1695773125410,-0.045898438,-0.86505127,0.09588623,-7.546875,4.921875,0.921875
661,1695773125451,0.064697266,-1.0886841,0.16595459,5.765625,4.390625,-11.25
662,1695773125480,-0.0068359375,-0.96661377,0.12030029,-5.265625,-8.90625,7.875
663,1695773125528,-0.072265625,-0.9072876,0.1605835,-0.890625,-0.671875,-0.03125
664,1695773125556,-0.038330078,-1.0171509,0.082214355,-2.8125,5.40625,-1.0625
665,1695773125600,0.048339844,-0.99786377,0.14593506,3.328125,7.59375,3.078125
666,1695773125647,-0.007080078,-1.0515747,0.11273193,2.78125,1.828125,7.015625
667,1695773125675,0.040039062,-0.91290283,0.16253662,2.09375,1.375,-1.6875
668,1695773125723,0.05126953,-1.0264282,0.10443115,-1.296875,-0.40625,-3.578125
669,1695773125766,0.024414062,-0.93829346,0.11151123,-4.640625,-2.921875,-6.28125
670,1695773125796,0.05834961,-1.0496216,0.1293335,11.765625,2.578125,-10.9375
671,1695773125840,-0.1472168,-0.9612427,0.16693115,-13.78125,-7.203125,-5.296875
672,1695773125874,-0.033935547,-0.9932251,0.20819092,-2.453125,-5.9375,-20.4375
673,1695773125916,-0.0031738281,-1.1135864,0.007751465,6.015625,-4.890625,2.25
674,1695773125963,-0.104003906,-0.87457275,0.06488037,0.53125,-4.953125,2.859375
675,1695773125990,-0.08862305,-0.9771118,0.06439209,11.828125,0.71875,0.609375
676,1695773126036,-0.047607422,-0.98760986,0.08099365,-3.84375,-2.546875,-1.484375
677,1695773126085,-0.051513672,-1.0510864,0.101257324,-0.953125,2.8125,-1.328125
678,1695773126114,-0.022705078,-1.0361938,0.09490967,-1.265625,-1.421875,-0.78125
679,1695773126158,-0.063964844,-0.95758057,0.074401855,0.046875,0.625,2.234375
680,1695773126186,-0.048583984,-0.9758911,0.08148193,2.1875,1.28125,1.96875
681,1695773126236,-0.060546875,-1.0132446,0.11956787,-1.8125,-3.578125,1.3125
682,1695773126278,-0.059326172,-1.0098267,0.11590576,-1.140625,0.59375,1.546875
683,1695773126307,-0.041503906,-0.96881104,0.08685303,0.84375,2.859375,1.015625
684,1695773126352,-0.032714844,-1.0120239,0.07293701,-0.59375,3.1875,0.328125
685,1695773126398,-0.004638672,-0.97003174,0.117614746,3.765625,3.203125,1.625
686,1695773126427,-0.039794922,-1.067688,0.00970459,-1.453125,4.875,0.09375
687,1695773126474,-0.013916016,-0.92193604,0.15301514,6.609375,9.3125,3.375
688,1695773126505,-0.013427734,-1.1497192,0.038024902,14.59375,6.109375,-0.46875
689,1695773126546,-0.12426758,-0.8452759,0.043395996,-5.546875,3.6875,5.484375
690,1695773126590,0.05810547,-1.1262817,0.032165527,17.53125,9.171875,-12.71875
691,1695773126622,-0.063964844,-0.9837036,0.14129639,-6.25,-0.25,4.046875
692,1695773126666,-0.01977539,-1.0105591,0.08856201,7.875,7.6875,1.921875
693,1695773126714,-0.072021484,-0.90289307,-0.08502197,-9.375,-11.71875,-3.484375
694,1695773126744,0.031982422,-0.9624634,0.12445068,10.6875,10.578125,-0.71875
695,1695773126790,-0.080078125,-1.1497192,0.010192871,1.8125,-1.46875,2.59375
696,1695773126815,-0.06201172,-0.8982544,0.08660889,-7.953125,-5.171875,0.96875
697,1695773126863,-0.02368164,-1.0532837,0.054138184,10.8125,5.421875,-2.703125
698,1695773126907,-0.049804688,-1.0110474,-0.0005493164,-16.359375,-3.6875,2.203125
699,1695773126936,-0.0017089844,-0.9312134,0.059020996,-2.4375,-1.75,-3.4375
700,1695773126982,-0.053955078,-1.0557251,0.016052246,0.265625,-2.96875,2.03125
701,1695773127027,-0.03466797,-1.0186157,0.07952881,-8.40625,7.890625,6.171875
702,1695773127056,-0.03491211,-0.911438,0.05657959,-12.03125,-9.9375,-1.90625
703,1695773127100,-0.07788086,-1.085022,0.08880615,-16.875,-14.578125,-3.109375
704,1695773127133,0.03491211,-1.0291138,-0.009338379,-5.5625,6.1875,10.78125
705,1695773127177,0.028808594,-0.894104,0.0770874,4.28125,1.8125,5.265625
706,1695773127224,-0.01977539,-1.076477,0.038269043,-2.8125,-3.390625,-1.65625
707,1695773127252,0.0036621094,-1.0064087,0.1005249,-0.296875,1.1875,3.234375
708,1695773127298,0.1484375,-1.0249634,0.19232178,15.78125,14.21875,-7.984375
709,1695773127340,-0.14282227,-0.9776001,0.030212402,-9.515625,-7.203125,15.734375
710,1695773127372,-0.07763672,-0.87750244,0.15081787,4.796875,2.421875,-5.3125
711,1695773127418,0.10107422,-1.053772,0.1071167,4.3125,4.5625,-14.890625
712,1695773127447,-0.026367188,-1.0432739,0.04827881,-11.625,-4.453125,0.984375
713,1695773127490,-0.032226562,-0.92559814,0.1239624,-0.359375,-4.84375,1.6875
714,1695773127544,-0.022216797,-1.0213013,0.07220459,5.75,-1.3125,-0.6875
715,1695773127564,-0.08081055,-1.0005493,0.07293701,-8.640625,-3.0,2.25
716,1695773127615,-0.0078125,-0.9522095,0.113708496,-0.171875,1.328125,-1.0
717,1695773127657,-0.0026855469,-1.0484009,0.053649902,0.0,1.4375,0.28125
718,1695773127685,0.023925781,-0.97906494,0.06390381,-7.421875,0.359375,2.328125
719,1695773127733,0.052734375,-0.9937134,0.101989746,-4.34375,-2.90625,0.609375
720,1695773127763,-0.001953125,-0.99542236,0.12860107,-16.625,-7.53125,-1.734375
721,1695773127810,-0.04711914,-0.92926025,0.2477417,-0.265625,-10.90625,-8.3125
722,1695773127851,-0.06274414,-1.1260376,0.10247803,0.265625,-5.296875,2.328125
723,1695773127885,-0.030517578,-0.8899536,0.06072998,-5.5625,-1.796875,3.265625
724,1695773127924,0.009765625,-0.9746704,0.09466553,1.0625,-4.265625,-1.8125
725,1695773127970,0.025146484,-0.9846802,0.12908936,-0.375,-0.875,-1.171875
726,1695773128001,-0.010009766,-1.0630493,0.12908936,-1.90625,-6.4375,-0.359375
727,1695773128046,-0.037353516,-1.0142212,0.13909912,-8.859375,-5.546875,-2.765625
728,1695773128080,-0.03466797,-0.98687744,0.1293335,-7.875,-1.859375,-4.828125
729,1695773128124,-0.034423828,-0.9927368,0.12884521,-6.53125,-3.09375,2.421875
730,1695773128165,-0.0390625,-0.98394775,0.14154053,-8.078125,1.15625,-0.53125
731,1695773128198,-0.03955078,-1.0288696,0.15618896,-1.046875,1.9375,-3.359375
732,1695773128242,0.022949219,-0.96173096,0.1828003,3.8125,2.015625,-7.515625
733,1695773128288,-0.042236328,-1.0969849,0.14984131,-1.609375,4.84375,13.125
734,1695773128315,-0.026855469,-0.86846924,0.27850342,-7.8125,-0.40625,-1.4375
735,1695773128365,-0.06616211,-1.0437622,0.15057373,-7.625,0.28125,-3.90625
736,1695773128393,0.018066406,-0.89190674,0.23846436,-4.921875,-2.28125,-11.71875
737,1695773128435,-0.020019531,-1.0518188,0.13665771,8.859375,-9.5625,1.90625
738,1695773128480,-0.061279297,-0.84259033,0.07611084,-14.765625,-1.0,7.625
739,1695773128513,-0.026855469,-1.0730591,0.15692139,2.296875,9.703125,-9.546875
740,1695773128557,-0.020996094,-1.2000122,0.21160889,8.453125,-3.765625,-2.921875
741,1695773128600,-0.022216797,-0.91485596,0.31072998,8.40625,4.25,9.03125
742,1695773128631,-0.13696289,-0.94854736,0.059753418,-8.25,-0.140625,-1.1875
743,1695773128682,-0.059814453,-0.8201294,0.12664795,-13.75,1.609375,-12.84375
744,1695773128703,-0.01586914,-1.1641235,0.2477417,5.015625,-2.21875,-0.140625
745,1695773128748,-0.03149414,-1.0501099,0.23040771,5.546875,0.875,13.625
746,1695773128793,-0.035888672,-0.9612427,0.14642334,4.296875,1.171875,-12.578125
747,1695773128825,-0.03466797,-0.958313,0.0770874,-4.109375,0.6875,-11.5625
748,1695773128871,-0.0017089844,-1.0210571,0.15887451,4.84375,-2.40625,6.3125
749,1695773128915,-0.05102539,-0.8970337,0.18475342,1.859375,-4.734375,5.421875
750,1695773128944,-0.18066406,-1.0188599,0.16156006,3.234375,2.390625,-0.140625
751,1695773128991,-0.017089844,-1.0567017,0.16473389,-5.5,4.421875,-3.0625
752,1695773129019,0.011962891,-0.972229,0.14471436,-1.84375,3.03125,3.125
753,1695773129065,-0.030761719,-0.95806885,0.1774292,0.890625,3.15625,0.03125
754,1695773129112,-0.036865234,-1.0271606,0.19134521,-13.28125,-1.296875,-5.421875
755,1695773129139,-0.028808594,-0.9573364,0.14788818,-30.0625,0.875,-2.0625
756,1695773129187,-0.2084961,-0.9031372,0.2826538,20.34375,10.90625,0.75
757,1695773129214,-0.017089844,-1.2324829,0.23138428,21.65625,-2.265625,5.25
758,1695773129259,-0.0061035156,-0.9558716,0.14788818,-19.109375,2.625,9.796875
759,1695773129306,-0.14672852,-0.9290161,0.16815186,-14.953125,-6.234375,-3.59375
760,1695773129335,-0.024414062,-0.9038696,0.12249756,14.578125,-0.25,-4.984375
761,1695773129382,0.056396484,-1.065979,0.12200928,12.171875,2.859375,0.859375
762,1695773129426,-0.0056152344,-0.99420166,0.17718506,-6.203125,-3.234375,4.0
763,1695773129457,-0.060058594,-0.99957275,0.18597412,-1.125,-3.359375,-2.25
764,1695773129501,-0.045654297,-0.9678345,0.1359253,-5.640625,-3.203125,-0.609375
765,1695773129532,-0.026367188,-0.98028564,0.16619873,1.234375,-1.15625,-2.453125
766,1695773129578,-0.04638672,-1.0254517,0.18841553,-1.40625,0.40625,-0.171875
767,1695773129619,-0.056640625,-0.9937134,0.15545654,0.53125,1.84375,1.75
768,1695773129650,-0.06591797,-0.98028564,0.13861084,1.59375,0.8125,0.703125
769,1695773129694,-0.029785156,-0.9927368,0.15252686,3.890625,3.265625,-3.4375
770,1695773129737,-0.021484375,-1.0681763,0.11175537,3.484375,2.96875,-2.671875
771,1695773129767,-0.025878906,-0.9627075,0.1317749,-0.421875,2.171875,0.484375
772,1695773129812,0.040527344,-0.9680786,0.22821045,7.390625,2.0,-4.203125
773,1695773129842,-0.10644531,-0.9829712,0.1395874,-4.796875,-1.484375,7.703125
774,1695773129888,-0.11303711,-0.92852783,0.2164917,-6.171875,-0.6875,-4.515625
775,1695773129941,-0.030029297,-1.0894165,0.09539795,2.8125,-1.578125,-3.671875
776,1695773129962,-0.0017089844,-0.9199829,0.16107178,-2.3125,2.515625,0.125
777,1695773130008,-0.07006836,-1.0818481,0.09661865,-2.671875,-0.046875,0.6875
778,1695773130053,-0.03515625,-0.9085083,0.15081787,-6.625,0.40625,-1.390625
779,1695773130082,-0.03173828,-1.0588989,0.17572021,4.421875,1.90625,-2.890625
780,1695773130129,-0.06762695,-0.99664307,0.1449585,-7.171875,0.40625,1.828125
781,1695773130159,-0.05883789,-0.9241333,0.19451904,-1.875,3.171875,-2.484375
782,1695773130205,-0.03100586,-0.9734497,0.16448975,0.625,1.828125,-3.28125
783,1695773130247,-0.061767578,-1.0584106,0.19769287,-16.453125,-4.515625,1.203125
784,1695773130278,-0.11206055,-0.93341064,0.18914795,1.921875,-3.53125,0.5625
785,1695773130323,0.04272461,-1.0957642,0.097595215,18.171875,3.96875,1.3125
786,1695773130367,-0.103271484,-0.9006958,0.1618042,-7.796875,-1.625,2.734375
787,1695773130398,-0.026123047,-1.0012817,0.121520996,10.09375,0.4375,-3.53125
788,1695773130444,-0.026611328,-0.99957275,0.14788818,-4.046875,-1.671875,2.859375
789,1695773130478,-0.049072266,-0.9631958,0.16790771,-0.375,-1.15625,-3.28125
790,1695773130519,-0.052490234,-1.0481567,0.16131592,-2.296875,-3.0625,-2.828125
791,1695773130566,-0.045166016,-0.958313,0.14813232,-0.40625,1.859375,0.484375
792,1695773130597,-0.04736328,-0.97076416,0.14202881,1.9375,-0.09375,1.78125
793,1695773130638,-0.07446289,-1.0054321,0.13665771,-0.1875,-1.75,0.734375
794,1695773130686,-0.060546875,-1.0147095,0.14837646,1.1875,-0.953125,-0.25
795,1695773130716,-0.048095703,-1.008606,0.1642456,3.546875,2.546875,-0.171875
796,1695773130762,-0.064208984,-0.98638916,0.12689209,5.453125,4.6875,0.234375
797,1695773130791,-0.061767578,-0.9710083,0.10443115,4.0,2.984375,0.015625
798,1695773130836,-0.013671875,-1.0166626,0.121032715,11.421875,1.03125,2.03125
799,1695773130891,-0.0017089844,-1.0510864,0.074645996,1.859375,1.234375,3.375
800,1695773130909,-0.05419922,-0.91119385,0.07489014,-4.875,2.953125,-0.1875
801,1695773130956,0.0,-1.0376587,0.16473389,11.609375,6.09375,-4.734375
802,1695773131002,-0.08325195,-0.97784424,0.09588623,-6.796875,-4.0,3.09375
803,1695773131031,-0.05444336,-0.93341064,0.13275146,0.484375,-0.46875,-5.0
804,1695773131077,-0.06665039,-1.111145,0.057556152,-3.0,-1.828125,0.609375
805,1695773131108,-0.037841797,-0.94317627,0.14398193,-4.5,-1.53125,1.90625
806,1695773131152,-0.080322266,-1.0725708,0.09710693,-3.9375,-1.828125,4.453125
807,1695773131195,-0.07714844,-0.92852783,0.12445068,-11.609375,0.9375,-2.265625
808,1695773131229,-0.016357422,-1.0430298,0.10467529,-5.84375,6.015625,-1.515625
809,1695773131271,-0.07885742,-0.89971924,0.1618042,-14.15625,-1.4375,6.828125
810,1695773131315,-0.0068359375,-1.0772095,0.20501709,8.296875,6.5,5.34375
811,1695773131345,-0.03125,-0.956604,0.13323975,-10.6875,-0.5625,7.015625
812,1695773131391,-0.03564453,-1.0012817,0.15985107,11.5,-0.765625,0.1875
813,1695773131422,0.064208984,-0.99176025,0.10369873,5.140625,-3.625,5.703125
814,1695773131465,0.012451172,-0.9138794,0.12176514,2.5,-2.921875,-1.71875
815,1695773131511,-0.017089844,-1.0564575,0.121276855,-0.578125,-1.078125,-0.703125
816,1695773131540,0.015625,-0.9673462,0.17425537,-5.671875,-2.390625,-1.765625
817,1695773131586,-0.018554688,-1.0183716,0.094177246,-4.625,-4.25,-1.640625
818,1695773131631,-0.00048828125,-0.956604,0.1293335,-4.03125,1.0,-2.0625
819,1695773131659,0.03125,-1.0305786,0.1593628,0.0625,-1.859375,-2.359375
820,1695773131706,-0.028808594,-0.98516846,0.14349365,-1.828125,-2.203125,1.6875
821,1695773131735,-0.048339844,-1.0076294,0.14398193,-2.734375,-2.09375,-1.796875
822,1695773131781,-0.03173828,-0.98516846,0.14105225,-7.625,-0.4375,-3.171875
823,1695773131826,-0.01977539,-0.9837036,0.1515503,-10.4375,1.0,-2.015625
824,1695773131857,-0.018310547,-1.005188,0.15057373,-6.5,1.203125,-9.484375
825,1695773131902,0.015625,-0.987854,0.19232178,0.09375,3.71875,-5.71875
826,1695773131976,-0.0715332,-1.0022583,0.1786499,-6.359375,-1.4375,-5.75
827,1695773131982,-0.08300781,-0.88287354,0.19744873,-8.78125,-4.5,-6.3125
828,1695773132026,-0.05029297,-1.0022583,0.21624756,10.78125,-5.21875,-5.078125
829,1695773132050,-0.04296875,-1.03302,0.20428467,-6.375,-2.234375,4.359375
830,1695773132096,-0.07324219,-1.0178833,0.21038818,-7.0625,-2.921875,-0.6875
831,1695773132138,-0.11230469,-0.98272705,0.15350342,-9.5,-2.640625,-5.765625
832,1695773132172,-0.018798828,-0.97540283,0.23626709,2.21875,7.140625,-6.765625
833,1695773132216,-0.06347656,-1.0234985,0.18206787,-12.140625,5.484375,-3.453125
834,1695773132261,-0.06640625,-0.91363525,0.2555542,-26.078125,-1.875,-8.453125
835,1695773132290,-0.17358398,-0.9360962,0.3060913,-8.8125,-11.28125,-6.3125
836,1695773132335,-0.110839844,-1.034729,0.23626709,-1.15625,-2.3125,2.390625
837,1695773132412,-0.052490234,-1.0078735,0.27191162,-4.265625,4.8125,4.234375
838,1695773132417,-0.11401367,-0.97784424,0.27825928,2.15625,3.953125,0.484375
839,1695773132458,-0.118652344,-0.95758057,0.28363037,9.453125,2.0625,-2.515625
840,1695773132486,-0.076416016,-0.9614868,0.22479248,17.15625,-0.109375,-0.421875
841,1695773132532,-0.08251953,-0.98394775,0.23480225,5.203125,-4.3125,9.203125
842,1695773132609,-0.11376953,-0.92974854,0.20355225,0.078125,-10.5625,2.640625
843,1695773132612,-0.07348633,-1.0183716,0.19378662,3.359375,1.25,0.015625
844,1695773132651,-0.06298828,-0.99102783,0.25653076,4.25,2.421875,-0.765625
845,1695773132678,-0.0715332,-1.0278931,0.16741943,18.140625,2.9375,0.265625
846,1695773132724,-0.13208008,-1.0127563,0.12664795,24.28125,10.328125,9.984375
847,1695773132767,-0.09057617,-1.1716919,0.12957764,24.640625,10.640625,1.890625
848,1695773132798,0.02734375,-0.8010864,0.14056396,-9.375,7.421875,-0.78125
849,1695773132843,-0.19458008,-0.9927368,0.085876465,3.484375,-1.15625,9.65625
850,1695773132894,0.03466797,-0.91778564,0.28631592,1.515625,6.8125,-9.03125
851,1695773132922,-0.072753906,-1.0667114,0.093688965,-2.328125,-1.546875,-0.265625
852,1695773132965,-0.0871582,-0.88360596,0.13250732,-3.109375,-9.546875,-4.5625
853,1695773132994,0.0061035156,-1.0557251,0.16595459,10.078125,-2.640625,8.71875
854,1695773133037,-0.10522461,-0.95269775,0.011169434,-14.9375,-1.921875,11.171875
855,1695773133082,-0.03491211,-1.0252075,0.1696167,11.671875,14.46875,-19.109375
856,1695773133113,-0.107177734,-1.0227661,0.20672607,-3.0625,-15.5,-7.421875
857,1695773133157,-0.008300781,-0.96099854,0.09295654,1.65625,-3.4375,12.546875
858,1695773133202,-0.036132812,-0.89385986,0.0036010742,-5.515625,5.484375,0.828125
859,1695773133232,-0.08496094,-1.0564575,0.15838623,-0.96875,4.296875,-11.546875
860,1695773133278,-0.083984375,-1.1980591,0.17181396,5.75,-0.234375,7.578125
861,1695773133308,-0.036132812,-0.90093994,0.109558105,1.78125,-1.5,7.90625
862,1695773133355,-0.029541016,-0.89190674,-0.0032348633,-2.375,11.765625,-4.703125
863,1695773133402,0.0024414062,-0.9668579,0.11102295,3.46875,1.984375,-9.171875
864,1695773133430,-0.1340332,-1.0701294,0.14813232,-3.34375,-10.578125,7.90625
865,1695773133476,-0.13867188,-1.0015259,0.13568115,-4.5625,-6.0,6.609375
866,1695773133506,-0.00390625,-0.97906494,0.10638428,-10.328125,0.578125,-8.078125
867,1695773133554,0.017578125,-1.0776978,0.12225342,-8.15625,4.125,-3.90625
868,1695773133597,0.04663086,-1.0169067,0.15081787,-18.53125,1.625,3.125
869,1695773133626,-0.19799805,-0.8484497,0.137146,-25.6875,-6.484375,2.15625
870,1695773133671,-0.13598633,-0.9805298,0.33050537,13.21875,-11.34375,-12.96875
871,1695773133713,-0.020507812,-1.2026978,0.1395874,4.25,5.84375,8.28125
872,1695773133745,-0.06567383,-0.7810669,0.09320068,-11.5,2.03125,8.59375
873,1695773133790,-0.030273438,-1.0166626,0.13323975,19.046875,0.296875,-5.21875
874,1695773133820,-0.03564453,-0.9837036,0.14349365,-11.515625,-8.625,1.75
875,1695773133866,-0.040527344,-0.9714966,0.2189331,1.90625,-4.625,-2.078125
876,1695773133912,-0.049560547,-1.0564575,0.19476318,-1.203125,-5.078125,-2.046875
877,1695773133942,-0.08520508,-0.96539307,0.1329956,-3.03125,-0.6875,0.734375
878,1695773133987,-0.06542969,-0.972229,0.17181396,0.46875,1.34375,-0.0625
879,1695773134030,-0.050048828,-0.9920044,0.18499756,0.28125,-0.796875,-2.40625
880,1695773134061,-0.048339844,-1.0308228,0.16497803,-2.015625,-0.640625,-0.296875
881,1695773134106,-0.06518555,-0.97320557,0.12835693,11.65625,2.921875,-4.890625
882,1695773134134,-0.10522461,-1.0166626,0.058044434,33.84375,2.703125,-0.109375
883,1695773134182,-0.009765625,-1.1453247,0.086364746,34.765625,4.0,4.21875
884,1695773134224,-0.026855469,-0.7815552,0.024841309,6.046875,14.0,17.53125
885,1695773134256,-0.059326172,-0.9746704,0.059265137,7.875,3.140625,-6.828125
886,1695773134301,-0.14331055,-1.0386353,0.12347412,-12.703125,-5.6875,-4.390625
887,1695773134347,0.055664062,-1.0015259,0.08685303,-6.28125,2.765625,-9.84375
888,1695773134376,-0.091796875,-0.9795532,-0.0178833,-12.734375,-0.421875,-2.671875
889,1695773134425,-0.037353516,-0.99420166,0.14447021,10.671875,-0.8125,2.3125
890,1695773134451,-0.13916016,-1.0178833,0.070739746,-5.640625,-5.1875,6.640625
891,1695773134497,-0.09423828,-1.0127563,0.07366943,-10.546875,3.546875,-5.890625
892,1695773134542,-0.031982422,-1.0134888,0.08880615,-20.75,2.5625,-8.765625
893,1695773134567,-0.057861328,-0.8945923,0.14129639,-44.3125,1.25,-12.15625
894,1695773134617,-0.123291016,-0.9985962,0.2526245,-25.390625,-6.078125,-16.6875
895,1695773134662,-0.16259766,-1.03302,0.17913818,5.09375,-9.109375,7.546875
896,1695773134690,-0.0625,-0.99591064,0.1437378,23.546875,4.109375,14.015625
897,1695773134734,-0.095703125,-0.9536743,0.13909912,4.78125,-0.03125,10.703125
898,1695773134764,-0.09814453,-0.944397,0.1227417,-5.578125,0.015625,-1.96875
899,1695773134812,-0.08886719,-1.0274048,0.19207764,2.734375,-5.15625,-6.15625
900,1695773134858,-0.030273438,-1.0820923,0.18353271,-1.9375,1.078125,2.859375
901,1695773134885,-0.06542969,-0.94195557,0.11810303,-2.375,2.578125,3.203125
902,1695773134931,-0.09863281,-0.9512329,0.11419678,3.78125,-0.9375,2.46875
903,1695773134992,-0.056884766,-0.99957275,0.15814209,1.296875,-1.984375,1.84375
904,1695773135007,-0.05834961,-1.0288696,0.14935303,-6.953125,-2.421875,1.015625
905,1695773135048,-0.05859375,-0.9932251,0.14202881,-5.78125,0.75,-1.671875
