,timestamp,accel_x,accel_y,accel_z,gyro_x,gyro_y,gyro_z
0,1695741293759,-0.22558594,-0.9561157,0.28851318,-0.1875,-0.171875,-0.0625
1,1695741293799,-0.23071289,-0.9578247,0.27752686,-1.59375,-0.234375,-0.109375
2,1695741293839,-0.2277832,-0.9522095,0.28167725,0.234375,0.1875,-0.1875
3,1695741293879,-0.23461914,-0.9546509,0.2904663,-1.078125,-0.09375,-0.4375
4,1695741293918,-0.22973633,-0.9495239,0.28094482,-1.75,0.078125,-0.53125
5,1695741293959,-0.22631836,-0.954895,0.29632568,-0.15625,0.4375,-0.453125
6,1695741293999,-0.2355957,-0.9614868,0.27337646,-2.328125,0.046875,-0.65625
7,1695741294039,-0.23120117,-0.9602661,0.28460693,-1.703125,0.140625,-1.015625
8,1695741294079,-0.23168945,-0.95562744,0.2982788,-1.8125,0.15625,-0.65625
9,1695741294120,-0.23388672,-0.95440674,0.29119873,-2.015625,0.09375,-0.625
10,1695741294159,-0.23803711,-0.9487915,0.2909546,-1.4375,0.75,-0.921875
11,1695741294199,-0.23730469,-0.9578247,0.30291748,-2.0625,0.21875,-0.53125
12,1695741294239,-0.23901367,-0.9487915,0.29803467,-1.09375,-0.0625,-0.421875
13,1695741294279,-0.23095703,-0.9483032,0.29510498,-1.125,0.0,-0.390625
14,1695741294319,-0.23706055,-0.9480591,0.2970581,-1.84375,0.578125,-0.984375
15,1695741294361,-0.2409668,-0.95098877,0.30438232,-1.515625,-0.296875,-0.1875
16,1695741294400,-0.23120117,-0.94610596,0.30267334,-1.4375,-0.046875,-0.609375
17,1695741294442,-0.22729492,-0.942688,0.293396,-1.40625,0.328125,-0.765625
18,1695741294483,-0.23535156,-0.9458618,0.30194092,-2.3125,0.203125,-0.921875
19,1695741294521,-0.24194336,-0.9505005,0.30267334,-0.953125,0.1875,-0.125
20,1695741294563,-0.23535156,-0.95025635,0.30291748,-1.6875,-0.421875,-0.859375
21,1695741294601,-0.22973633,-0.9470825,0.31243896,-2.453125,0.34375,-1.234375
22,1695741294642,-0.24707031,-0.94976807,0.31341553,-4.125,0.3125,-1.4375
23,1695741294685,-0.24707031,-0.94244385,0.3139038,-1.796875,-0.671875,-0.390625
24,1695741294722,-0.23608398,-0.9421997,0.31658936,-1.875,0.203125,-1.046875
25,1695741294742,-0.2434082,-0.9470825,0.31365967,-2.90625,0.203125,-1.046875
26,1695741294783,-0.25097656,-0.94000244,0.31365967,-1.890625,-0.4375,-0.90625
27,1695741294821,-0.24511719,-0.954895,0.32391357,-2.203125,-0.5625,-0.671875
28,1695741294865,-0.2434082,-0.9417114,0.32611084,-2.484375,0.15625,-1.265625
29,1695741294902,-0.25878906,-0.94244385,0.32366943,-1.578125,-0.0625,-0.828125
30,1695741294946,-0.24560547,-0.9429321,0.32562256,-2.703125,-1.078125,-0.75
31,1695741294982,-0.23999023,-0.94244385,0.3258667,-1.921875,0.328125,-0.53125
32,1695741295024,-0.25268555,-0.94195557,0.32635498,-1.84375,0.15625,-0.921875
33,1695741295061,-0.25439453,-0.9421997,0.3287964,-1.578125,-0.4375,-0.578125
34,1695741295102,-0.24316406,-0.9331665,0.33392334,-0.9375,0.09375,-0.546875
35,1695741295144,-0.24682617,-0.9414673,0.3287964,-2.390625,0.640625,-0.421875
36,1695741295183,-0.24267578,-0.9314575,0.33416748,-2.703125,0.359375,-1.65625
37,1695741295223,-0.26391602,-0.93292236,0.34197998,-3.375,0.453125,-1.234375
38,1695741295263,-0.25268555,-0.9351196,0.3427124,-0.625,-0.671875,0.03125
39,1695741295302,-0.2446289,-0.9417114,0.33953857,-1.390625,0.125,-0.421875
40,1695741295341,-0.24902344,-0.9439087,0.34490967,-1.5625,-0.03125,-0.75
41,1695741295382,-0.25390625,-0.93414307,0.33807373,-0.84375,-0.09375,-0.640625
42,1695741295421,-0.25610352,-0.93707275,0.34417725,-1.296875,0.65625,-0.546875
43,1695741295463,-0.2614746,-0.9290161,0.3456421,-0.578125,0.078125,-0.703125
44,1695741295507,-0.25952148,-0.93829346,0.33953857,-0.796875,-0.140625,-0.28125
45,1695741295543,-0.2541504,-0.9326782,0.3444214,-0.734375,-0.125,-0.234375
46,1695741295582,-0.25756836,-0.9380493,0.3414917,-0.59375,-0.046875,-0.109375
47,1695741295622,-0.24853516,-0.9336548,0.34490967,-1.0,0.171875,-0.6875
48,1695741295661,-0.25585938,-0.93927,0.34051514,-1.203125,0.28125,-0.40625
49,1695741295703,-0.25048828,-0.9404907,0.34295654,0.25,0.046875,-0.4375
50,1695741295744,-0.26098633,-0.9336548,0.34490967,-1.03125,0.40625,-0.125
51,1695741295782,-0.24438477,-0.93292236,0.3456421,-1.6875,-0.078125,-1.09375
52,1695741295823,-0.2685547,-0.9282837,0.34661865,-2.859375,0.71875,-1.28125
53,1695741295863,-0.2680664,-0.9314575,0.35198975,0.53125,-0.453125,0.109375
54,1695741295902,-0.25732422,-0.93585205,0.3439331,-0.609375,0.4375,-0.4375
55,1695741295965,-0.25097656,-0.9365845,0.35003662,-0.734375,0.078125,-0.453125
56,1695741295968,-0.2578125,-0.9365845,0.3456421,0.84375,0.203125,-0.171875
57,1695741296008,-0.26538086,-0.93536377,0.34661865,-0.046875,0.265625,0.140625
58,1695741296042,-0.25830078,-0.9273071,0.3307495,0.078125,-0.5,-0.296875
59,1695741296084,-0.2565918,-0.93341064,0.33514404,-0.5625,0.015625,0.03125
60,1695741296125,-0.2536621,-0.9338989,0.3456421,-0.78125,-0.125,-0.046875
61,1695741296162,-0.2626953,-0.93170166,0.33392334,0.21875,0.578125,0.109375
62,1695741296200,-0.2524414,-0.93707275,0.3373413,0.0625,-0.171875,-0.109375
63,1695741296240,-0.2548828,-0.93096924,0.34197998,-1.671875,0.40625,-0.84375
64,1695741296281,-0.26586914,-0.93829346,0.33953857,0.1875,-0.015625,0.015625
65,1695741296321,-0.24633789,-0.9373169,0.3390503,-0.546875,-0.390625,-0.1875
66,1695741296359,-0.25073242,-0.93463135,0.338562,-0.125,0.625,-0.015625
67,1695741296400,-0.24975586,-0.9319458,0.3319702,-1.0625,0.921875,-1.03125
68,1695741296439,-0.26879883,-0.9324341,0.3444214,-2.09375,0.625,-0.578125
69,1695741296480,-0.2614746,-0.9380493,0.340271,0.84375,-0.609375,0.265625
70,1695741296520,-0.24853516,-0.93341064,0.338562,-1.09375,0.171875,-0.765625
71,1695741296560,-0.26098633,-0.9326782,0.33929443,-0.4375,0.46875,-0.703125
72,1695741296601,-0.26000977,-0.9365845,0.34490967,-0.421875,0.171875,-0.09375
73,1695741296640,-0.25585938,-0.9434204,0.34100342,0.296875,-0.09375,-0.140625
74,1695741296681,-0.25708008,-0.92852783,0.3348999,-0.984375,0.5,-0.890625
75,1695741296724,-0.25854492,-0.93927,0.33514404,-1.328125,-0.015625,-0.21875
76,1695741296785,-0.2524414,-0.9360962,0.3414917,-1.578125,0.03125,-0.421875
77,1695741296802,-0.25854492,-0.93170166,0.34881592,0.25,0.09375,-0.015625
78,1695741296843,-0.26098633,-0.9404907,0.32684326,-0.921875,-0.28125,-0.28125
79,1695741296884,-0.2602539,-0.9314575,0.34417725,-1.78125,0.25,-0.4375
80,1695741296924,-0.2602539,-0.9417114,0.34368896,0.390625,-0.046875,0.296875
81,1695741296962,-0.2512207,-0.9368286,0.33953857,-0.75,0.0625,-0.078125
82,1695741297001,-0.25073242,-0.9368286,0.33831787,0.046875,-0.09375,-0.0625
83,1695741297041,-0.2548828,-0.9307251,0.34246826,-1.421875,0.6875,-0.59375
84,1695741297079,-0.26513672,-0.9385376,0.3444214,-0.15625,-0.328125,0.28125
85,1695741297121,-0.25610352,-0.9360962,0.33685303,0.5625,-0.109375,0.1875
86,1695741297161,-0.25463867,-0.94415283,0.33636475,-0.0625,0.109375,-0.09375
87,1695741297187,-0.2512207,-0.93536377,0.3414917,0.453125,0.09375,-0.03125
88,1695741297220,-0.25952148,-0.94366455,0.33270264,0.203125,-0.0625,0.21875
89,1695741297261,-0.25732422,-0.9378052,0.34320068,0.65625,0.328125,-0.203125
90,1695741297299,-0.25756836,-0.94659424,0.33441162,0.5,0.015625,0.265625
91,1695741297340,-0.25585938,-0.9378052,0.32757568,-0.328125,-0.390625,-0.25
92,1695741297381,-0.2529297,-0.92974854,0.32684326,0.96875,0.421875,0.234375
93,1695741297420,-0.25146484,-0.9434204,0.32684326,0.40625,-0.078125,0.0625
94,1695741297459,-0.24414062,-0.9397583,0.32611084,-0.71875,0.65625,-0.484375
95,1695741297499,-0.25561523,-0.93927,0.32977295,0.96875,0.078125,0.390625
96,1695741297541,-0.2529297,-0.9331665,0.3204956,0.078125,0.03125,-0.234375
97,1695741297582,-0.24829102,-0.93927,0.32513428,-0.5,-0.015625,0.03125
98,1695741297624,-0.24365234,-0.9456177,0.3217163,-1.296875,0.640625,-0.375
99,1695741297661,-0.25854492,-0.940979,0.32904053,0.328125,0.015625,0.015625
100,1695741297721,-0.25048828,-0.94073486,0.3192749,0.40625,0.3125,0.53125
101,1695741297742,-0.25,-0.9446411,0.31658936,-0.328125,0.0625,-0.109375
102,1695741297785,-0.25708008,-0.9336548,0.32000732,-0.1875,0.453125,-0.34375
103,1695741297825,-0.25073242,-0.9475708,0.3258667,0.875,0.046875,0.5625
104,1695741297863,-0.24438477,-0.93707275,0.3192749,-0.109375,0.359375,0.15625
105,1695741297903,-0.2529297,-0.940979,0.31195068,0.0,0.828125,0.078125
106,1695741297944,-0.24804688,-0.94610596,0.3114624,-0.046875,-0.671875,0.234375
107,1695741297983,-0.24609375,-0.9414673,0.3222046,-0.515625,0.328125,-0.0625
108,1695741298024,-0.25439453,-0.9500122,0.3151245,0.921875,0.59375,0.125
109,1695741298062,-0.24731445,-0.94659424,0.3085327,-1.0625,0.03125,-0.140625
110,1695741298103,-0.2541504,-0.93292236,0.3192749,-0.21875,0.796875,0.265625
111,1695741298142,-0.24438477,-0.94415283,0.31854248,0.9375,0.203125,0.1875
112,1695741298181,-0.24951172,-0.93829346,0.3012085,-0.875,0.171875,-0.453125
113,1695741298220,-0.24194336,-0.9451294,0.3180542,-0.125,0.046875,-0.25
114,1695741298266,-0.24584961,-0.9483032,0.31463623,-1.9375,0.3125,-0.53125
115,1695741298301,-0.24316406,-0.9378052,0.3156128,0.375,-0.203125,0.390625
116,1695741298342,-0.24145508,-0.93878174,0.30291748,-0.5625,0.34375,-0.59375
117,1695741298403,-0.25,-0.94659424,0.30194092,-1.828125,0.203125,-0.75
118,1695741298420,-0.2524414,-0.9456177,0.3163452,-0.21875,0.078125,-0.125
119,1695741298444,-0.24731445,-0.9402466,0.32269287,-0.671875,-0.0625,0.0
120,1695741298485,-0.2487793,-0.9404907,0.30828857,-1.09375,0.625,-0.765625
121,1695741298522,-0.2548828,-0.94976807,0.31219482,-0.703125,-0.046875,-0.015625
122,1695741298562,-0.24584961,-0.9505005,0.31781006,-1.3125,0.046875,0.015625
123,1695741298601,-0.24804688,-0.94366455,0.32147217,-0.515625,0.296875,-0.203125
124,1695741298642,-0.24829102,-0.9475708,0.30999756,-1.40625,0.125,-0.5
125,1695741298685,-0.24316406,-0.942688,0.31610107,-1.375,0.34375,-0.28125
126,1695741298722,-0.25048828,-0.9470825,0.31854248,-1.078125,0.109375,-0.046875
127,1695741298764,-0.25024414,-0.9458618,0.3156128,-1.875,-0.1875,-0.8125
128,1695741298802,-0.2512207,-0.9434204,0.3163452,-1.90625,0.359375,-0.328125
129,1695741298841,-0.24975586,-0.95147705,0.31854248,-3.515625,0.40625,-1.140625
130,1695741298883,-0.25610352,-0.93829346,0.32781982,-2.390625,-0.28125,-0.5
131,1695741298924,-0.24365234,-0.9404907,0.32196045,-1.421875,0.1875,-0.453125
132,1695741298964,-0.24975586,-0.9404907,0.32318115,-2.53125,0.3125,-1.015625
133,1695741299002,-0.25219727,-0.93878174,0.32855225,-1.671875,0.25,-0.75
134,1695741299042,-0.25610352,-0.93927,0.33807373,-1.40625,-0.140625,-0.40625
135,1695741299083,-0.2512207,-0.94000244,0.3336792,-1.171875,0.203125,-0.640625
136,1695741299123,-0.26098633,-0.93829346,0.3287964,-1.546875,0.25,-0.75
137,1695741299166,-0.25097656,-0.9417114,0.33294678,-1.140625,-0.40625,-0.21875
138,1695741299205,-0.24829102,-0.92974854,0.33343506,-1.15625,0.109375,-0.375
139,1695741299243,-0.25610352,-0.93585205,0.33099365,-0.96875,-0.09375,-0.375
140,1695741299283,-0.25,-0.93951416,0.3324585,-1.875,0.3125,-0.8125
141,1695741299322,-0.25561523,-0.9356079,0.3378296,-1.71875,0.109375,-0.703125
142,1695741299362,-0.25268555,-0.9421997,0.34466553,-0.6875,-0.015625,-0.375
143,1695741299403,-0.25512695,-0.93878174,0.3319702,-1.890625,-0.046875,-0.71875
144,1695741299442,-0.24975586,-0.93585205,0.338562,-1.5625,0.015625,-0.8125
145,1695741299483,-0.25585938,-0.9356079,0.338562,-3.921875,1.03125,-1.53125
146,1695741299525,-0.26342773,-0.92974854,0.3456421,-0.484375,-0.453125,0.140625
147,1695741299562,-0.25219727,-0.9365845,0.3390503,-1.171875,0.0,-0.578125
148,1695741299603,-0.26098633,-0.93048096,0.34490967,-1.6875,0.296875,-0.921875
149,1695741299643,-0.26245117,-0.9421997,0.3468628,-0.8125,-0.046875,-0.359375
150,1695741299662,-0.2578125,-0.9360962,0.35076904,-0.984375,-0.015625,-0.359375
151,1695741299703,-0.2565918,-0.928772,0.35150146,-1.03125,0.28125,-0.75
152,1695741299742,-0.26611328,-0.9282837,0.3451538,-0.921875,0.421875,-0.4375
153,1695741299785,-0.25976562,-0.9373169,0.3480835,-1.546875,-0.34375,-0.1875
154,1695741299822,-0.26123047,-0.93341064,0.35491943,-1.109375,0.625,-0.53125
155,1695741299862,-0.2602539,-0.93048096,0.3439331,-0.625,0.015625,-0.28125
156,1695741299903,-0.26171875,-0.93634033,0.34539795,-1.46875,0.171875,-0.53125
157,1695741299943,-0.25756836,-0.93634033,0.3480835,-0.84375,0.0625,-0.375
158,1695741299984,-0.2668457,-0.9273071,0.35614014,-2.03125,0.21875,-0.609375
159,1695741300025,-0.26538086,-0.93951416,0.34954834,-0.21875,-0.140625,0.0
160,1695741300065,-0.26660156,-0.9258423,0.3468628,-1.046875,-0.09375,-0.453125
161,1695741300102,-0.25756836,-0.9324341,0.35321045,-0.75,0.21875,-0.21875
162,1695741300141,-0.25732422,-0.93292236,0.34735107,-3.09375,0.84375,-1.453125
163,1695741300185,-0.27368164,-0.92926025,0.35760498,-1.5,0.34375,-0.234375
164,1695741300222,-0.25146484,-0.9326782,0.34906006,-0.296875,-0.03125,-0.09375
165,1695741300265,-0.265625,-0.92974854,0.36175537,-1.328125,0.5625,-0.78125
166,1695741300306,-0.26586914,-0.93096924,0.35028076,-0.53125,-0.140625,-0.484375
167,1695741300340,-0.26904297,-0.923645,0.35491943,-0.703125,0.125,-0.421875
168,1695741300382,-0.26342773,-0.9282837,0.3517456,-0.90625,0.65625,-0.640625
169,1695741300423,-0.2644043,-0.9282837,0.3529663,-0.515625,0.0625,-0.6875
170,1695741300462,-0.26489258,-0.9338989,0.3554077,-0.71875,-0.265625,-0.0625
171,1695741300504,-0.2541504,-0.92388916,0.3600464,-0.640625,0.265625,-0.15625
172,1695741300545,-0.26049805,-0.93170166,0.35516357,-1.0,0.515625,-0.28125
173,1695741300582,-0.26342773,-0.9295044,0.35125732,-0.578125,0.03125,-0.1875
174,1695741300625,-0.2607422,-0.92926025,0.36175537,-0.9375,0.375,-0.328125
175,1695741300663,-0.2668457,-0.92926025,0.3612671,-0.984375,0.09375,-0.40625
176,1695741300702,-0.26464844,-0.92803955,0.355896,-0.328125,0.234375,-0.078125
177,1695741300744,-0.26538086,-0.9265747,0.35809326,-1.015625,-0.09375,-0.265625
178,1695741300782,-0.26416016,-0.9248657,0.35809326,-0.375,0.078125,-0.1875
179,1695741300822,-0.26538086,-0.9260864,0.35565186,-0.5625,0.328125,-0.28125
180,1695741300864,-0.27124023,-0.92852783,0.3522339,-1.0,0.046875,-0.265625
181,1695741300882,-0.25585938,-0.9299927,0.3632202,0.421875,0.125,-0.21875
182,1695741300923,-0.25805664,-0.92388916,0.34979248,-0.890625,0.265625,-0.21875
183,1695741300963,-0.25219727,-0.9336548,0.35736084,0.40625,-0.265625,-0.515625
184,1695741301003,-0.26708984,-0.9290161,0.35321045,-2.578125,1.0625,-0.65625
185,1695741301043,-0.26513672,-0.9221802,0.36541748,0.78125,-0.390625,0.453125
186,1695741301091,-0.2631836,-0.9302368,0.35491943,-0.1875,0.03125,-0.359375
187,1695741301122,-0.2614746,-0.9307251,0.35516357,0.0,0.21875,-0.125
188,1695741301162,-0.26635742,-0.9282837,0.35076904,0.859375,-0.03125,0.0625
189,1695741301204,-0.2631836,-0.93170166,0.34881592,0.234375,-0.296875,0.171875
190,1695741301243,-0.2602539,-0.9312134,0.35247803,0.65625,-0.078125,-0.125
191,1695741301284,-0.27124023,-0.928772,0.35882568,0.125,0.421875,0.015625
192,1695741301325,-0.26171875,-0.9390259,0.34002686,0.46875,-0.359375,0.234375
193,1695741301368,-0.2565918,-0.9260864,0.34368896,0.28125,0.21875,-0.078125
194,1695741301403,-0.26831055,-0.9299927,0.3475952,0.75,0.40625,0.15625
195,1695741301443,-0.26464844,-0.9365845,0.33929443,0.375,0.21875,0.171875
196,1695741301484,-0.25732422,-0.9324341,0.3361206,0.0,-0.09375,0.25
197,1695741301524,-0.2614746,-0.9314575,0.33319092,1.171875,0.296875,0.328125
198,1695741301567,-0.2631836,-0.93707275,0.3414917,0.4375,0.1875,0.265625
199,1695741301602,-0.25927734,-0.93414307,0.33148193,1.09375,0.0,0.390625
200,1695741301644,-0.25512695,-0.9397583,0.3373413,0.0625,0.15625,0.09375
201,1695741301686,-0.25708008,-0.93829346,0.3312378,1.109375,0.203125,0.703125
202,1695741301726,-0.25512695,-0.93707275,0.324646,1.234375,0.015625,0.34375
203,1695741301762,-0.25048828,-0.9343872,0.3270874,0.65625,0.6875,0.484375
204,1695741301804,-0.2541504,-0.9434204,0.32513428,-0.359375,0.578125,-0.40625
205,1695741301843,-0.25610352,-0.9397583,0.3234253,-0.046875,-0.234375,0.140625
206,1695741301882,-0.25073242,-0.9421997,0.3283081,1.234375,0.53125,0.625
207,1695741301923,-0.25170898,-0.94537354,0.32196045,-0.1875,0.125,-0.28125
208,1695741301964,-0.25585938,-0.9421997,0.32196045,0.65625,0.484375,0.03125
209,1695741302001,-0.25708008,-0.93927,0.31658936,1.25,0.0625,0.234375
210,1695741302043,-0.25219727,-0.9421997,0.32147217,0.34375,0.015625,0.28125
211,1695741302083,-0.25732422,-0.93829346,0.31976318,0.578125,0.484375,-0.046875
212,1695741302102,-0.25024414,-0.9463501,0.31585693,0.46875,-0.21875,0.328125
213,1695741302143,-0.2409668,-0.9368286,0.31365967,0.15625,0.109375,0.09375
214,1695741302181,-0.24804688,-0.93878174,0.31781006,0.5625,0.171875,-0.015625
215,1695741302221,-0.2565918,-0.942688,0.30511475,-0.15625,-0.015625,0.125
216,1695741302262,-0.2475586,-0.94366455,0.307312,0.265625,0.265625,-0.0625
217,1695741302304,-0.2512207,-0.94976807,0.30291748,0.0,-0.03125,0.109375
218,1695741302343,-0.24414062,-0.94000244,0.3078003,-0.359375,0.390625,-0.15625
219,1695741302383,-0.24853516,-0.9475708,0.30633545,-0.203125,0.046875,-0.09375
220,1695741302425,-0.2397461,-0.93927,0.30950928,-0.484375,-0.0625,-0.375
221,1695741302462,-0.24560547,-0.94610596,0.30706787,-0.53125,0.546875,-0.109375
222,1695741302502,-0.2475586,-0.9507446,0.30413818,-1.65625,0.546875,-0.65625
223,1695741302541,-0.25,-0.9439087,0.3126831,-0.921875,-0.234375,-0.34375
224,1695741302587,-0.2434082,-0.9414673,0.30706787,-0.75,0.15625,-0.25
225,1695741302622,-0.25170898,-0.94244385,0.2994995,-1.125,0.453125,-0.625
226,1695741302665,-0.24243164,-0.9451294,0.30291748,-1.484375,-0.125,-0.546875
227,1695741302704,-0.24658203,-0.9480591,0.31072998,-0.765625,0.328125,-0.34375
228,1695741302743,-0.24804688,-0.94195557,0.30975342,-0.484375,0.140625,-0.125
229,1695741302785,-0.24951172,-0.94976807,0.30560303,-1.71875,0.578125,-0.796875
230,1695741302825,-0.25170898,-0.94366455,0.3222046,-0.84375,-0.125,-0.1875
231,1695741302862,-0.24121094,-0.94659424,0.3078003,-1.734375,-0.15625,-0.28125
232,1695741302903,-0.24145508,-0.94659424,0.3151245,-0.8125,0.5,-0.4375
233,1695741302942,-0.24536133,-0.9402466,0.31170654,-1.78125,0.125,-0.453125
234,1695741302981,-0.2512207,-0.94195557,0.309021,-2.6875,0.140625,-0.765625
235,1695741303020,-0.24829102,-0.940979,0.32025146,-2.078125,0.171875,-0.578125
236,1695741303062,-0.2487793,-0.94488525,0.31610107,-2.125,-0.125,-0.46875
237,1695741303099,-0.25170898,-0.93536377,0.31658936,-2.375,-0.1875,-0.890625
238,1695741303141,-0.24267578,-0.9468384,0.33148193,-2.015625,0.328125,-0.875
239,1695741303179,-0.2548828,-0.9483032,0.32733154,-4.1875,0.640625,-1.390625
240,1695741303224,-0.26171875,-0.93634033,0.33221436,-2.453125,-0.484375,-0.53125
241,1695741303260,-0.24731445,-0.93756104,0.33392334,-2.109375,-0.421875,-0.640625
242,1695741303321,-0.25097656,-0.944397,0.33050537,-3.3125,0.421875,-1.34375
243,1695741303323,-0.25512695,-0.9365845,0.3444214,-1.71875,0.109375,-0.671875
244,1695741303361,-0.25683594,-0.9368286,0.3444214,-1.1875,0.34375,-0.671875
245,1695741303402,-0.25976562,-0.93170166,0.34197998,-2.046875,0.046875,-0.84375
246,1695741303440,-0.25830078,-0.9378052,0.33685303,-2.375,-0.046875,-1.171875
247,1695741303480,-0.2626953,-0.9351196,0.3451538,-1.671875,-0.015625,-0.34375
248,1695741303519,-0.25830078,-0.93341064,0.34539795,-1.15625,-0.09375,-0.5625
249,1695741303560,-0.25976562,-0.9365845,0.3444214,-1.34375,0.265625,-0.84375
250,1695741303600,-0.26123047,-0.9356079,0.3451538,-1.6875,0.296875,-0.84375
251,1695741303639,-0.2536621,-0.92510986,0.34588623,-1.609375,0.328125,-0.8125
252,1695741303679,-0.26342773,-0.9360962,0.34857178,-1.359375,0.046875,-0.3125
253,1695741303721,-0.26098633,-0.9299927,0.3529663,-0.90625,0.359375,-0.578125
254,1695741303760,-0.26611328,-0.9368286,0.3468628,-1.125,-0.140625,-0.28125
255,1695741303798,-0.25878906,-0.9260864,0.34320068,-2.8125,0.5,-1.390625
256,1695741303839,-0.2692871,-0.92510986,0.35858154,-2.484375,0.5,-0.828125
257,1695741303880,-0.2668457,-0.9307251,0.3583374,-0.6875,-0.296875,0.078125
258,1695741303919,-0.26367188,-0.9331665,0.35760498,-1.171875,0.21875,-0.5
259,1695741303959,-0.2685547,-0.9258423,0.35614014,-0.75,0.15625,-0.5
260,1695741304000,-0.2705078,-0.92803955,0.354187,-0.9375,0.28125,-0.34375
261,1695741304039,-0.2680664,-0.9348755,0.35687256,-0.890625,0.28125,-0.25
262,1695741304080,-0.26831055,-0.92633057,0.35736084,-0.59375,0.359375,-0.75
263,1695741304119,-0.2709961,-0.9319458,0.35076904,-0.75,0.0625,-0.171875
264,1695741304159,-0.25976562,-0.9319458,0.35736084,-0.734375,-0.203125,0.0
265,1695741304199,-0.26708984,-0.9302368,0.35614014,-1.0625,0.546875,-0.40625
266,1695741304240,-0.26391602,-0.92633057,0.35809326,-0.40625,-0.0625,-0.203125
267,1695741304280,-0.25854492,-0.92803955,0.35516357,-1.03125,0.328125,-0.265625
268,1695741304319,-0.2685547,-0.92633057,0.35565186,-1.203125,0.203125,-0.625
269,1695741304360,-0.25952148,-0.93218994,0.35394287,-0.375,0.0625,0.0
270,1695741304401,-0.26635742,-0.92266846,0.35809326,-1.09375,0.296875,-0.4375
271,1695741304440,-0.26245117,-0.93048096,0.36297607,-0.234375,-0.203125,0.0
272,1695741304480,-0.25830078,-0.9258423,0.35394287,-2.640625,1.03125,-1.1875
273,1695741304519,-0.2763672,-0.92681885,0.36395264,-1.3125,-0.09375,-0.078125
274,1695741304539,-0.2524414,-0.92926025,0.35491943,-0.390625,-0.078125,0.09375
275,1695741304580,-0.25805664,-0.92437744,0.3554077,-1.015625,0.515625,-0.59375
276,1695741304621,-0.26733398,-0.92266846,0.36224365,-0.703125,0.421875,-0.4375
277,1695741304660,-0.27929688,-0.92681885,0.3649292,-0.359375,0.140625,-0.25
278,1695741304701,-0.265625,-0.92681885,0.36590576,-0.734375,0.03125,-0.046875
279,1695741304740,-0.2692871,-0.9302368,0.35980225,-0.171875,0.265625,-0.28125
280,1695741304784,-0.27001953,-0.9295044,0.35784912,-0.46875,0.046875,-0.078125
281,1695741304820,-0.2602539,-0.9282837,0.36468506,-0.4375,-0.359375,0.015625
282,1695741304859,-0.26342773,-0.9314575,0.35443115,-0.34375,0.546875,-0.359375
283,1695741304900,-0.2668457,-0.9336548,0.36029053,-0.0625,0.328125,-0.171875
284,1695741304939,-0.26831055,-0.92681885,0.355896,0.140625,0.359375,0.078125
285,1695741304979,-0.25952148,-0.9314575,0.35443115,-0.390625,-0.171875,-0.15625
286,1695741305019,-0.26489258,-0.92510986,0.3583374,0.21875,0.53125,-0.03125
287,1695741305059,-0.25708008,-0.93414307,0.37005615,1.5,0.59375,0.421875
288,1695741305100,-0.26489258,-0.9312134,0.33807373,0.453125,-0.359375,0.453125
289,1695741305141,-0.24951172,-0.9338989,0.35101318,0.671875,0.640625,-0.4375
290,1695741305179,-0.26367188,-0.9302368,0.35614014,-1.21875,1.34375,-0.1875
291,1695741305219,-0.25854492,-0.93463135,0.35003662,2.171875,-0.46875,1.015625
292,1695741305263,-0.25390625,-0.9351196,0.34246826,1.171875,0.28125,0.25
293,1695741305299,-0.2602539,-0.9319458,0.3397827,0.796875,0.421875,0.03125
294,1695741305339,-0.26049805,-0.9314575,0.34100342,1.453125,0.3125,0.5
295,1695741305379,-0.26391602,-0.9365845,0.3397827,0.765625,-0.171875,0.78125
296,1695741305419,-0.2487793,-0.93414307,0.33319092,1.0,0.234375,0.09375
297,1695741305459,-0.2602539,-0.93341064,0.3427124,0.953125,0.5,0.28125
298,1695741305499,-0.25732422,-0.9397583,0.32684326,0.96875,0.015625,0.875
299,1695741305539,-0.24414062,-0.93585205,0.32855225,0.859375,0.109375,0.390625
300,1695741305578,-0.25317383,-0.93707275,0.33416748,1.46875,0.59375,0.46875
301,1695741305619,-0.2524414,-0.9429321,0.32244873,0.640625,0.046875,0.484375
302,1695741305659,-0.25219727,-0.9421997,0.32391357,0.5625,0.3125,0.21875
303,1695741305699,-0.25170898,-0.9404907,0.32562256,0.46875,0.59375,0.125
304,1695741305759,-0.25048828,-0.94732666,0.3143921,0.484375,-0.171875,0.546875
305,1695741305778,-0.24633789,-0.9302368,0.32196045,0.078125,0.09375,-0.25
306,1695741305800,-0.24682617,-0.9487915,0.32000732,-0.546875,0.234375,0.234375
307,1695741305840,-0.24707031,-0.94415283,0.3204956,-1.484375,0.5,-0.578125
308,1695741305878,-0.25439453,-0.94537354,0.32318115,-0.078125,-0.03125,0.140625
309,1695741305918,-0.2368164,-0.94488525,0.31707764,0.09375,-0.140625,-0.03125
310,1695741305959,-0.2446289,-0.94488525,0.3143921,-1.03125,0.484375,-0.671875
311,1695741305998,-0.25170898,-0.93927,0.3209839,-0.46875,0.0625,-0.296875
312,1695741306039,-0.2446289,-0.94537354,0.31951904,-0.046875,-0.09375,0.03125
313,1695741306079,-0.24804688,-0.94610596,0.3163452,-0.421875,0.21875,-0.125
314,1695741306118,-0.25146484,-0.9390259,0.3168335,-0.5,0.46875,-0.5
315,1695741306158,-0.24633789,-0.94781494,0.31610107,-0.421875,-0.21875,0.21875
316,1695741306199,-0.24658203,-0.9421997,0.31414795,-0.484375,-0.140625,-0.234375
317,1695741306241,-0.24609375,-0.9429321,0.32025146,-0.21875,0.640625,-0.34375
318,1695741306278,-0.24658203,-0.9451294,0.3168335,-0.75,-0.125,-0.109375
319,1695741306319,-0.24633789,-0.93756104,0.3192749,-1.078125,0.296875,-0.515625
320,1695741306358,-0.25097656,-0.9458618,0.32000732,-0.53125,0.109375,-0.109375
321,1695741306399,-0.24389648,-0.9434204,0.3139038,-0.84375,0.265625,-0.59375
322,1695741306439,-0.24804688,-0.9429321,0.31732178,-0.875,0.40625,-0.390625
323,1695741306478,-0.24267578,-0.9421997,0.31781006,-1.546875,0.328125,-0.921875
324,1695741306518,-0.2553711,-0.94244385,0.3270874,-2.25,0.40625,-0.671875
325,1695741306559,-0.25048828,-0.940979,0.32659912,-0.78125,-0.359375,0.0
326,1695741306599,-0.24414062,-0.9397583,0.32025146,-1.90625,0.71875,-0.890625
327,1695741306639,-0.25146484,-0.9446411,0.32391357,-2.171875,0.203125,-0.96875
328,1695741306679,-0.25195312,-0.94073486,0.3209839,-0.78125,-0.109375,-0.5
329,1695741306718,-0.2446289,-0.94415283,0.32806396,-1.671875,-0.109375,-0.265625
330,1695741306759,-0.2487793,-0.93170166,0.32391357,-1.484375,0.546875,-0.953125
331,1695741306799,-0.25341797,-0.9402466,0.33050537,-1.8125,0.125,-0.375
332,1695741306838,-0.24951172,-0.9326782,0.33685303,-1.796875,-0.34375,-0.34375
333,1695741306878,-0.24902344,-0.928772,0.33392334,-1.375,0.359375,-0.703125
334,1695741306918,-0.25268555,-0.93829346,0.3319702,-1.21875,0.0625,-0.390625
335,1695741306958,-0.2487793,-0.93341064,0.33172607,-2.15625,0.0,-0.71875
336,1695741307006,-0.25561523,-0.93585205,0.338562,-2.21875,0.375,-0.875
337,1695741307018,-0.25317383,-0.94244385,0.34197998,-1.265625,0.09375,-0.65625
338,1695741307059,-0.25683594,-0.93048096,0.33709717,-1.84375,-0.0625,-0.765625
339,1695741307098,-0.24389648,-0.93829346,0.33831787,-1.40625,-0.03125,-0.59375
340,1695741307141,-0.2578125,-0.94122314,0.34075928,-4.375,0.53125,-1.59375
341,1695741307180,-0.2626953,-0.9326782,0.34783936,-2.0625,-0.15625,-0.515625
342,1695741307219,-0.25439453,-0.93218994,0.34979248,-0.734375,-0.171875,-0.390625
343,1695741307258,-0.25830078,-0.93096924,0.34173584,-2.296875,0.328125,-1.0
344,1695741307299,-0.26391602,-0.9360962,0.34783936,-1.296875,-0.25,-0.78125
345,1695741307338,-0.2626953,-0.927063,0.34783936,-1.296875,0.078125,-0.53125
346,1695741307378,-0.2578125,-0.9324341,0.3517456,-1.203125,0.265625,-0.625
347,1695741307419,-0.26245117,-0.9348755,0.35394287,-1.5625,0.484375,-0.875
348,1695741307459,-0.25805664,-0.9326782,0.35443115,-1.125,-0.203125,-0.0625
349,1695741307503,-0.2578125,-0.9282837,0.35150146,-0.9375,0.0,-0.53125
350,1695741307542,-0.2644043,-0.9299927,0.35809326,-1.15625,0.421875,-0.5625
351,1695741307583,-0.26635742,-0.9319458,0.34906006,-0.453125,0.328125,-0.140625
352,1695741307620,-0.26098633,-0.93218994,0.35516357,-0.953125,0.078125,-0.390625
353,1695741307661,-0.25927734,-0.9265747,0.3546753,-1.59375,0.1875,-0.578125
354,1695741307701,-0.25878906,-0.9319458,0.354187,-0.703125,0.125,-0.109375
355,1695741307745,-0.26123047,-0.92193604,0.35198975,-1.171875,0.125,-0.6875
356,1695741307782,-0.2614746,-0.9302368,0.35516357,-0.125,0.25,0.171875
357,1695741307821,-0.25317383,-0.9273071,0.34783936,-3.03125,0.390625,-1.5
358,1695741307859,-0.2668457,-0.9260864,0.3673706,-1.953125,0.234375,-0.53125
359,1695741307899,-0.25756836,-0.9224243,0.35491943,-0.515625,-0.046875,-0.046875
360,1695741307941,-0.26123047,-0.9307251,0.36297607,-1.1875,0.515625,-0.71875
361,1695741307978,-0.26123047,-0.92681885,0.35638428,-0.4375,-0.03125,-0.5
362,1695741308020,-0.26123047,-0.9265747,0.35662842,-0.796875,0.125,-0.421875
363,1695741308060,-0.2631836,-0.9265747,0.3600464,-0.546875,0.4375,-0.421875
364,1695741308100,-0.25976562,-0.9277954,0.3632202,-1.0625,0.28125,-0.609375
365,1695741308145,-0.27392578,-0.9260864,0.36175537,-0.765625,-0.0625,-0.15625
366,1695741308180,-0.25927734,-0.92803955,0.3607788,-0.375,-0.328125,0.109375
367,1695741308219,-0.2590332,-0.92315674,0.36419678,-1.15625,0.328125,-0.4375
368,1695741308242,-0.27270508,-0.9326782,0.35369873,-0.390625,0.40625,-0.453125
369,1695741308278,-0.25854492,-0.928772,0.36566162,-1.015625,0.15625,-0.265625
370,1695741308320,-0.2607422,-0.9224243,0.3673706,-0.8125,0.09375,-0.34375
371,1695741308360,-0.2680664,-0.9258423,0.35882568,-0.421875,0.171875,-0.296875
372,1695741308403,-0.26538086,-0.9221802,0.3637085,-0.6875,-0.09375,-0.203125
373,1695741308440,-0.26220703,-0.9290161,0.35614014,-0.40625,0.203125,-0.296875
374,1695741308480,-0.26831055,-0.92974854,0.36395264,-1.078125,0.203125,-0.453125
375,1695741308519,-0.2607422,-0.9319458,0.35736084,-0.3125,-0.140625,-0.046875
376,1695741308563,-0.25976562,-0.92803955,0.36175537,-0.390625,0.375,-0.46875
377,1695741308601,-0.26220703,-0.93170166,0.35931396,0.25,-0.109375,0.28125
378,1695741308640,-0.26293945,-0.9277954,0.35125732,-1.6875,0.3125,-0.75
379,1695741308678,-0.26586914,-0.91778564,0.3619995,-0.484375,0.234375,-0.125
380,1695741308720,-0.26049805,-0.92974854,0.36541748,0.65625,-0.15625,0.421875
381,1695741308758,-0.25390625,-0.9343872,0.35736084,-0.359375,0.0625,-0.5625
382,1695741308799,-0.27148438,-0.9234009,0.35321045,0.421875,0.28125,-0.25
383,1695741308840,-0.26416016,-0.9246216,0.36102295,0.71875,-0.0625,0.109375
384,1695741308880,-0.26660156,-0.93170166,0.35638428,0.640625,0.0625,0.203125
385,1695741308923,-0.26171875,-0.9209595,0.3554077,1.203125,0.25,-0.234375
386,1695741308962,-0.26782227,-0.9351196,0.35614014,0.953125,0.296875,0.59375
387,1695741309000,-0.26098633,-0.93048096,0.3529663,1.921875,-0.015625,0.625
388,1695741309044,-0.25561523,-0.9307251,0.34344482,0.875,0.1875,0.203125
389,1695741309080,-0.25512695,-0.9348755,0.3451538,1.953125,0.3125,0.296875
390,1695741309120,-0.2602539,-0.9343872,0.33685303,0.828125,0.921875,0.3125
391,1695741309162,-0.26220703,-0.93634033,0.34173584,1.9375,0.265625,0.578125
392,1695741309202,-0.25805664,-0.9397583,0.338562,1.828125,0.375,0.46875
393,1695741309240,-0.25708008,-0.9282837,0.33221436,0.703125,0.015625,0.328125
394,1695741309283,-0.2553711,-0.93927,0.32806396,0.53125,-0.0625,0.546875
395,1695741309322,-0.24731445,-0.9390259,0.33148193,0.71875,0.046875,0.46875
396,1695741309363,-0.24633789,-0.94000244,0.3307495,0.6875,0.765625,0.109375
397,1695741309400,-0.25976562,-0.92926025,0.3204956,0.328125,0.140625,0.015625
398,1695741309464,-0.2548828,-0.9451294,0.32635498,0.296875,0.46875,0.21875
399,1695741309467,-0.25097656,-0.93951416,0.32757568,-0.59375,0.25,-0.125
400,1695741309502,-0.25317383,-0.94537354,0.32196045,0.984375,0.0625,0.5625
401,1695741309546,-0.24121094,-0.9397583,0.3151245,0.453125,-0.078125,-0.03125
402,1695741309582,-0.2529297,-0.9380493,0.31732178,0.0,0.390625,-0.078125
403,1695741309620,-0.2512207,-0.9373169,0.32391357,0.453125,-0.03125,-0.140625
404,1695741309660,-0.2565918,-0.94488525,0.3156128,0.484375,-0.40625,0.4375
405,1695741309699,-0.24609375,-0.93951416,0.3163452,0.0625,0.453125,-0.171875
406,1695741309739,-0.25390625,-0.93878174,0.31195068,0.25,0.4375,-0.03125
407,1695741309779,-0.25097656,-0.9458618,0.31707764,0.109375,-0.203125,0.484375
408,1695741309819,-0.24487305,-0.9365845,0.31707764,0.234375,0.328125,0.125
409,1695741309859,-0.24291992,-0.9421997,0.3139038,0.421875,-0.15625,0.328125
410,1695741309899,-0.2421875,-0.95025635,0.31170654,-0.6875,0.0625,-0.0625
411,1695741309942,-0.24853516,-0.940979,0.3102417,-0.46875,0.359375,0.046875
412,1695741310001,-0.24536133,-0.94854736,0.30999756,-0.25,0.1875,-0.140625
413,1695741310021,-0.24804688,-0.9495239,0.307312,-0.578125,0.296875,0.0
414,1695741310062,-0.24145508,-0.94488525,0.30194092,-0.125,0.171875,0.15625
415,1695741310103,-0.2434082,-0.9500122,0.30389404,-0.75,0.3125,-0.3125
416,1695741310143,-0.24072266,-0.9524536,0.31536865,-0.90625,0.28125,-0.171875
417,1695741310180,-0.24243164,-0.94537354,0.30926514,-2.03125,0.703125,-0.53125
418,1695741310220,-0.24731445,-0.9468384,0.3143921,0.203125,0.046875,0.046875
419,1695741310263,-0.24047852,-0.93927,0.3065796,-0.4375,0.609375,-0.28125
420,1695741310299,-0.24780273,-0.94781494,0.30096436,-0.546875,0.46875,-0.484375
421,1695741310342,-0.25463867,-0.94732666,0.31976318,0.109375,0.375,-0.125
422,1695741310384,-0.24536133,-0.9495239,0.3078003,0.015625,-0.296875,0.234375
423,1695741310423,-0.23999023,-0.94122314,0.30413818,-0.46875,0.015625,-0.203125
424,1695741310461,-0.24316406,-0.9439087,0.3085327,-1.0625,0.46875,-0.59375
425,1695741310503,-0.24487305,-0.9534302,0.30926514,-0.5625,-0.078125,0.03125
426,1695741310540,-0.24072266,-0.94610596,0.3085327,-1.0,-0.234375,-0.25
427,1695741310580,-0.24414062,-0.9429321,0.30755615,-0.4375,0.40625,-0.25
428,1695741310622,-0.24609375,-0.95196533,0.30316162,-1.25,0.28125,-0.390625
429,1695741310683,-0.24951172,-0.94537354,0.31341553,-0.796875,0.3125,-0.3125
430,1695741310702,-0.24633789,-0.94317627,0.31072998,-0.765625,0.15625,-0.3125
431,1695741310721,-0.24560547,-0.9507446,0.30804443,-0.875,-0.0625,-0.390625
432,1695741310760,-0.24560547,-0.9356079,0.30267334,-1.046875,0.234375,-0.65625
433,1695741310800,-0.23901367,-0.94659424,0.3156128,-1.484375,0.390625,-0.578125
434,1695741310841,-0.2475586,-0.94244385,0.31610107,-3.515625,0.375,-0.90625
435,1695741310880,-0.24243164,-0.94610596,0.31878662,-1.296875,-0.40625,-0.1875
436,1695741310924,-0.23950195,-0.94366455,0.31585693,-1.9375,0.5625,-0.640625
437,1695741310961,-0.25170898,-0.94244385,0.3143921,-2.15625,0.21875,-0.671875
438,1695741311000,-0.24951172,-0.94000244,0.324646,-1.859375,-0.296875,-0.8125
439,1695741311040,-0.24902344,-0.94366455,0.31951904,-1.203125,0.046875,-0.34375
440,1695741311080,-0.24487305,-0.9390259,0.31976318,-1.6875,0.109375,-0.734375
441,1695741311118,-0.25756836,-0.93756104,0.32440186,-1.34375,0.625,-0.6875
442,1695741311159,-0.25024414,-0.9434204,0.322937,-1.59375,-0.5,-0.3125
443,1695741311200,-0.23901367,-0.9368286,0.32611084,-1.96875,0.015625,-0.625
444,1695741311239,-0.25268555,-0.944397,0.32635498,-1.265625,0.109375,-0.421875
445,1695741311281,-0.2524414,-0.9421997,0.3241577,-2.15625,0.0,-0.734375
446,1695741311320,-0.2524414,-0.93170166,0.33294678,-1.875,0.375,-0.703125
447,1695741311359,-0.24926758,-0.9446411,0.32757568,-1.046875,-0.046875,-0.421875
448,1695741311398,-0.25732422,-0.93585205,0.33319092,-2.03125,0.234375,-0.703125
449,1695741311439,-0.25439453,-0.9434204,0.33172607,-1.234375,-0.234375,-0.328125
450,1695741311479,-0.24853516,-0.9365845,0.3312378,-3.3125,0.640625,-1.421875
451,1695741311519,-0.25805664,-0.93878174,0.34124756,-2.078125,0.25,-0.421875
452,1695741311558,-0.25,-0.9380493,0.34051514,-0.890625,-0.25,-0.1875
453,1695741311598,-0.2541504,-0.93341064,0.34002686,-1.546875,0.1875,-0.875
454,1695741311639,-0.25610352,-0.942688,0.3397827,-1.4375,-0.078125,-0.859375
455,1695741311678,-0.26416016,-0.9378052,0.3427124,-1.3125,0.078125,-0.453125
456,1695741311719,-0.25024414,-0.9360962,0.3366089,-1.171875,-0.140625,-0.46875
457,1695741311758,-0.25146484,-0.9299927,0.3427124,-1.59375,-0.015625,-0.96875
458,1695741311805,-0.2614746,-0.9324341,0.3444214,-1.546875,-0.0625,-0.5
459,1695741311839,-0.25732422,-0.9385376,0.3468628,-1.671875,-0.3125,-0.46875
460,1695741311899,-0.25830078,-0.93341064,0.35272217,-1.484375,0.328125,-0.65625
461,1695741311920,-0.26049805,-0.93463135,0.3439331,-1.171875,0.03125,-0.640625
462,1695741311942,-0.25463867,-0.92926025,0.34613037,-1.640625,0.125,-0.578125
463,1695741311980,-0.25878906,-0.9312134,0.35565186,-1.875,0.0625,-0.53125
464,1695741312020,-0.25927734,-0.9338989,0.35614014,-0.625,0.171875,-0.484375
465,1695741312061,-0.2607422,-0.92315674,0.34832764,-1.640625,-0.109375,-0.640625
466,1695741312102,-0.25854492,-0.93536377,0.35247803,-0.546875,-0.21875,-0.296875
467,1695741312144,-0.2553711,-0.93414307,0.3468628,-4.125,0.671875,-1.828125
468,1695741312192,-0.2692871,-0.9290161,0.35980225,-1.640625,0.140625,-0.0625
469,1695741312222,-0.25634766,-0.9312134,0.355896,-0.65625,-0.15625,-0.265625
470,1695741312263,-0.2590332,-0.928772,0.35931396,-1.34375,0.40625,-0.671875
471,1695741312300,-0.25732422,-0.92559814,0.3554077,-1.0625,0.03125,-0.640625
472,1695741312343,-0.2692871,-0.9324341,0.35272217,-0.9375,0.0,-0.390625
473,1695741312383,-0.2607422,-0.9295044,0.36517334,-0.8125,0.28125,-0.359375
474,1695741312423,-0.26831055,-0.9312134,0.3619995,-0.453125,0.5625,-0.671875
475,1695741312461,-0.26782227,-0.9299927,0.35614014,-0.96875,-0.265625,-0.1875
476,1695741312502,-0.26293945,-0.92974854,0.35760498,-0.6875,-0.0625,-0.109375
477,1695741312544,-0.25805664,-0.93096924,0.35784912,-0.734375,0.34375,-0.390625
478,1695741312582,-0.26416016,-0.9312134,0.35247803,-1.03125,0.171875,-0.328125
479,1695741312621,-0.25854492,-0.93096924,0.36297607,-1.03125,0.234375,-0.4375
480,1695741312662,-0.2565918,-0.9273071,0.35247803,-0.640625,0.078125,-0.375
481,1695741312702,-0.26245117,-0.92852783,0.35614014,-1.3125,0.140625,-0.65625
482,1695741312742,-0.2668457,-0.9312134,0.3619995,-0.9375,0.0625,-0.109375
483,1695741312786,-0.26342773,-0.9248657,0.36444092,-0.328125,0.234375,-0.53125
484,1695741312821,-0.26489258,-0.9307251,0.3522339,-0.546875,0.421875,0.015625
485,1695741312861,-0.25805664,-0.9336548,0.34979248,-1.671875,0.171875,-0.828125
486,1695741312901,-0.27148438,-0.92559814,0.36541748,-3.171875,0.375,-0.8125
487,1695741312943,-0.26831055,-0.92926025,0.37298584,0.421875,-0.0625,0.1875
488,1695741312981,-0.26782227,-0.928772,0.36517334,-1.0,0.1875,-0.484375
489,1695741313019,-0.26782227,-0.9277954,0.3624878,-0.875,-0.234375,-0.25
490,1695741313060,-0.26538086,-0.92803955,0.36175537,-0.21875,-0.015625,-0.1875
491,1695741313104,-0.25854492,-0.92803955,0.3600464,-0.359375,0.15625,-0.109375
492,1695741313140,-0.25878906,-0.9295044,0.36761475,-0.90625,0.46875,-0.796875
493,1695741313164,-0.27270508,-0.93096924,0.3619995,-0.21875,0.28125,-0.234375
494,1695741313202,-0.265625,-0.9277954,0.35369873,-0.625,-0.203125,0.234375
495,1695741313243,-0.2692871,-0.92559814,0.36590576,-0.640625,0.34375,-0.296875
496,1695741313283,-0.26123047,-0.92193604,0.3600464,-0.203125,0.3125,-0.15625
497,1695741313324,-0.25952148,-0.93170166,0.3619995,-1.265625,-0.015625,-0.234375
498,1695741313365,-0.26904297,-0.9246216,0.36102295,-0.171875,0.46875,-0.078125
499,1695741313402,-0.2631836,-0.9295044,0.35272217,-0.328125,0.0625,-0.1875
500,1695741313441,-0.2644043,-0.92510986,0.3649292,-1.53125,0.15625,-0.25
501,1695741313483,-0.265625,-0.92852783,0.3600464,0.203125,-0.015625,0.015625
502,1695741313524,-0.26635742,-0.92193604,0.3612671,-0.328125,0.234375,-0.34375
503,1695741313564,-0.2614746,-0.9336548,0.35858154,0.703125,0.328125,0.5625
504,1695741313602,-0.2614746,-0.9204712,0.35516357,-1.21875,0.78125,-1.09375
505,1695741313644,-0.2705078,-0.91973877,0.36468506,-1.109375,0.015625,0.0
506,1695741313684,-0.25561523,-0.9373169,0.36151123,0.96875,0.03125,0.375
507,1695741313725,-0.26049805,-0.9302368,0.3534546,-0.09375,0.046875,-0.3125
508,1695741313766,-0.25854492,-0.9229126,0.35809326,0.015625,0.515625,-0.125
509,1695741313799,-0.27319336,-0.92755127,0.35809326,0.28125,0.59375,0.015625
510,1695741313840,-0.2644043,-0.9356079,0.34954834,0.4375,-0.3125,0.5625
511,1695741313880,-0.25341797,-0.9234009,0.34954834,0.640625,0.34375,-0.140625
512,1695741313920,-0.26782227,-0.9324341,0.35516357,0.265625,0.3125,0.328125
513,1695741313961,-0.2602539,-0.93463135,0.3444214,0.59375,0.03125,0.578125
514,1695741313998,-0.2614746,-0.9336548,0.3517456,1.203125,0.46875,0.53125
515,1695741314039,-0.26049805,-0.93878174,0.33709717,0.65625,0.0625,0.109375
516,1695741314080,-0.25708008,-0.93170166,0.34173584,0.171875,-0.015625,0.265625
517,1695741314119,-0.25390625,-0.9378052,0.3378296,1.140625,0.34375,0.375
518,1695741314158,-0.2578125,-0.9373169,0.34344482,0.3125,0.53125,0.421875
519,1695741314200,-0.2487793,-0.9434204,0.33587646,1.09375,-0.015625,0.703125
520,1695741314239,-0.25317383,-0.9314575,0.34100342,0.34375,0.640625,0.0
521,1695741314278,-0.2524414,-0.944397,0.33538818,-0.078125,0.46875,0.21875
522,1695741314318,-0.25390625,-0.94122314,0.33709717,-0.25,0.390625,-0.171875
523,1695741314358,-0.25854492,-0.93927,0.3390503,0.40625,0.0625,0.40625
524,1695741314378,-0.24072266,-0.9351196,0.32781982,0.265625,-0.125,0.234375
525,1695741314418,-0.25195312,-0.940979,0.32659912,0.5625,1.0625,-0.078125
526,1695741314459,-0.25268555,-0.94366455,0.33294678,-0.015625,-0.109375,0.140625
527,1695741314498,-0.25048828,-0.94366455,0.32635498,0.765625,0.25,-0.015625
528,1695741314538,-0.24731445,-0.942688,0.32904053,0.703125,0.359375,0.15625
529,1695741314579,-0.25952148,-0.94317627,0.32366943,-0.03125,0.328125,-0.109375
530,1695741314620,-0.25268555,-0.9373169,0.32537842,0.15625,-0.09375,0.421875
531,1695741314662,-0.2475586,-0.9487915,0.32025146,-0.09375,-0.203125,0.203125
532,1695741314699,-0.2487793,-0.94488525,0.32659912,0.734375,0.203125,0.265625
533,1695741314739,-0.24438477,-0.9480591,0.31072998,-0.125,0.109375,-0.03125
534,1695741314779,-0.25268555,-0.9351196,0.31854248,-0.953125,0.25,-0.265625
535,1695741314818,-0.24975586,-0.94781494,0.32733154,0.46875,0.546875,0.015625
536,1695741314859,-0.24121094,-0.940979,0.3151245,-0.15625,0.171875,-0.328125
537,1695741314899,-0.24584961,-0.93707275,0.3126831,-0.40625,0.140625,-0.171875
538,1695741314940,-0.24926758,-0.9439087,0.3204956,-0.890625,0.75,-0.546875
539,1695741314978,-0.24682617,-0.9446411,0.32440186,-1.34375,0.171875,-0.4375
540,1695741315019,-0.24658203,-0.942688,0.32391357,-0.109375,-0.03125,0.0
541,1695741315062,-0.23901367,-0.94122314,0.31219482,-0.59375,0.40625,-0.703125
542,1695741315102,-0.24975586,-0.94317627,0.31732178,-0.75,0.421875,-0.359375
543,1695741315148,-0.24536133,-0.9456177,0.3209839,-0.140625,-0.0625,0.015625
544,1695741315183,-0.24194336,-0.93829346,0.31707764,-0.40625,-0.0625,-0.203125
545,1695741315219,-0.24804688,-0.93927,0.3180542,-0.359375,0.578125,-0.421875
546,1695741315259,-0.25708008,-0.940979,0.32366943,-0.875,-0.171875,-0.25
547,1695741315298,-0.23999023,-0.9365845,0.322937,-0.28125,-0.03125,-0.09375
548,1695741315339,-0.24316406,-0.94781494,0.32196045,-0.234375,0.46875,-0.171875
549,1695741315379,-0.24584961,-0.95025635,0.31414795,-1.265625,-0.3125,-0.390625
550,1695741315418,-0.23730469,-0.9385376,0.32073975,-1.171875,0.484375,-0.4375
551,1695741315459,-0.25634766,-0.9495239,0.3204956,-0.546875,0.21875,-0.015625
552,1695741315499,-0.2475586,-0.9390259,0.3114624,-1.125,0.265625,-0.734375
553,1695741315538,-0.24511719,-0.9421997,0.3192749,-1.140625,-0.03125,-0.25
554,1695741315583,-0.24291992,-0.9500122,0.32244873,-2.921875,0.984375,-1.09375
555,1695741315601,-0.24951172,-0.9480591,0.3222046,-1.34375,-0.21875,-0.21875
556,1695741315643,-0.24243164,-0.94000244,0.3222046,-1.9375,0.03125,-0.4375
557,1695741315683,-0.2529297,-0.94659424,0.32269287,-1.734375,0.671875,-0.875
558,1695741315727,-0.25024414,-0.9390259,0.32513428,-1.453125,-0.203125,-0.453125
559,1695741315759,-0.24926758,-0.9421997,0.32904053,-0.640625,-0.0625,-0.1875
560,1695741315799,-0.24902344,-0.94244385,0.3287964,-0.9375,0.140625,-0.203125
561,1695741315840,-0.24633789,-0.94195557,0.324646,-1.40625,0.34375,-0.78125
562,1695741315882,-0.2541504,-0.9365845,0.3307495,-0.859375,-0.234375,-0.015625
563,1695741315920,-0.24731445,-0.9351196,0.33026123,-1.296875,-0.234375,-0.59375
564,1695741315959,-0.2529297,-0.93756104,0.33807373,-1.40625,0.421875,-0.328125
565,1695741316000,-0.2446289,-0.9402466,0.32733154,-1.4375,0.1875,-0.53125
566,1695741316039,-0.25146484,-0.9360962,0.33758545,-2.28125,0.203125,-0.625
567,1695741316079,-0.24682617,-0.9421997,0.34173584,-0.640625,0.28125,-0.40625
568,1695741316119,-0.25024414,-0.94000244,0.32318115,-1.328125,0.1875,-0.421875
569,1695741316159,-0.24389648,-0.93218994,0.33416748,-2.046875,-0.234375,-0.921875
570,1695741316198,-0.25170898,-0.9326782,0.33880615,-3.15625,0.625,-1.15625
571,1695741316239,-0.2536621,-0.94073486,0.34051514,-1.359375,-0.421875,-0.3125
572,1695741316279,-0.24194336,-0.93170166,0.33636475,-1.375,-0.03125,-0.5
573,1695741316321,-0.24975586,-0.9397583,0.34490967,-2.296875,0.046875,-0.984375
574,1695741316361,-0.25976562,-0.93585205,0.3463745,-1.296875,-0.109375,-0.890625
575,1695741316402,-0.25878906,-0.9348755,0.3468628,-1.484375,-0.1875,-0.5
576,1695741316442,-0.2536621,-0.9282837,0.3505249,-1.03125,0.015625,-0.796875
577,1695741316484,-0.25976562,-0.9302368,0.3456421,-1.765625,0.0625,-0.84375
578,1695741316524,-0.2614746,-0.9307251,0.3444214,-1.203125,-0.34375,-0.328125
579,1695741316561,-0.25463867,-0.9290161,0.35272217,-1.546875,0.296875,-0.625
580,1695741316602,-0.26245117,-0.9365845,0.3475952,-0.984375,0.0625,-0.609375
581,1695741316639,-0.25927734,-0.93292236,0.34613037,-1.5625,0.125,-0.765625
582,1695741316681,-0.26342773,-0.923645,0.355896,-1.59375,-0.03125,-0.5
583,1695741316720,-0.2602539,-0.9326782,0.35565186,-0.765625,0.34375,-0.515625
584,1695741316761,-0.2614746,-0.9312134,0.35003662,-1.0625,-0.3125,-0.171875
585,1695741316821,-0.2475586,-0.9299927,0.3517456,-1.53125,0.109375,-1.03125
586,1695741316841,-0.26953125,-0.9307251,0.35760498,-3.578125,0.84375,-1.140625
587,1695741316859,-0.26416016,-0.93585205,0.3637085,-1.140625,-0.078125,0.046875
588,1695741316900,-0.26245117,-0.92803955,0.3619995,-0.640625,0.203125,-0.1875
589,1695741316940,-0.2602539,-0.9314575,0.36029053,-1.109375,0.0625,-0.734375
590,1695741316979,-0.26489258,-0.9360962,0.36419678,-0.765625,0.21875,-0.46875
591,1695741317020,-0.25830078,-0.93218994,0.36517334,-0.609375,0.09375,-0.09375
592,1695741317059,-0.25854492,-0.9336548,0.36175537,-0.796875,0.296875,-0.515625
593,1695741317099,-0.2680664,-0.9299927,0.36468506,-0.734375,0.234375,-0.34375
594,1695741317141,-0.26220703,-0.93096924,0.3632202,-0.578125,0.28125,0.046875
595,1695741317179,-0.25732422,-0.93463135,0.36102295,-0.984375,0.203125,-0.46875
596,1695741317221,-0.2578125,-0.92559814,0.3612671,-0.546875,0.1875,-0.25
597,1695741317259,-0.26220703,-0.92803955,0.3607788,-0.78125,0.421875,-0.328125
598,1695741317299,-0.2619629,-0.9314575,0.35809326,-0.9375,0.203125,-0.421875
599,1695741317340,-0.2626953,-0.9299927,0.36175537,-1.0625,0.328125,-0.4375
600,1695741317380,-0.2644043,-0.9273071,0.37371826,-0.140625,0.28125,-0.234375
601,1695741317419,-0.26635742,-0.9290161,0.3534546,-1.296875,0.03125,-0.296875
602,1695741317459,-0.25683594,-0.92926025,0.36175537,-0.0625,0.03125,-0.25
603,1695741317501,-0.2578125,-0.92633057,0.36273193,-3.5,0.78125,-1.34375
604,1695741317539,-0.26708984,-0.92755127,0.37420654,-0.765625,-0.078125,-0.03125
605,1695741317578,-0.26489258,-0.92633057,0.36712646,-0.46875,0.296875,-0.3125
606,1695741317620,-0.26049805,-0.92510986,0.3612671,-1.0,0.3125,-0.390625
607,1695741317664,-0.26464844,-0.9282837,0.36273193,-0.5625,0.078125,-0.421875
608,1695741317702,-0.26171875,-0.9209595,0.36810303,-0.28125,-0.140625,-0.234375
609,1695741317743,-0.2614746,-0.9302368,0.36224365,-0.4375,0.375,-0.375
610,1695741317783,-0.27294922,-0.92926025,0.36517334,-0.6875,0.109375,-0.328125
611,1695741317824,-0.26733398,-0.9241333,0.35931396,-0.015625,-0.328125,0.203125
612,1695741317861,-0.25512695,-0.9273071,0.36761475,-0.125,-0.1875,-0.046875
613,1695741317903,-0.2602539,-0.9273071,0.3624878,-0.171875,0.34375,-0.046875
614,1695741317945,-0.26098633,-0.9326782,0.3571167,0.296875,-0.03125,0.03125
615,1695741317980,-0.2602539,-0.927063,0.3649292,0.03125,0.34375,0.125
616,1695741318022,-0.26171875,-0.928772,0.35662842,1.0625,0.25,0.28125
617,1695741318041,-0.26538086,-0.9324341,0.35662842,0.90625,0.171875,0.171875
618,1695741318082,-0.26513672,-0.92022705,0.35443115,-0.234375,0.03125,-0.09375
619,1695741318123,-0.2619629,-0.9338989,0.35760498,1.609375,0.421875,0.59375
620,1695741318162,-0.26293945,-0.93048096,0.3600464,1.390625,0.484375,0.15625
621,1695741318203,-0.26489258,-0.9314575,0.34881592,0.609375,0.296875,0.53125
622,1695741318242,-0.2578125,-0.92926025,0.33831787,-0.625,0.65625,-0.625
623,1695741318278,-0.26367188,-0.9326782,0.35565186,-0.265625,0.390625,0.53125
624,1695741318319,-0.2536621,-0.93829346,0.3522339,1.859375,0.03125,0.859375
625,1695741318358,-0.25219727,-0.9373169,0.34051514,0.40625,0.53125,0.078125
626,1695741318400,-0.25756836,-0.9378052,0.3427124,0.1875,0.171875,0.09375
627,1695741318439,-0.24609375,-0.93414307,0.34051514,1.109375,0.421875,0.296875
628,1695741318478,-0.25561523,-0.9378052,0.34002686,0.6875,-0.0625,0.34375
629,1695741318521,-0.24853516,-0.9314575,0.33538818,0.296875,0.203125,-0.125
630,1695741318561,-0.26123047,-0.9385376,0.34368896,1.0625,0.5625,0.484375
631,1695741318598,-0.25048828,-0.942688,0.32977295,0.78125,-0.25,0.703125
632,1695741318639,-0.2446289,-0.9368286,0.33294678,0.34375,0.40625,0.03125
633,1695741318679,-0.24487305,-0.93536377,0.33709717,1.015625,0.390625,0.296875
634,1695741318718,-0.2529297,-0.94488525,0.32366943,-0.03125,0.4375,0.21875
635,1695741318759,-0.24365234,-0.9397583,0.3217163,0.671875,0.1875,0.203125
636,1695741318798,-0.24926758,-0.9380493,0.32904053,0.203125,0.1875,-0.046875
637,1695741318839,-0.24560547,-0.9446411,0.33172607,0.09375,0.234375,-0.015625
638,1695741318878,-0.24682617,-0.9492798,0.32122803,0.390625,0.03125,0.375
639,1695741318918,-0.24853516,-0.94732666,0.3222046,0.21875,0.265625,-0.109375
640,1695741318958,-0.24584961,-0.94976807,0.33099365,-0.109375,0.25,0.046875
641,1695741318998,-0.24682617,-0.95440674,0.3241577,-1.53125,0.625,-0.390625
642,1695741319039,-0.25,-0.9404907,0.32806396,0.53125,0.15625,0.25
643,1695741319077,-0.24511719,-0.9338989,0.3168335,0.25,0.03125,0.1875
644,1695741319118,-0.25048828,-0.94244385,0.31292725,-0.59375,0.359375,-0.171875
645,1695741319159,-0.24169922,-0.93951416,0.32318115,0.53125,0.015625,0.125
646,1695741319199,-0.24584961,-0.94415283,0.31488037,0.03125,-0.03125,0.125
647,1695741319238,-0.24121094,-0.9492798,0.31610107,-0.109375,0.0,0.015625
648,1695741319258,-0.24609375,-0.93878174,0.31707764,0.4375,0.640625,-0.0625
649,1695741319299,-0.2475586,-0.9500122,0.31878662,-0.15625,-0.125,0.40625
650,1695741319341,-0.23754883,-0.940979,0.3131714,0.234375,0.265625,0.109375
651,1695741319378,-0.2487793,-0.9446411,0.3085327,0.25,0.28125,0.171875
652,1695741319419,-0.23608398,-0.9483032,0.3151245,-0.34375,-0.03125,0.046875
653,1695741319459,-0.23828125,-0.9470825,0.31341553,-0.40625,0.78125,0.0
654,1695741319499,-0.24829102,-0.9468384,0.30926514,-0.140625,-0.046875,0.03125
655,1695741319539,-0.24487305,-0.9468384,0.30755615,0.09375,0.171875,0.34375
656,1695741319580,-0.23901367,-0.9348755,0.30950928,-1.015625,-0.125,-0.375
657,1695741319619,-0.23510742,-0.94537354,0.30560303,-1.1875,-0.078125,-0.28125
658,1695741319660,-0.2409668,-0.94903564,0.309021,-3.5625,0.296875,-0.828125
659,1695741319699,-0.23486328,-0.94317627,0.3295288,-0.171875,-0.046875,0.484375
660,1695741319739,-0.23608398,-0.9429321,0.30706787,-0.75,0.9375,-0.28125
661,1695741319780,-0.2368164,-0.94073486,0.31243896,-1.578125,0.0625,-0.78125
662,1695741319819,-0.23754883,-0.94732666,0.32318115,-0.828125,-0.125,-0.265625
663,1695741319858,-0.2421875,-0.9458618,0.30828857,-0.65625,0.125,-0.140625
664,1695741319899,-0.23901367,-0.942688,0.30584717,-0.84375,-0.25,-0.484375
665,1695741319939,-0.24267578,-0.9480591,0.31365967,-1.53125,0.203125,-0.671875
666,1695741319978,-0.2368164,-0.9492798,0.31195068,-1.046875,-0.3125,-0.203125
667,1695741320021,-0.2397461,-0.9385376,0.31414795,-1.59375,0.15625,-0.703125
668,1695741320066,-0.23852539,-0.9468384,0.3180542,-1.015625,-0.046875,-0.421875
669,1695741320104,-0.24047852,-0.942688,0.31878662,-1.75,0.21875,-0.765625
670,1695741320143,-0.24536133,-0.94195557,0.31658936,-1.875,0.375,-0.734375
671,1695741320182,-0.24194336,-0.94732666,0.32269287,-1.171875,0.1875,-0.59375
672,1695741320219,-0.24682617,-0.93829346,0.32635498,-1.828125,0.40625,-0.828125
673,1695741320259,-0.23901367,-0.9468384,0.32440186,-1.4375,-0.28125,-0.34375
674,1695741320299,-0.23364258,-0.94195557,0.3209839,-3.53125,0.796875,-1.453125
675,1695741320338,-0.24926758,-0.944397,0.3283081,-1.625,0.203125,-0.71875
676,1695741320379,-0.24243164,-0.9380493,0.32122803,-1.40625,0.125,-0.5
677,1695741320419,-0.24389648,-0.9402466,0.324646,-2.203125,0.265625,-0.953125
678,1695741320458,-0.25341797,-0.9446411,0.33416748,-1.859375,-0.015625,-0.890625
679,1695741320500,-0.24951172,-0.94000244,0.33587646,-1.015625,-0.03125,-0.609375
680,1695741320518,-0.24316406,-0.93878174,0.33294678,-1.40625,0.125,-0.515625
681,1695741320559,-0.24658203,-0.9390259,0.33587646,-1.5625,0.09375,-1.046875
682,1695741320601,-0.2512207,-0.93585205,0.33392334,-1.421875,-0.28125,-0.40625
683,1695741320643,-0.24560547,-0.9414673,0.33880615,-1.265625,-0.09375,-0.453125
684,1695741320681,-0.24902344,-0.9356079,0.34466553,-1.421875,0.328125,-0.453125
685,1695741320721,-0.25024414,-0.94366455,0.33709717,-1.359375,-0.15625,-0.625
686,1695741320763,-0.24511719,-0.9312134,0.34051514,-2.34375,0.0625,-0.859375
687,1695741320804,-0.25732422,-0.9348755,0.34661865,-0.84375,0.1875,-0.265625
688,1695741320839,-0.25634766,-0.9365845,0.34661865,-0.84375,0.15625,-0.671875
689,1695741320880,-0.25,-0.9380493,0.33758545,-1.046875,-0.078125,-0.21875
690,1695741320919,-0.24609375,-0.9356079,0.3366089,-2.015625,0.296875,-1.328125
691,1695741320960,-0.26611328,-0.93536377,0.35028076,-2.546875,0.359375,-0.6875
692,1695741320999,-0.2548828,-0.93536377,0.34954834,-0.015625,-0.140625,0.0
693,1695741321040,-0.2529297,-0.93414307,0.34368896,-1.265625,0.1875,-0.734375
694,1695741321079,-0.25170898,-0.9324341,0.34832764,-1.40625,-0.03125,-0.796875
695,1695741321121,-0.26098633,-0.9351196,0.34613037,-0.796875,-0.0625,-0.3125
696,1695741321160,-0.25073242,-0.9324341,0.3529663,-0.859375,0.421875,-0.390625
697,1695741321199,-0.25610352,-0.9351196,0.3534546,-0.796875,0.046875,-0.734375
698,1695741321238,-0.25878906,-0.9326782,0.3456421,-1.046875,-0.234375,-0.34375
699,1695741321278,-0.24951172,-0.9380493,0.34490967,-0.828125,-0.125,-0.125
700,1695741321319,-0.25585938,-0.9295044,0.34735107,-0.9375,0.390625,-0.359375
701,1695741321358,-0.26245117,-0.93463135,0.34783936,-0.734375,0.125,-0.421875
702,1695741321399,-0.25073242,-0.9307251,0.34979248,-0.734375,0.046875,-0.421875
703,1695741321439,-0.25170898,-0.9331665,0.35150146,-0.78125,0.46875,-0.640625
704,1695741321479,-0.26000977,-0.93585205,0.34588623,-1.59375,0.265625,-0.703125
705,1695741321520,-0.25878906,-0.93927,0.3522339,-0.515625,-0.265625,-0.015625
706,1695741321559,-0.25097656,-0.93341064,0.35101318,-0.765625,0.140625,-0.59375
707,1695741321600,-0.25976562,-0.9417114,0.34979248,-0.390625,0.390625,0.015625
708,1695741321641,-0.24951172,-0.93048096,0.33831787,-2.34375,0.5625,-1.453125
709,1695741321683,-0.26464844,-0.9319458,0.3571167,-1.796875,0.03125,-0.265625
710,1695741321721,-0.25097656,-0.9365845,0.35516357,0.0,-0.15625,0.078125
711,1695741321742,-0.2524414,-0.9351196,0.355896,-1.0625,0.375,-0.578125
712,1695741321783,-0.2590332,-0.9299927,0.35076904,-0.59375,0.109375,-0.4375
713,1695741321822,-0.2578125,-0.92974854,0.3529663,-0.28125,0.390625,-0.1875
714,1695741321862,-0.25463867,-0.9368286,0.34906006,0.015625,-0.03125,0.03125
715,1695741321901,-0.25610352,-0.92388916,0.35614014,0.375,0.25,-0.25
716,1695741321942,-0.2680664,-0.93096924,0.34783936,0.203125,0.1875,-0.0625
717,1695741321982,-0.25219727,-0.9378052,0.34857178,0.21875,-0.4375,0.28125
718,1695741322022,-0.25170898,-0.9348755,0.34857178,0.734375,0.453125,0.0
719,1695741322066,-0.25732422,-0.93878174,0.34832764,0.734375,0.03125,0.078125
720,1695741322101,-0.25927734,-0.9343872,0.3439331,0.09375,0.03125,0.234375
721,1695741322142,-0.25341797,-0.9307251,0.34197998,1.125,0.21875,0.3125
722,1695741322183,-0.25610352,-0.94122314,0.3444214,0.765625,0.375,0.03125
723,1695741322224,-0.25097656,-0.93756104,0.34051514,-0.21875,0.171875,0.0
724,1695741322262,-0.24780273,-0.93927,0.33538818,1.28125,0.03125,0.640625
725,1695741322302,-0.24829102,-0.9356079,0.33221436,0.984375,0.234375,0.09375
726,1695741322343,-0.25195312,-0.93756104,0.3336792,0.40625,0.390625,0.296875
727,1695741322385,-0.24926758,-0.9429321,0.33026123,-0.890625,0.671875,-0.59375
728,1695741322424,-0.26049805,-0.9402466,0.3427124,0.0,0.5625,0.34375
729,1695741322461,-0.25024414,-0.9439087,0.3312378,1.828125,0.140625,0.859375
730,1695741322503,-0.24194336,-0.94073486,0.3204956,-0.234375,0.46875,-0.046875
731,1695741322543,-0.25146484,-0.93292236,0.32659912,0.203125,0.203125,-0.25
732,1695741322584,-0.25463867,-0.940979,0.32635498,0.96875,-0.171875,0.15625
733,1695741322622,-0.24389648,-0.93878174,0.33294678,0.578125,0.265625,0.515625
734,1695741322664,-0.2529297,-0.9373169,0.3295288,0.609375,0.5625,-0.078125
735,1695741322702,-0.2487793,-0.9458618,0.32391357,0.5625,0.015625,0.265625
736,1695741322744,-0.24853516,-0.944397,0.31878662,-0.09375,-0.109375,0.390625
737,1695741322784,-0.24267578,-0.9385376,0.32562256,1.078125,0.359375,0.1875
738,1695741322822,-0.24584961,-0.95098877,0.3180542,0.53125,-0.15625,0.375
739,1695741322864,-0.24169922,-0.93878174,0.3139038,-0.375,0.234375,0.015625
740,1695741322900,-0.24291992,-0.94537354,0.3168335,0.53125,0.296875,0.015625
741,1695741322962,-0.2434082,-0.942688,0.31536865,-0.5625,0.0625,-0.125
742,1695741322966,-0.24389648,-0.9475708,0.32659912,0.359375,0.234375,0.171875
743,1695741323003,-0.23242188,-0.9365845,0.31658936,-0.03125,0.09375,-0.296875
744,1695741323049,-0.25390625,-0.9475708,0.3024292,-1.578125,1.234375,-0.65625
745,1695741323083,-0.24072266,-0.9421997,0.31414795,-0.03125,-0.578125,-0.03125
746,1695741323120,-0.23852539,-0.9421997,0.31854248,-0.828125,0.671875,-0.34375
747,1695741323166,-0.24267578,-0.9451294,0.3126831,-0.234375,0.296875,-0.171875
748,1695741323202,-0.24121094,-0.9483032,0.30682373,-0.4375,0.203125,-0.34375
749,1695741323243,-0.24169922,-0.94415283,0.31585693,-0.625,0.296875,-0.3125
750,1695741323284,-0.24316406,-0.9463501,0.322937,0.078125,-0.03125,-0.375
751,1695741323325,-0.24707031,-0.94488525,0.31414795,0.21875,-0.078125,0.0625
752,1695741323363,-0.23999023,-0.9439087,0.30999756,0.078125,-0.140625,-0.484375
753,1695741323405,-0.24658203,-0.94610596,0.30584717,0.015625,0.09375,0.015625
754,1695741323442,-0.23876953,-0.9451294,0.31365967,-0.46875,-0.421875,-0.125
755,1695741323484,-0.24487305,-0.9456177,0.307312,-0.1875,0.453125,-0.359375
756,1695741323522,-0.2475586,-0.954895,0.3156128,-0.4375,0.15625,-0.046875
757,1695741323562,-0.23925781,-0.94366455,0.30828857,-0.703125,0.328125,-0.3125
758,1695741323604,-0.24536133,-0.9456177,0.3126831,-0.703125,0.359375,-0.171875
759,1695741323643,-0.2446289,-0.9492798,0.3048706,-0.609375,-0.296875,-0.140625
760,1695741323684,-0.23706055,-0.944397,0.30706787,-0.625,1.015625,-0.375
761,1695741323723,-0.24951172,-0.942688,0.2987671,-0.953125,0.34375,-0.25
762,1695741323763,-0.24780273,-0.9512329,0.30194092,-2.46875,0.46875,-0.8125
763,1695741323802,-0.24365234,-0.9451294,0.3180542,-1.40625,0.265625,-0.3125
764,1695741323843,-0.23583984,-0.94073486,0.30926514,-1.546875,0.09375,-0.21875
765,1695741323886,-0.2368164,-0.9507446,0.3163452,-1.96875,0.375,-0.890625
766,1695741323923,-0.24291992,-0.9463501,0.31756592,-1.25,0.046875,-0.5625
767,1695741323963,-0.2536621,-0.94415283,0.31610107,-0.953125,0.125,-0.421875
768,1695741324002,-0.24291992,-0.9414673,0.31536865,-1.1875,-0.234375,-0.140625
769,1695741324042,-0.23901367,-0.9404907,0.3180542,-1.296875,0.5625,-0.71875
770,1695741324084,-0.2548828,-0.94415283,0.31219482,-1.484375,-0.1875,-0.484375
771,1695741324124,-0.23950195,-0.9451294,0.32000732,-1.75,-0.25,-0.421875
772,1695741324179,-0.24682617,-0.94610596,0.32611084,-1.015625,0.75,-0.46875
773,1695741324201,-0.24414062,-0.94366455,0.31976318,-2.203125,-0.03125,-0.703125
774,1695741324225,-0.24438477,-0.93170166,0.32025146,-1.734375,0.359375,-0.6875
775,1695741324303,-0.24536133,-0.9414673,0.32928467,-1.453125,0.3125,-0.3125
776,1695741324308,-0.24731445,-0.9463501,0.322937,-1.90625,0.203125,-0.703125
777,1695741324343,-0.24267578,-0.940979,0.31903076,-1.375,0.234375,-0.5
778,1695741324382,-0.24047852,-0.94195557,0.3307495,-1.8125,0.3125,-1.0
779,1695741324423,-0.25048828,-0.9512329,0.33685303,-3.515625,0.53125,-0.984375
780,1695741324462,-0.25390625,-0.93536377,0.33319092,-1.453125,-0.40625,-0.28125
781,1695741324503,-0.24731445,-0.9402466,0.34075928,-1.71875,0.046875,-0.859375
782,1695741324546,-0.25073242,-0.940979,0.3287964,-1.8125,-0.0625,-0.828125
783,1695741324582,-0.24487305,-0.93585205,0.33441162,-0.703125,-0.171875,-0.453125
784,1695741324622,-0.2565918,-0.9397583,0.3348999,-0.9375,-0.015625,-0.484375
785,1695741324663,-0.24829102,-0.9378052,0.34246826,-2.015625,0.171875,-0.765625
786,1695741324701,-0.25927734,-0.94244385,0.33221436,-1.21875,0.515625,-0.703125
787,1695741324743,-0.25268555,-0.93463135,0.33880615,-0.96875,-0.6875,-0.171875
788,1695741324783,-0.24951172,-0.93829346,0.34100342,-1.828125,-0.203125,-0.640625
789,1695741324824,-0.2524414,-0.93463135,0.34320068,-0.84375,0.53125,-0.65625
790,1695741324864,-0.24926758,-0.94073486,0.33831787,-1.1875,0.0,-0.671875
791,1695741324903,-0.25683594,-0.9312134,0.34588623,-2.09375,0.3125,-0.734375
792,1695741324942,-0.2529297,-0.9434204,0.3468628,-0.625,0.28125,-0.5
793,1695741324983,-0.24584961,-0.9338989,0.34246826,-1.46875,-0.109375,-0.59375
794,1695741325022,-0.2553711,-0.94366455,0.34783936,-0.625,-0.25,-0.203125
795,1695741325062,-0.25195312,-0.93829346,0.33929443,-3.296875,0.53125,-1.796875
796,1695741325102,-0.26635742,-0.9365845,0.35369873,-1.65625,0.21875,-0.515625
797,1695741325148,-0.25463867,-0.93634033,0.34490967,-0.125,-0.078125,0.0625
798,1695741325181,-0.25195312,-0.9336548,0.3463745,-1.28125,0.25,-0.703125
799,1695741325224,-0.26098633,-0.9338989,0.35394287,-1.25,0.109375,-0.625
800,1695741325263,-0.25463867,-0.9331665,0.35321045,-0.578125,-0.125,-0.359375
801,1695741325301,-0.25341797,-0.93756104,0.3517456,-0.78125,0.34375,-0.25
802,1695741325343,-0.2565918,-0.93170166,0.34881592,-0.328125,0.265625,-0.640625
803,1695741325403,-0.2631836,-0.9343872,0.35003662,-0.46875,-0.0625,0.03125
804,1695741325421,-0.25195312,-0.93218994,0.3522339,-0.59375,-0.09375,-0.21875
805,1695741325453,-0.25585938,-0.93096924,0.34735107,-0.171875,0.625,-0.34375
806,1695741325484,-0.26464844,-0.9421997,0.34906006,0.34375,0.28125,-0.03125
807,1695741325519,-0.25756836,-0.93341064,0.35394287,0.359375,-0.015625,0.125
808,1695741325559,-0.2548828,-0.9302368,0.34002686,0.015625,0.28125,-0.140625
809,1695741325600,-0.26245117,-0.9331665,0.34857178,0.515625,0.4375,0.140625
810,1695741325640,-0.2602539,-0.93634033,0.34490967,0.625,0.171875,0.125
811,1695741325679,-0.2541504,-0.9421997,0.33563232,0.921875,0.1875,0.53125
812,1695741325719,-0.25073242,-0.9326782,0.34320068,-0.546875,0.5625,-0.671875
813,1695741325760,-0.26660156,-0.9373169,0.3463745,-0.59375,0.75,-0.203125
814,1695741325798,-0.25805664,-0.9397583,0.34197998,1.90625,-0.046875,0.8125
815,1695741325839,-0.24584961,-0.9373169,0.3270874,0.484375,0.375,-0.03125
816,1695741325880,-0.2475586,-0.93414307,0.33514404,-0.3125,0.21875,-0.015625
817,1695741325920,-0.2541504,-0.93951416,0.3361206,1.71875,0.53125,0.359375
818,1695741325960,-0.25073242,-0.9380493,0.33148193,1.171875,-0.21875,0.71875
819,1695741326000,-0.25170898,-0.9421997,0.33026123,0.5625,0.453125,0.03125
820,1695741326040,-0.2529297,-0.93292236,0.3300171,1.078125,0.40625,0.3125
821,1695741326081,-0.24536133,-0.9404907,0.32562256,0.625,-0.21875,0.5625
822,1695741326119,-0.24731445,-0.9483032,0.32562256,0.9375,0.0625,0.21875
823,1695741326159,-0.24682617,-0.93829346,0.322937,0.609375,0.296875,0.203125
824,1695741326201,-0.24365234,-0.94610596,0.31951904,0.078125,0.171875,0.171875
825,1695741326239,-0.2446289,-0.9429321,0.3151245,-0.328125,0.25,0.0
826,1695741326285,-0.25024414,-0.9451294,0.31829834,0.125,0.234375,0.15625
827,1695741326321,-0.24169922,-0.9480591,0.3180542,-0.09375,-0.421875,0.375
828,1695741326359,-0.23876953,-0.9326782,0.3151245,-0.703125,0.3125,0.0
829,1695741326399,-0.24511719,-0.942688,0.31951904,-0.140625,0.453125,0.046875
830,1695741326441,-0.24438477,-0.9483032,0.3151245,-1.640625,0.578125,-0.671875
831,1695741326479,-0.2524414,-0.9390259,0.32440186,-0.328125,0.09375,0.109375
832,1695741326519,-0.24243164,-0.94122314,0.3156128,0.0625,0.171875,-0.015625
833,1695741326559,-0.24316406,-0.94659424,0.3156128,-0.53125,0.671875,-0.3125
834,1695741326603,-0.24316406,-0.9421997,0.31829834,-0.140625,0.0625,-0.140625
835,1695741326642,-0.24829102,-0.9446411,0.31488037,0.828125,0.078125,0.203125
836,1695741326662,-0.24047852,-0.9439087,0.3143921,-0.25,0.015625,-0.03125
837,1695741326699,-0.2487793,-0.93951416,0.31219482,-0.921875,0.734375,-0.5625
838,1695741326742,-0.24511719,-0.9456177,0.3204956,-0.1875,-0.234375,0.09375
839,1695741326778,-0.23706055,-0.93951416,0.3131714,-1.015625,-0.21875,-0.171875
840,1695741326819,-0.2409668,-0.9451294,0.31463623,-0.40625,0.234375,-0.171875
841,1695741326859,-0.23876953,-0.9463501,0.3131714,-1.28125,-0.109375,-0.3125
842,1695741326898,-0.24267578,-0.9451294,0.3163452,-0.9375,0.5625,-0.5
843,1695741326940,-0.24511719,-0.94903564,0.31341553,-1.328125,0.203125,-0.375
844,1695741326980,-0.24047852,-0.94659424,0.31829834,-1.15625,-0.15625,-0.328125
845,1695741327018,-0.24023438,-0.9402466,0.31414795,-1.40625,-0.0625,-0.53125
846,1695741327059,-0.23632812,-0.94854736,0.31756592,-1.90625,0.265625,-0.5
847,1695741327101,-0.24072266,-0.9463501,0.31585693,-3.0625,0.90625,-0.9375
848,1695741327139,-0.2434082,-0.94366455,0.32781982,-1.421875,-0.265625,-0.28125
849,1695741327178,-0.24389648,-0.93878174,0.3222046,-1.78125,0.328125,-0.625
850,1695741327219,-0.24829102,-0.9421997,0.3270874,-1.640625,0.375,-0.9375
851,1695741327260,-0.25048828,-0.94537354,0.33148193,-1.640625,-0.09375,-0.5
852,1695741327300,-0.25048828,-0.94122314,0.32684326,-1.0625,-0.015625,-0.359375
853,1695741327339,-0.24438477,-0.9365845,0.33465576,-1.359375,-0.125,-0.4375
854,1695741327379,-0.24975586,-0.9380493,0.33050537,-1.796875,0.359375,-1.046875
855,1695741327419,-0.24780273,-0.94366455,0.32537842,-1.484375,0.03125,-0.484375
856,1695741327460,-0.24682617,-0.93951416,0.33636475,-1.53125,-0.296875,-0.5
857,1695741327499,-0.2446289,-0.93927,0.33587646,-1.40625,0.296875,-0.59375
858,1695741327539,-0.2524414,-0.93951416,0.3324585,-1.5625,0.15625,-0.5625
859,1695741327578,-0.24609375,-0.93829346,0.33831787,-1.703125,0.109375,-0.8125
860,1695741327619,-0.25512695,-0.93829346,0.33807373,-1.453125,0.015625,-0.640625
861,1695741327659,-0.24902344,-0.9434204,0.33514404,-1.25,0.0625,-0.46875
862,1695741327699,-0.24682617,-0.92681885,0.33514404,-2.140625,0.015625,-0.875
863,1695741327739,-0.24145508,-0.9421997,0.34173584,-1.546875,0.046875,-0.84375
864,1695741327779,-0.25561523,-0.9368286,0.34710693,-3.5,0.5,-1.328125
865,1695741327820,-0.25878906,-0.9378052,0.34735107,-1.015625,0.03125,-0.3125
866,1695741327858,-0.25097656,-0.9326782,0.34661865,-1.34375,-0.265625,-0.484375
867,1695741327878,-0.25048828,-0.9356079,0.34100342,-1.78125,0.25,-1.0
868,1695741327922,-0.25219727,-0.9302368,0.34881592,-0.84375,-0.046875,-0.515625
869,1695741327959,-0.25512695,-0.9336548,0.34710693,-1.109375,-0.21875,-0.46875
870,1695741327999,-0.25683594,-0.93829346,0.35028076,-1.328125,0.03125,-0.5625
871,1695741328040,-0.26660156,-0.9365845,0.35443115,-1.140625,0.265625,-0.75
872,1695741328079,-0.2631836,-0.9404907,0.34832764,-1.546875,-0.03125,-0.328125
873,1695741328119,-0.25341797,-0.9302368,0.35198975,-0.890625,-0.203125,-0.390625
874,1695741328160,-0.24804688,-0.9324341,0.34906006,-1.296875,0.171875,-0.5
875,1695741328198,-0.25927734,-0.9277954,0.34857178,-1.90625,0.078125,-0.671875
876,1695741328238,-0.26538086,-0.9365845,0.35247803,-1.40625,-0.21875,-0.453125
877,1695741328279,-0.25634766,-0.92926025,0.34979248,-1.6875,-0.0625,-0.65625
878,1695741328318,-0.25854492,-0.9302368,0.35784912,-1.375,0.421875,-0.546875
879,1695741328359,-0.25585938,-0.9319458,0.35882568,-0.640625,-0.03125,-0.515625
880,1695741328400,-0.26367188,-0.9351196,0.3546753,-0.875,0.09375,-0.15625
881,1695741328442,-0.2475586,-0.93707275,0.34832764,-2.171875,0.046875,-1.25
882,1695741328480,-0.2626953,-0.9312134,0.35809326,-3.3125,0.59375,-1.171875
883,1695741328520,-0.26293945,-0.9295044,0.371521,-0.34375,0.0625,0.109375
884,1695741328560,-0.2602539,-0.9326782,0.36468506,-0.6875,0.0625,-0.453125
885,1695741328601,-0.26245117,-0.9312134,0.3595581,-1.078125,0.234375,-0.40625
886,1695741328642,-0.26635742,-0.92755127,0.36639404,-0.734375,0.234375,-0.375
887,1695741328680,-0.26489258,-0.92974854,0.35906982,-0.65625,0.0625,-0.046875
888,1695741328719,-0.25854492,-0.9295044,0.3600464,-0.40625,0.015625,-0.21875
889,1695741328761,-0.26049805,-0.9248657,0.36639404,-0.640625,0.28125,-0.421875
890,1695741328803,-0.26464844,-0.9312134,0.36517334,-1.15625,0.03125,-0.171875
891,1695741328843,-0.25927734,-0.9290161,0.3600464,-0.609375,0.296875,-0.359375
892,1695741328880,-0.26708984,-0.9277954,0.36346436,-0.65625,0.1875,-0.203125
893,1695741328918,-0.25830078,-0.9248657,0.3661499,-0.703125,0.09375,-0.359375
894,1695741328958,-0.2590332,-0.9246216,0.36151123,-1.015625,0.171875,-0.3125
895,1695741329000,-0.25390625,-0.928772,0.35638428,-0.5,0.25,-0.25
896,1695741329039,-0.2626953,-0.9234009,0.36297607,-1.203125,0.25,-0.65625
897,1695741329079,-0.26416016,-0.92633057,0.3612671,-0.53125,-0.25,-0.0625
898,1695741329101,-0.26342773,-0.92510986,0.35858154,-0.34375,0.1875,-0.46875
899,1695741329142,-0.26342773,-0.9312134,0.35931396,-0.171875,0.453125,0.078125
900,1695741329181,-0.26000977,-0.9307251,0.3505249,-1.34375,0.40625,-1.046875
901,1695741329222,-0.26831055,-0.9282837,0.3649292,-1.796875,0.5,-0.625
902,1695741329260,-0.27148438,-0.9312134,0.37078857,1.390625,0.125,0.421875
903,1695741329301,-0.25952148,-0.92974854,0.35565186,-0.90625,-0.046875,-0.484375
904,1695741329342,-0.26513672,-0.9326782,0.3619995,-0.109375,-0.046875,0.015625
905,1695741329383,-0.25854492,-0.9277954,0.36395264,0.5625,0.0625,0.125
906,1695741329422,-0.26538086,-0.92926025,0.35809326,0.265625,0.40625,0.015625
907,1695741329463,-0.26049805,-0.9282837,0.36053467,0.09375,0.125,-0.125
908,1695741329501,-0.2614746,-0.92755127,0.35443115,-0.25,0.203125,0.03125
909,1695741329541,-0.2548828,-0.9302368,0.355896,0.359375,-0.046875,0.34375
910,1695741329583,-0.2524414,-0.9312134,0.35882568,0.1875,0.28125,0.046875
911,1695741329622,-0.25708008,-0.9324341,0.35369873,0.578125,0.515625,0.078125
912,1695741329662,-0.26000977,-0.93536377,0.35028076,-0.109375,0.046875,0.265625
913,1695741329704,-0.25268555,-0.93341064,0.34857178,0.703125,0.21875,0.296875
914,1695741329738,-0.26342773,-0.9299927,0.3463745,0.96875,0.546875,0.171875
915,1695741329780,-0.25170898,-0.9295044,0.34979248,-0.046875,-0.03125,0.21875
916,1695741329821,-0.25976562,-0.93414307,0.3427124,0.84375,0.1875,0.546875
917,1695741329879,-0.2541504,-0.93927,0.33685303,-0.125,0.359375,0.109375
918,1695741329899,-0.2524414,-0.93218994,0.34197998,0.4375,0.46875,0.28125
919,1695741329942,-0.25463867,-0.9307251,0.3456421,-0.78125,1.046875,-0.28125
920,1695741329983,-0.26171875,-0.93756104,0.3444214,0.53125,0.0,0.484375
921,1695741330023,-0.24829102,-0.9351196,0.34124756,0.71875,0.078125,0.421875
922,1695741330062,-0.25146484,-0.93218994,0.3361206,0.234375,0.828125,-0.109375
923,1695741330101,-0.25146484,-0.9451294,0.33929443,0.484375,0.265625,0.34375
924,1695741330139,-0.2475586,-0.93218994,0.33270264,0.609375,0.21875,0.296875
925,1695741330179,-0.2512207,-0.944397,0.3348999,0.625,0.125,0.40625
926,1695741330220,-0.25146484,-0.94000244,0.3295288,0.5,0.640625,0.0625
927,1695741330260,-0.24853516,-0.93878174,0.3283081,0.40625,-0.046875,0.375
928,1695741330300,-0.24243164,-0.9338989,0.32781982,0.265625,-0.03125,0.3125
