,timestamp,accel_x,accel_y,accel_z,gyro_x,gyro_y,gyro_z,ind
0,1695772793543,-0.2565918,-0.972229,0.17938232,-2.125,-2.328125,-5.578125,0
1,1695772793583,-0.27612305,-0.9602661,0.18450928,-2.0,-4.546875,-5.203125,1
2,1695772793623,-0.30664062,-0.9619751,0.17401123,-3.4375,-3.125,-6.203125,2
3,1695772793663,-0.30126953,-0.92852783,0.19354248,-1.53125,-2.328125,-7.765625,3
4,1695772793703,-0.3017578,-0.97613525,0.18182373,-3.625,-3.3125,-4.640625,4
5,1695772793743,-0.27734375,-0.9585571,0.17767334,-2.703125,-1.90625,-5.5625,5
6,1695772793783,-0.30200195,-0.97906494,0.21575928,-0.109375,-1.40625,-0.390625,6
7,1695772793823,-0.32641602,-0.9512329,0.20697021,-1.171875,-0.671875,0.109375,7
8,1695772793863,-0.32861328,-0.9307251,0.18695068,0.1875,-0.34375,-0.5,8
9,1695772793903,-0.31835938,-0.9561157,0.20550537,-3.171875,-1.4375,-3.296875,9
10,1695772793943,-0.3244629,-0.9639282,0.21258545,-1.25,-0.5,1.1875,10
11,1695772793983,-0.27416992,-0.9512329,0.16009521,-3.171875,1.015625,1.375,11
12,1695772794023,-0.31030273,-0.9468384,0.20501709,0.984375,1.25,2.234375,12
13,1695772794063,-0.3166504,-0.9619751,0.21844482,1.015625,2.796875,4.453125,13
14,1695772794103,-0.30810547,-0.9360962,0.19525146,-1.296875,3.0,3.140625,14
15,1695772794143,-0.3083496,-0.9631958,0.20770264,0.609375,4.8125,5.171875,15
16,1695772794183,-0.2692871,-0.95562744,0.20159912,-0.359375,3.65625,3.34375,16
17,1695772794223,-0.28759766,-0.9985962,0.22821045,0.4375,5.296875,5.703125,17
18,1695772794263,-0.2607422,-0.90802,0.19012451,-0.28125,7.0,4.875,18
19,1695772794303,-0.25219727,-0.9717407,0.20965576,-2.96875,4.296875,1.3125,19
20,1695772794343,-0.24487305,-0.9837036,0.2296753,-2.65625,3.046875,2.953125,20
21,1695772794383,-0.23291016,-0.9829712,0.22406006,-2.828125,5.4375,3.0625,21
22,1695772794423,-0.25195312,-0.95977783,0.22332764,-0.875,6.25,6.078125,22
23,1695772794463,-0.22998047,-0.95562744,0.20843506,-0.921875,5.59375,5.046875,23
24,1695772794503,-0.22387695,-0.9680786,0.21282959,-1.96875,6.25,5.140625,24
25,1695772794543,-0.20654297,-0.9522095,0.20379639,-0.453125,6.421875,4.46875,25
26,1695772794583,-0.1743164,-0.975647,0.21820068,-0.5625,5.5,2.375,26
27,1695772794623,-0.18139648,-0.9727173,0.22894287,-2.140625,4.90625,2.953125,27
28,1695772794663,-0.17529297,-0.9692993,0.2255249,-1.171875,2.375,3.65625,28
29,1695772794703,-0.16210938,-0.972229,0.24310303,-1.3125,3.796875,3.59375,29
30,1695772794743,-0.1508789,-0.98565674,0.23699951,-3.03125,1.78125,2.84375,30
31,1695772794783,-0.16015625,-0.9512329,0.22503662,-2.25,-0.140625,1.265625,31
32,1695772794823,-0.14013672,-0.9956665,0.246521,-2.828125,0.328125,-1.3125,32
33,1695772794863,-0.19116211,-0.94537354,0.24822998,0.78125,-0.171875,1.5,33
34,1695772794903,-0.114746094,-1.0020142,0.24505615,-2.40625,-0.671875,-3.203125,34
35,1695772794943,-0.15332031,-0.958313,0.21795654,-6.46875,-6.0,-3.765625,35
36,1695772794983,-0.17553711,-0.99298096,0.24407959,-3.15625,-4.203125,-4.140625,36
37,1695772795023,-0.19335938,-0.97125244,0.26068115,-3.96875,-3.84375,-1.953125,37
38,1695772795063,-0.19897461,-0.95196533,0.2506714,-3.859375,-2.28125,-3.140625,38
39,1695772795103,-0.21850586,-0.9734497,0.27337646,-2.203125,-2.0625,-1.375,39
40,1695772795143,-0.21484375,-0.9570923,0.25897217,-1.0,1.078125,1.0625,40
41,1695772795183,-0.17871094,-0.94903564,0.24603271,-3.578125,0.359375,-4.765625,41
42,1695772795223,-0.17480469,-0.98101807,0.2682495,-2.125,-1.34375,-6.828125,42
43,1695772795263,-0.1953125,-0.96832275,0.27313232,-0.953125,-2.546875,-4.8125,43
44,1695772795303,-0.20922852,-0.96051025,0.2633667,-1.375,-3.5625,-2.0625,44
45,1695772795343,-0.23144531,-0.95391846,0.26507568,-2.703125,-1.4375,-1.5625,45
46,1695772795383,-0.2475586,-0.97906494,0.27679443,-1.640625,0.0625,-0.421875,46
47,1695772795423,-0.23095703,-0.9487915,0.27581787,0.5,2.984375,-1.46875,47
48,1695772795463,-0.22094727,-0.9578247,0.26116943,0.921875,1.6875,-1.609375,48
49,1695772795503,-0.23486328,-0.9663696,0.27923584,1.546875,0.53125,0.71875,49
50,1695772795543,-0.22827148,-0.9356079,0.2501831,0.625,1.109375,-0.5625,50
51,1695772795583,-0.22851562,-0.94781494,0.25238037,3.15625,1.0,0.5625,51
52,1695772795623,-0.22875977,-0.97125244,0.2567749,-1.1875,-0.203125,-0.09375,52
53,1695772795663,-0.22607422,-0.96051025,0.2567749,1.421875,2.40625,-2.078125,53
54,1695772795703,-0.22143555,-0.9656372,0.25042725,1.203125,2.34375,-2.125,54
55,1695772795743,-0.24023438,-0.9614868,0.26531982,0.59375,3.1875,-0.0625,55
56,1695772795783,-0.24414062,-0.9483032,0.26922607,1.015625,3.71875,1.21875,56
57,1695772795823,-0.23339844,-0.94903564,0.24798584,-3.171875,2.53125,-2.421875,57
58,1695772795863,-0.2175293,-0.9854126,0.26263428,-3.625,1.296875,-2.625,58
59,1695772795903,-0.21264648,-0.9837036,0.22772217,-6.171875,2.0625,-2.3125,59
60,1695772795943,-0.2265625,-1.0117798,0.30389404,-1.703125,5.6875,0.84375,60
61,1695772795983,-0.23486328,-0.954895,0.30560303,-7.34375,-2.703125,4.21875,61
62,1695772796023,-0.25683594,-0.9795532,0.25531006,-9.5,-9.453125,-0.359375,62
63,1695772796063,-0.19946289,-0.9480591,0.3065796,3.578125,4.15625,3.03125,63
64,1695772796103,-0.25097656,-0.93927,0.2694702,4.015625,4.59375,5.296875,64
65,1695772796143,-0.20605469,-0.9258423,0.31048584,3.921875,-2.390625,-1.984375,65
66,1695772796183,-0.24633789,-0.94073486,0.2506714,5.203125,-0.109375,1.59375,66
67,1695772796223,-0.17919922,-0.89385986,0.25164795,3.359375,-1.59375,1.8125,67
68,1695772796263,-0.20898438,-0.97198486,0.23895264,1.015625,1.75,-0.421875,68
69,1695772796303,-0.22338867,-0.9561157,0.24285889,-0.765625,-2.71875,-0.296875,69
70,1695772796343,-0.2163086,-1.0081177,0.28729248,0.203125,-0.796875,-3.34375,70
71,1695772796383,-0.21582031,-0.95635986,0.26434326,-1.640625,0.65625,-0.015625,71
72,1695772796423,-0.21875,-0.94415283,0.23504639,-3.40625,-2.75,-0.328125,72
73,1695772796463,-0.20874023,-0.9463501,0.25482178,-0.5,0.625,-2.328125,73
74,1695772796503,-0.21899414,-0.9746704,0.28167725,0.0625,-2.09375,0.421875,74
75,1695772796543,-0.22338867,-0.96221924,0.2584839,-3.40625,-3.40625,-1.625,75
76,1695772796583,-0.2421875,-0.9702759,0.2609253,-1.75,-2.984375,-0.640625,76
77,1695772796623,-0.22363281,-0.9368286,0.27630615,0.1875,-1.34375,-0.703125,77
78,1695772796663,-0.2253418,-0.9819946,0.25604248,-1.921875,-2.0625,-0.890625,78
79,1695772796703,-0.23730469,-0.95318604,0.2423706,-2.25,-1.4375,1.09375,79
80,1695772796743,-0.23266602,-0.96173096,0.2645874,-1.359375,0.640625,0.859375,80
81,1695772796783,-0.24145508,-0.9475708,0.24627686,-1.796875,0.453125,0.359375,81
82,1695772796823,-0.23095703,-0.96759033,0.27093506,-0.1875,0.921875,-1.796875,82
83,1695772796863,-0.21191406,-0.97369385,0.28533936,0.21875,1.53125,-0.078125,83
84,1695772796903,-0.22558594,-0.94537354,0.2687378,-1.25,-1.6875,2.09375,84
85,1695772796943,-0.24267578,-0.954895,0.27020264,-1.671875,0.40625,1.5625,85
86,1695772796983,-0.21191406,-0.94610596,0.2518921,-3.90625,0.546875,-0.75,86
87,1695772797023,-0.21801758,-0.9780884,0.26556396,-2.296875,-0.203125,0.546875,87
88,1695772797063,-0.19116211,-0.9883423,0.29534912,-0.78125,1.109375,1.03125,88
89,1695772797103,-0.2290039,-0.9175415,0.22479248,-4.375,0.09375,-0.46875,89
90,1695772797143,-0.22216797,-0.9627075,0.31707764,3.53125,2.09375,0.6875,90
91,1695772797183,-0.22314453,-0.98516846,0.2826538,4.84375,-0.1875,2.625,91
92,1695772797223,-0.20166016,-0.9846802,0.26654053,2.171875,-1.84375,2.5625,92
93,1695772797263,-0.21777344,-0.9475708,0.25628662,-0.234375,-0.09375,5.140625,93
94,1695772797303,-0.21142578,-0.9553833,0.24603271,1.203125,-0.421875,4.046875,94
95,1695772797343,-0.20581055,-0.9690552,0.25628662,0.171875,-0.09375,1.828125,95
96,1695772797383,-0.17089844,-0.9805298,0.25360107,0.328125,0.796875,1.0625,96
97,1695772797423,-0.17041016,-0.96661377,0.23309326,-0.390625,-0.90625,2.421875,97
98,1695772797463,-0.1784668,-0.97979736,0.26434326,-0.515625,0.078125,1.28125,98
99,1695772797503,-0.20092773,-0.9378052,0.24481201,-1.140625,0.234375,-0.265625,99
100,1695772797543,-0.18652344,-0.9729614,0.26312256,-1.84375,0.46875,-2.34375,100
101,1695772797583,-0.19873047,-0.9768677,0.27801514,0.65625,-0.0625,-0.28125,101
102,1695772797623,-0.1784668,-0.98272705,0.25213623,-0.90625,-0.390625,-0.875,102
103,1695772797663,-0.20629883,-0.95196533,0.26141357,-0.78125,1.046875,-0.6875,103
104,1695772797703,-0.1862793,-0.96832275,0.25042725,-1.59375,-0.21875,-2.40625,104
105,1695772797743,-0.18334961,-0.9668579,0.25628662,-3.0,0.53125,-3.015625,105
106,1695772797783,-0.19458008,-0.96539307,0.25408936,-0.6875,1.1875,-0.78125,106
107,1695772797823,-0.1965332,-0.9690552,0.26312256,0.015625,1.1875,-1.25,107
108,1695772797863,-0.21459961,-0.9585571,0.25994873,0.859375,1.296875,-0.828125,108
109,1695772797903,-0.19482422,-0.95635986,0.24456787,-0.28125,1.890625,-1.953125,109
110,1695772797943,-0.19482422,-0.96759033,0.26849365,-0.171875,1.53125,-1.53125,110
111,1695772797983,-0.19897461,-0.9702759,0.26434326,0.5,1.46875,-0.453125,111
112,1695772798023,-0.1940918,-0.9636841,0.24627686,-0.78125,1.625,-0.390625,112
113,1695772798063,-0.1875,-0.96661377,0.2531128,-0.265625,1.390625,-1.984375,113
114,1695772798103,-0.20410156,-0.96661377,0.2543335,2.03125,1.484375,1.859375,114
115,1695772798143,-0.19750977,-0.9578247,0.25115967,-0.078125,1.828125,-0.828125,115
116,1695772798183,-0.19555664,-0.97125244,0.24188232,0.515625,0.546875,-1.109375,116
117,1695772798223,-0.1977539,-0.9710083,0.24798584,0.3125,1.65625,-0.09375,117
118,1695772798263,-0.19921875,-0.9636841,0.24310303,-0.5625,0.078125,-0.640625,118
119,1695772798303,-0.20532227,-0.9727173,0.25360107,-0.71875,0.390625,-1.03125,119
120,1695772798343,-0.2043457,-0.96221924,0.24725342,-0.578125,0.296875,-1.09375,120
121,1695772798383,-0.20605469,-0.96710205,0.24676514,-1.578125,0.5,-1.78125,121
122,1695772798423,-0.20629883,-0.96710205,0.25506592,0.140625,0.84375,-1.1875,122
123,1695772798463,-0.21118164,-0.9710083,0.25653076,0.0625,1.0625,-0.140625,123
124,1695772798503,-0.22314453,-0.95562744,0.24066162,-0.34375,1.296875,-0.5625,124
125,1695772798543,-0.21386719,-0.9627075,0.262146,1.625,1.984375,-0.6875,125
126,1695772798583,-0.19580078,-0.9644165,0.23480225,-3.171875,0.9375,-2.65625,126
127,1695772798623,-0.21459961,-0.9651489,0.26434326,-0.34375,0.34375,-0.71875,127
128,1695772798663,-0.22167969,-0.9661255,0.26116943,0.46875,0.515625,1.0625,128
129,1695772798703,-0.21899414,-0.96661377,0.23773193,-0.703125,0.796875,0.15625,129
130,1695772798743,-0.21533203,-0.95513916,0.246521,0.8125,0.78125,-0.640625,130
131,1695772798783,-0.203125,-0.95928955,0.24359131,1.296875,1.828125,0.078125,131
132,1695772798823,-0.20727539,-0.9873657,0.2501831,0.53125,-0.171875,0.53125,132
133,1695772798863,-0.21386719,-0.9612427,0.24041748,-1.453125,-0.078125,-0.046875,133
134,1695772798903,-0.2199707,-0.9495239,0.24578857,-0.265625,0.9375,-0.953125,134
135,1695772798943,-0.21264648,-0.98443604,0.24188232,0.78125,0.28125,0.765625,135
136,1695772798983,-0.21289062,-0.95196533,0.24920654,-0.65625,0.5,-0.71875,136
137,1695772799023,-0.2084961,-0.97979736,0.22772217,-0.828125,-0.09375,-0.765625,137
138,1695772799063,-0.20507812,-0.9470825,0.24261475,-0.296875,0.71875,-0.484375,138
139,1695772799103,-0.20214844,-0.97784424,0.25238037,-0.875,1.625,-0.375,139
140,1695772799143,-0.2084961,-0.972229,0.24090576,-2.65625,-0.203125,-1.015625,140
141,1695772799183,-0.22753906,-0.9627075,0.2543335,-0.03125,1.4375,0.734375,141
142,1695772799223,-0.20361328,-0.96417236,0.24481201,-1.359375,0.96875,0.28125,142
143,1695772799263,-0.20922852,-0.95977783,0.246521,-2.125,-0.71875,-1.34375,143
144,1695772799303,-0.1965332,-0.9639282,0.2506714,-1.671875,0.390625,-0.671875,144
145,1695772799343,-0.20507812,-0.9649048,0.2501831,-1.015625,-1.1875,0.984375,145
146,1695772799383,-0.20458984,-0.95977783,0.25164795,-2.640625,-1.390625,-0.375,146
147,1695772799423,-0.20898438,-0.9661255,0.25115967,-1.03125,-0.5625,-0.421875,147
148,1695772799463,-0.21655273,-0.95391846,0.24627686,-1.1875,-0.21875,-0.3125,148
149,1695772799503,-0.21972656,-0.9624634,0.24847412,-2.140625,-0.203125,-2.0,149
150,1695772799543,-0.20532227,-0.9607544,0.26507568,-0.15625,-0.640625,-0.640625,150
151,1695772799583,-0.21972656,-0.9920044,0.24749756,-2.125,-0.515625,-0.484375,151
152,1695772799623,-0.21484375,-0.9614868,0.2423706,-4.0625,-1.515625,-0.5625,152
153,1695772799663,-0.21411133,-0.958313,0.25408936,-5.140625,-0.84375,-2.984375,153
154,1695772799703,-0.1953125,-0.96221924,0.26116943,-5.53125,0.59375,-2.84375,154
155,1695772799743,-0.22827148,-0.93878174,0.25726318,-1.65625,1.515625,-2.53125,155
156,1695772799783,-0.23339844,-1.0357056,0.32733154,7.921875,3.53125,3.796875,156
157,1695772799823,-0.23901367,-0.9397583,0.24847412,-6.234375,-2.515625,-0.171875,157
158,1695772799863,-0.20874023,-0.9439087,0.26605225,-6.03125,-4.21875,-3.703125,158
159,1695772799903,-0.21875,-0.98394775,0.30096436,0.28125,-1.625,2.796875,159
160,1695772799943,-0.22314453,-0.92266846,0.29412842,-3.46875,-0.65625,-3.625,160
161,1695772799983,-0.18945312,-1.0447388,0.29437256,-5.453125,-2.59375,-1.0,161
162,1695772800023,-0.2861328,-0.85601807,0.21990967,1.015625,-3.984375,0.4375,162
163,1695772800063,-0.18579102,-1.0039673,0.33416748,4.34375,4.25,1.3125,163
164,1695772800103,-0.24316406,-0.93341064,0.25604248,3.671875,-3.5625,4.3125,164
165,1695772800143,-0.23217773,-0.87823486,0.25482178,1.75,1.4375,-1.96875,165
166,1695772800183,-0.18286133,-1.0073853,0.27191162,3.9375,0.9375,-1.1875,166
167,1695772800223,-0.22509766,-0.9199829,0.2662964,-3.296875,-0.984375,-0.484375,167
168,1695772800263,-0.2446289,-0.9829712,0.2609253,-3.046875,-2.03125,-2.3125,168
169,1695772800303,-0.20361328,-0.9812622,0.28875732,1.046875,2.46875,-1.828125,169
170,1695772800343,-0.22460938,-0.9663696,0.26483154,-2.640625,0.765625,0.875,170
171,1695772800383,-0.23071289,-0.940979,0.25994873,0.234375,0.234375,0.484375,171
172,1695772800423,-0.22509766,-0.94122314,0.27679443,2.015625,0.359375,0.734375,172
173,1695772800463,-0.22045898,-0.97491455,0.26141357,-0.296875,-0.9375,-0.34375,173
174,1695772800503,-0.22851562,-0.9558716,0.27264404,0.125,0.796875,0.40625,174
175,1695772800543,-0.23168945,-0.9636841,0.26556396,0.0,-0.140625,1.59375,175
176,1695772800583,-0.21801758,-0.9470825,0.2514038,-1.765625,0.703125,-0.6875,176
177,1695772800623,-0.2084961,-0.96759033,0.26263428,0.609375,-0.421875,-0.890625,177
178,1695772800663,-0.2084961,-0.9771118,0.25897217,-0.359375,0.3125,0.0625,178
179,1695772800703,-0.22143555,-0.9541626,0.26263428,0.5625,-0.6875,0.1875,179
180,1695772800743,-0.22094727,-0.95318604,0.24798584,-1.671875,-0.609375,-0.609375,180
181,1695772800783,-0.22680664,-0.956604,0.2682495,-1.390625,-1.15625,-1.28125,181
182,1695772800823,-0.2175293,-0.958313,0.2616577,1.46875,1.078125,-0.390625,182
183,1695772800863,-0.22167969,-0.98321533,0.2723999,0.671875,-0.578125,1.15625,183
184,1695772800903,-0.22192383,-0.94659424,0.2506714,0.46875,-1.015625,0.296875,184
185,1695772800943,-0.21948242,-0.9961548,0.24554443,0.453125,-1.78125,0.09375,185
186,1695772800983,-0.22143555,-0.94244385,0.2506714,-0.296875,-0.625,0.125,186
187,1695772801023,-0.2241211,-0.9656372,0.2543335,0.15625,-0.375,-0.328125,187
188,1695772801063,-0.22363281,-0.97662354,0.26312256,1.671875,-0.703125,1.484375,188
189,1695772801103,-0.20874023,-0.9282837,0.2267456,-3.640625,-0.15625,-1.15625,189
190,1695772801143,-0.22070312,-0.94976807,0.25457764,-2.3125,-0.890625,-3.46875,190
191,1695772801183,-0.2241211,-0.9924927,0.2789917,2.171875,1.328125,0.203125,191
192,1695772801223,-0.23120117,-0.9483032,0.24383545,-2.703125,0.75,-1.5,192
193,1695772801263,-0.22167969,-0.95880127,0.23284912,-3.765625,-1.140625,-2.9375,193
194,1695772801303,-0.20898438,-0.9475708,0.25482178,-2.03125,0.59375,-2.09375,194
195,1695772801343,-0.23217773,-0.97052,0.28485107,0.78125,0.1875,0.203125,195
196,1695772801383,-0.2409668,-0.97125244,0.24163818,-4.109375,-2.0625,-2.59375,196
197,1695772801423,-0.24584961,-0.9456177,0.25897217,-3.6875,-0.609375,-3.265625,197
198,1695772801463,-0.2331543,-0.9788208,0.293396,-1.53125,-0.140625,-1.3125,198
199,1695772801503,-0.24047852,-0.9458618,0.277771,-0.203125,-0.25,1.03125,199
200,1695772801543,-0.22631836,-1.00177,0.22283936,-5.046875,1.015625,-3.953125,200
201,1695772801583,-0.20776367,-0.98931885,0.31488037,-3.09375,-0.78125,0.25,201
202,1695772801623,-0.29516602,-0.8965454,0.24822998,-1.078125,-4.671875,2.25,202
203,1695772801663,-0.23852539,-0.95684814,0.25726318,4.21875,1.34375,-2.765625,203
204,1695772801703,-0.25878906,-0.9661255,0.27801514,7.09375,0.609375,4.625,204
205,1695772801743,-0.25097656,-0.909729,0.27508545,10.046875,1.875,0.546875,205
206,1695772801783,-0.23950195,-0.92852783,0.2140503,3.609375,1.703125,0.453125,206
207,1695772801823,-0.2409668,-0.92633057,0.24578857,1.71875,1.0625,0.171875,207
208,1695772801863,-0.2368164,-1.0100708,0.24285889,0.09375,-1.96875,-1.5625,208
209,1695772801903,-0.21704102,-0.99346924,0.24945068,-1.0,0.15625,-3.28125,209
210,1695772801943,-0.25439453,-0.9612427,0.2399292,-2.609375,0.390625,-0.296875,210
211,1695772801983,-0.25268555,-0.92144775,0.21087646,-0.90625,-0.578125,0.21875,211
212,1695772802023,-0.24243164,-0.9663696,0.23968506,0.796875,-1.328125,-1.8125,212
213,1695772802063,-0.23876953,-0.99298096,0.24847412,-0.6875,-0.046875,-1.296875,213
214,1695772802103,-0.26367188,-0.9585571,0.23577881,-0.53125,-0.390625,0.21875,214
215,1695772802143,-0.2487793,-0.9463501,0.22943115,-0.125,0.828125,-0.671875,215
216,1695772802183,-0.24316406,-0.95758057,0.24481201,0.296875,0.875,-0.484375,216
217,1695772802223,-0.2277832,-0.9751587,0.22650146,-2.09375,-0.125,-0.9375,217
218,1695772802263,-0.21948242,-0.9561157,0.23529053,-1.625,-1.6875,-2.21875,218
219,1695772802303,-0.23999023,-0.9727173,0.24163818,-0.71875,-1.71875,-0.203125,219
220,1695772802343,-0.25268555,-0.9631958,0.22845459,-1.84375,-1.625,1.0625,220
221,1695772802383,-0.25170898,-0.94781494,0.21282959,-2.484375,-0.484375,0.3125,221
222,1695772802423,-0.25610352,-0.9590454,0.24481201,-1.375,0.171875,0.40625,222
223,1695772802463,-0.26586914,-0.97198486,0.25164795,-1.03125,2.265625,1.1875,223
224,1695772802503,-0.2421875,-0.94903564,0.23114014,-0.203125,2.25,-0.359375,224
225,1695772802543,-0.23022461,-0.9561157,0.2531128,-1.296875,1.03125,-2.734375,225
226,1695772802583,-0.2355957,-0.9678345,0.24822998,0.015625,0.9375,-0.90625,226
227,1695772802623,-0.23754883,-0.9522095,0.2218628,-0.84375,0.5625,-0.828125,227
228,1695772802663,-0.25830078,-0.9495239,0.23968506,-1.375,0.6875,-0.71875,228
229,1695772802703,-0.2512207,-0.9758911,0.24163818,-0.203125,1.53125,-1.1875,229
230,1695772802743,-0.24536133,-0.95806885,0.24725342,-2.140625,1.515625,-0.59375,230
231,1695772802783,-0.24780273,-0.95269775,0.24163818,-0.265625,1.671875,-0.65625,231
232,1695772802823,-0.23413086,-0.97540283,0.22796631,-0.296875,0.09375,-1.84375,232
233,1695772802863,-0.23510742,-0.94366455,0.24066162,-1.5,-0.21875,-2.75,233
234,1695772802903,-0.24707031,-0.9819946,0.23284912,-1.078125,-1.25,-1.9375,234
235,1695772802943,-0.25561523,-0.9360962,0.23431396,-1.984375,-1.671875,-1.4375,235
236,1695772802983,-0.2775879,-0.9680786,0.26068115,1.21875,1.875,1.90625,236
237,1695772803023,-0.24536133,-0.9404907,0.22210693,-3.34375,0.4375,-1.625,237
238,1695772803063,-0.2475586,-0.96466064,0.2506714,-2.515625,-1.078125,-4.015625,238
239,1695772803103,-0.2529297,-0.9578247,0.25897217,-2.203125,-0.359375,-2.140625,239
240,1695772803143,-0.26586914,-0.9590454,0.2538452,-2.015625,-0.71875,0.53125,240
241,1695772803183,-0.26635742,-0.9417114,0.24798584,-0.90625,-1.109375,1.0,241
242,1695772803223,-0.28930664,-0.96661377,0.27191162,-0.4375,0.03125,1.21875,242
243,1695772803263,-0.27539062,-0.9529419,0.25335693,0.734375,1.734375,-1.15625,243
244,1695772803303,-0.25170898,-0.9421997,0.2345581,-2.484375,0.046875,-3.328125,244
245,1695772803343,-0.25268555,-0.9573364,0.27020264,-1.421875,0.125,-2.34375,245
246,1695772803383,-0.27270508,-0.95977783,0.25042725,0.578125,1.234375,0.359375,246
247,1695772803423,-0.28295898,-0.92315674,0.2543335,0.0625,2.640625,0.390625,247
248,1695772803463,-0.2734375,-0.9546509,0.246521,0.421875,1.71875,-1.1875,248
249,1695772803503,-0.23803711,-0.95806885,0.24285889,-2.796875,2.3125,-3.3125,249
250,1695772803543,-0.25952148,-0.95684814,0.27020264,0.265625,0.890625,-0.828125,250
251,1695772803583,-0.27270508,-0.96295166,0.25286865,0.609375,1.515625,-0.59375,251
252,1695772803623,-0.2746582,-0.9273071,0.24676514,-1.046875,1.140625,-1.015625,252
253,1695772803663,-0.27148438,-0.9680786,0.25653076,-0.75,0.21875,-1.171875,253
254,1695772803703,-0.27246094,-0.9607544,0.25213623,-0.140625,0.015625,1.203125,254
255,1695772803743,-0.2685547,-0.93341064,0.24310303,-1.28125,0.21875,-0.171875,255
256,1695772803783,-0.2644043,-0.94415283,0.25579834,1.015625,0.71875,-0.421875,256
257,1695772803823,-0.27416992,-0.95684814,0.2526245,-0.03125,0.109375,-0.46875,257
258,1695772803863,-0.2734375,-0.9517212,0.25457764,0.46875,0.359375,-0.21875,258
259,1695772803903,-0.27319336,-0.94903564,0.24139404,0.25,1.203125,-0.53125,259
260,1695772803943,-0.27075195,-0.95635986,0.25115967,0.609375,1.265625,-0.59375,260
261,1695772803983,-0.27246094,-0.956604,0.24261475,1.03125,1.3125,-0.578125,261
262,1695772804023,-0.2770996,-0.9319458,0.22821045,3.03125,1.46875,0.34375,262
263,1695772804063,-0.2578125,-0.97076416,0.24407959,1.03125,1.8125,-2.078125,263
264,1695772804103,-0.26586914,-0.9356079,0.22454834,-0.1875,-0.5625,-0.25,264
265,1695772804143,-0.26586914,-0.96832275,0.24920654,2.53125,3.234375,1.984375,265
266,1695772804183,-0.2788086,-0.96539307,0.25213623,-0.3125,0.375,0.671875,266
267,1695772804223,-0.28930664,-0.9397583,0.2321167,-2.734375,0.15625,-2.84375,267
268,1695772804263,-0.27416992,-0.9553833,0.24554443,-0.03125,0.703125,-0.359375,268
269,1695772804303,-0.26000977,-0.9783325,0.22845459,-0.875,1.765625,1.75,269
270,1695772804343,-0.26049805,-0.9631958,0.23699951,-0.78125,1.4375,3.125,270
271,1695772804383,-0.26904297,-0.95635986,0.23699951,-0.9375,-0.09375,2.296875,271
272,1695772804423,-0.2705078,-0.9507446,0.23577881,-1.21875,0.859375,3.3125,272
273,1695772804463,-0.22143555,-0.9221802,0.23406982,-2.1875,-0.828125,-1.078125,273
274,1695772804503,-0.2602539,-0.9846802,0.2518921,-2.421875,-2.921875,0.71875,274
275,1695772804543,-0.24584961,-0.9522095,0.23699951,-1.421875,-0.75,-0.796875,275
276,1695772804583,-0.27416992,-0.96588135,0.24920654,-1.671875,-0.671875,2.1875,276
277,1695772804623,-0.265625,-0.95928955,0.22528076,-2.375,-0.140625,0.578125,277
278,1695772804663,-0.2626953,-0.96343994,0.2518921,-3.28125,-0.21875,0.703125,278
279,1695772804703,-0.23754883,-0.9649048,0.26385498,-2.9375,2.0625,2.40625,279
280,1695772804743,-0.23510742,-0.94537354,0.23577881,-1.90625,1.265625,3.796875,280
281,1695772804783,-0.25390625,-0.9414673,0.2538452,-2.859375,1.203125,1.84375,281
282,1695772804823,-0.2541504,-0.96221924,0.26898193,-2.3125,-0.09375,-0.171875,282
283,1695772804863,-0.25463867,-0.9690552,0.25482178,-4.140625,-0.734375,-0.640625,283
284,1695772804903,-0.25219727,-0.913147,0.26385498,-1.59375,2.875,1.15625,284
285,1695772804943,-0.22436523,-0.97198486,0.28753662,0.328125,0.703125,0.234375,285
286,1695772804983,-0.24804688,-0.96710205,0.25042725,-0.1875,0.515625,2.546875,286
287,1695772805023,-0.23266602,-0.9402466,0.2538452,-0.375,-1.34375,-0.90625,287
288,1695772805063,-0.24731445,-0.9644165,0.2826538,-0.234375,-1.03125,0.609375,288
289,1695772805103,-0.24609375,-0.9639282,0.260437,1.03125,1.84375,2.71875,289
290,1695772805143,-0.22509766,-0.95196533,0.2597046,-1.53125,1.078125,0.875,290
291,1695772805183,-0.23046875,-0.9783325,0.27923584,-1.078125,-1.234375,0.265625,291
292,1695772805223,-0.234375,-0.93341064,0.2670288,0.984375,0.9375,0.34375,292
293,1695772805263,-0.2163086,-0.9800415,0.24505615,-1.546875,1.71875,-0.6875,293
294,1695772805303,-0.22827148,-0.9507446,0.26654053,0.28125,-0.21875,-0.390625,294
295,1695772805343,-0.23803711,-0.9717407,0.26678467,-3.328125,-0.5,0.046875,295
296,1695772805383,-0.23413086,-0.9351196,0.25897217,-3.296875,-1.59375,-0.203125,296
297,1695772805423,-0.21191406,-0.9793091,0.27850342,-1.515625,-1.75,-0.703125,297
298,1695772805463,-0.21777344,-0.975647,0.24554443,0.859375,-1.703125,2.109375,298
299,1695772805503,-0.2175293,-0.95440674,0.28875732,0.421875,-0.53125,-0.09375,299
300,1695772805543,-0.24829102,-0.94122314,0.23114014,-3.296875,-0.328125,-1.15625,300
301,1695772805583,-0.21948242,-0.9624634,0.29656982,-0.125,-0.09375,-0.53125,301
302,1695772805623,-0.23754883,-0.9678345,0.2682495,3.359375,-2.671875,1.1875,302
303,1695772805663,-0.18457031,-1.0078735,0.2506714,4.6875,-0.375,1.296875,303
304,1695772805703,-0.24780273,-0.9277954,0.27947998,2.6875,4.171875,1.234375,304
305,1695772805743,-0.20996094,-0.95806885,0.2140503,12.078125,1.390625,-1.5625,305
306,1695772805783,-0.23657227,-0.9241333,0.22015381,5.671875,0.640625,2.875,306
307,1695772805823,-0.20898438,-0.9116821,0.15863037,4.140625,-3.671875,-2.390625,307
308,1695772805863,-0.19482422,-0.9636841,0.20697021,2.109375,-0.78125,0.25,308
309,1695772805903,-0.20288086,-0.9854126,0.23162842,-0.03125,-1.671875,0.078125,309
310,1695772805943,-0.23242188,-1.0122681,0.24310303,0.265625,0.984375,1.390625,310
311,1695772805983,-0.22729492,-0.9692993,0.22235107,-3.734375,0.796875,-0.9375,311
312,1695772806023,-0.21801758,-0.93292236,0.20941162,-1.84375,-1.125,0.265625,312
313,1695772806063,-0.21069336,-0.96710205,0.20550537,-1.484375,0.171875,1.40625,313
314,1695772806103,-0.19091797,-1.0010376,0.21746826,-5.265625,-0.59375,-1.90625,314
315,1695772806143,-0.22290039,-0.9663696,0.20477295,-4.5,0.59375,-4.171875,315
316,1695772806183,-0.22094727,-0.9585571,0.25872803,4.078125,1.984375,-0.484375,316
317,1695772806223,-0.22314453,-0.9678345,0.20648193,1.75,-0.1875,0.6875,317
318,1695772806263,-0.23242188,-0.9439087,0.22235107,0.640625,-0.125,-0.5625,318
319,1695772806303,-0.2211914,-1.0012817,0.22528076,-0.8125,-1.390625,0.171875,319
320,1695772806343,-0.22827148,-0.96099854,0.23138428,0.296875,-1.359375,-0.671875,320
321,1695772806383,-0.23901367,-0.9614868,0.21063232,-2.109375,0.375,-0.1875,321
322,1695772806423,-0.21240234,-0.9534302,0.20648193,-2.796875,-0.328125,-2.140625,322
323,1695772806463,-0.22460938,-0.98150635,0.21844482,-0.625,-0.5625,-0.625,323
324,1695772806503,-0.2331543,-0.96661377,0.21136475,0.859375,0.546875,0.359375,324
325,1695772806543,-0.23706055,-0.9793091,0.21942139,-2.828125,-0.640625,-1.625,325
326,1695772806583,-0.23388672,-0.94781494,0.21600342,-1.4375,1.203125,-1.140625,326
327,1695772806623,-0.22680664,-0.9746704,0.2255249,-1.328125,0.3125,-2.203125,327
328,1695772806663,-0.22924805,-0.9710083,0.21478271,-1.578125,-0.609375,-3.1875,328
329,1695772806703,-0.24169922,-0.97003174,0.23553467,-2.21875,-0.90625,-1.546875,329
330,1695772806743,-0.24951172,-0.94781494,0.22161865,0.078125,0.5625,-0.5625,330
331,1695772806783,-0.23876953,-0.95513916,0.2230835,-3.359375,0.734375,-1.203125,331
332,1695772806823,-0.2277832,-0.98394775,0.22698975,1.09375,1.90625,-0.265625,332
333,1695772806863,-0.23339844,-0.96661377,0.22821045,-0.03125,2.625,1.546875,333
334,1695772806903,-0.24267578,-0.9590454,0.22332764,-2.34375,1.328125,-0.328125,334
335,1695772806943,-0.22192383,-0.95391846,0.23626709,-1.4375,1.359375,-3.0,335
336,1695772806983,-0.23291016,-0.98687744,0.24578857,1.234375,1.015625,1.109375,336
337,1695772807023,-0.23364258,-0.9710083,0.22113037,-2.484375,0.171875,0.734375,337
338,1695772807063,-0.22875977,-0.9495239,0.2267456,0.96875,0.25,0.40625,338
339,1695772807103,-0.23266602,-0.96173096,0.25091553,-0.3125,0.71875,-0.46875,339
340,1695772807143,-0.23461914,-0.9776001,0.22283936,-0.953125,-1.40625,-0.25,340
341,1695772807183,-0.21826172,-0.95147705,0.22650146,-1.9375,-1.0625,-0.46875,341
342,1695772807223,-0.23950195,-0.9768677,0.2321167,0.15625,-0.46875,1.796875,342
343,1695772807263,-0.23388672,-0.95025635,0.23602295,-0.90625,-0.25,0.328125,343
344,1695772807303,-0.23046875,-0.9692993,0.22088623,-1.78125,-2.109375,-1.859375,344
345,1695772807343,-0.22485352,-0.96661377,0.2345581,-0.75,-1.859375,0.1875,345
346,1695772807383,-0.23242188,-0.9717407,0.22332764,-3.3125,-2.1875,0.28125,346
347,1695772807423,-0.24536133,-0.9636841,0.23431396,-0.578125,-1.78125,0.328125,347
348,1695772807463,-0.24438477,-0.9524536,0.22796631,-1.953125,-0.453125,-0.40625,348
349,1695772807503,-0.24707031,-0.95684814,0.23040771,-1.890625,-1.6875,-2.0625,349
350,1695772807543,-0.23999023,-0.9507446,0.24285889,0.78125,0.765625,-0.390625,350
351,1695772807583,-0.23461914,-0.9651489,0.22991943,-0.90625,-0.96875,-1.953125,351
352,1695772807623,-0.25854492,-0.9595337,0.23577881,0.390625,-0.671875,-0.78125,352
353,1695772807663,-0.24487305,-0.97076416,0.2218628,0.171875,0.625,-0.5625,353
354,1695772807703,-0.23461914,-0.956604,0.2255249,0.46875,1.078125,-1.15625,354
355,1695772807743,-0.26123047,-0.96051025,0.2506714,0.6875,1.203125,0.21875,355
356,1695772807783,-0.24536133,-0.9673462,0.22259521,-2.59375,1.125,-1.046875,356
357,1695772807823,-0.2253418,-0.9678345,0.21575928,-1.734375,0.65625,-1.53125,357
358,1695772807863,-0.23339844,-0.97784424,0.24456787,0.453125,2.203125,1.296875,358
359,1695772807903,-0.24145508,-0.95513916,0.22161865,-2.296875,1.6875,0.078125,359
360,1695772807943,-0.24194336,-0.95025635,0.23846436,-2.359375,0.859375,-2.15625,360
361,1695772807983,-0.24047852,-0.96539307,0.24212646,1.109375,1.84375,0.109375,361
362,1695772808023,-0.22753906,-0.9668579,0.23529053,-3.3125,0.0625,-0.921875,362
363,1695772808063,-0.25830078,-0.96221924,0.2526245,-1.421875,0.625,0.15625,363
364,1695772808103,-0.2644043,-0.94732666,0.23773193,-0.15625,1.921875,-0.734375,364
365,1695772808143,-0.24316406,-0.9607544,0.23406982,-1.046875,1.5625,-2.28125,365
366,1695772808183,-0.23754883,-0.9624634,0.24334717,0.640625,3.484375,-1.625,366
367,1695772808223,-0.24121094,-0.96539307,0.23016357,-0.828125,1.359375,-0.53125,367
368,1695772808263,-0.23925781,-0.9673462,0.2321167,-0.8125,1.296875,-1.015625,368
369,1695772808303,-0.24267578,-0.9619751,0.2411499,-0.390625,1.6875,1.453125,369
370,1695772808343,-0.23535156,-0.9553833,0.24578857,-0.484375,1.28125,1.953125,370
371,1695772808383,-0.23266602,-0.9651489,0.2374878,-0.78125,-0.0625,0.1875,371
372,1695772808423,-0.22143555,-0.96099854,0.23626709,-0.796875,-0.796875,-0.890625,372
373,1695772808463,-0.2368164,-0.973938,0.23797607,-1.921875,-1.8125,-0.734375,373
374,1695772808503,-0.23510742,-0.973938,0.25042725,-1.640625,-1.3125,0.296875,374
375,1695772808543,-0.2565918,-0.9507446,0.22650146,-2.90625,-0.046875,0.0625,375
376,1695772808583,-0.2475586,-0.97052,0.2538452,-1.59375,0.78125,-0.171875,376
377,1695772808623,-0.24658203,-0.9390259,0.24383545,-0.421875,2.328125,-0.734375,377
378,1695772808663,-0.25024414,-0.9607544,0.25750732,-2.34375,0.125,-2.875,378
379,1695772808703,-0.25732422,-0.97076416,0.2543335,-0.640625,0.296875,-0.78125,379
380,1695772808743,-0.2355957,-0.96466064,0.23944092,-1.078125,0.953125,-0.25,380
381,1695772808783,-0.24267578,-0.9541626,0.2514038,-1.015625,0.515625,1.03125,381
382,1695772808823,-0.234375,-0.95977783,0.25579834,0.1875,0.375,1.046875,382
383,1695772808863,-0.23803711,-0.958313,0.25360107,-0.453125,-0.453125,0.84375,383
384,1695772808903,-0.25146484,-0.95684814,0.24505615,-1.078125,-0.453125,0.828125,384
385,1695772808943,-0.24511719,-0.95318604,0.24017334,-0.234375,-0.046875,0.296875,385
386,1695772808983,-0.23730469,-0.97052,0.24139404,-0.421875,1.171875,2.15625,386
387,1695772809023,-0.2409668,-0.95318604,0.2345581,-1.140625,-0.28125,1.828125,387
388,1695772809063,-0.21972656,-0.9783325,0.25091553,-1.109375,1.046875,2.578125,388
389,1695772809103,-0.21948242,-0.9522095,0.2506714,-2.421875,0.390625,1.9375,389
390,1695772809143,-0.23413086,-0.9585571,0.2526245,-3.078125,-1.046875,1.765625,390
391,1695772809183,-0.22509766,-0.9414673,0.24847412,-4.078125,-0.421875,-1.34375,391
392,1695772809223,-0.171875,-1.0083618,0.2658081,-3.796875,-2.546875,-5.546875,392
393,1695772809263,-0.22265625,-1.006897,0.28045654,-8.765625,-2.359375,0.46875,393
394,1695772809303,-0.26391602,-0.95806885,0.27557373,6.71875,1.375,0.96875,394
395,1695772809343,-0.21948242,-0.9661255,0.25579834,4.53125,2.6875,5.5625,395
396,1695772809383,-0.29492188,-0.8374634,0.22357178,11.421875,-0.328125,2.921875,396
397,1695772809423,-0.19677734,-0.9714966,0.23162842,4.4375,0.828125,-2.34375,397
398,1695772809463,-0.2109375,-0.96221924,0.24578857,0.609375,-1.140625,-3.96875,398
399,1695772809503,-0.2319336,-1.0015259,0.25628662,2.203125,1.578125,0.359375,399
400,1695772809543,-0.23120117,-0.9451294,0.20697021,-2.15625,-1.890625,0.625,400
401,1695772809583,-0.21679688,-0.9561157,0.22698975,-2.796875,0.890625,-2.21875,401
402,1695772809623,-0.22729492,-0.989563,0.24285889,-1.21875,0.21875,-2.328125,402
403,1695772809663,-0.234375,-0.9463501,0.23138428,0.234375,1.0625,-0.140625,403
404,1695772809703,-0.21557617,-0.9800415,0.22406006,-4.234375,-1.375,-2.453125,404
405,1695772809743,-0.19946289,-0.97662354,0.24432373,0.5,-0.109375,-0.9375,405
406,1695772809783,-0.23413086,-0.9783325,0.23846436,2.828125,0.828125,2.90625,406
407,1695772809823,-0.24560547,-0.93878174,0.23675537,1.46875,-0.71875,-0.0625,407
408,1695772809863,-0.22583008,-0.9717407,0.20697021,-1.34375,-0.515625,-1.890625,408
409,1695772809903,-0.21533203,-0.9690552,0.2387085,0.515625,-0.765625,-0.453125,409
410,1695772809943,-0.21972656,-0.9763794,0.22576904,-1.0625,0.03125,0.734375,410
411,1695772809983,-0.24780273,-0.9673462,0.22528076,0.640625,0.171875,0.34375,411
412,1695772810023,-0.22875977,-0.95440674,0.23065186,-1.03125,2.3125,0.28125,412
413,1695772810063,-0.2109375,-0.9614868,0.21942139,-2.4375,-0.328125,-1.734375,413
414,1695772810103,-0.23120117,-0.958313,0.23968506,-1.828125,-0.125,-1.75,414
415,1695772810143,-0.23339844,-0.98321533,0.23260498,-0.3125,-0.59375,-2.4375,415
416,1695772810183,-0.23022461,-0.94195557,0.22650146,-1.75,-0.328125,-2.359375,416
417,1695772810223,-0.2421875,-0.9849243,0.23504639,-1.734375,-2.4375,-1.171875,417
418,1695772810263,-0.24438477,-0.96099854,0.24285889,-2.09375,0.109375,-0.078125,418
419,1695772810303,-0.23803711,-0.96343994,0.2321167,-3.515625,-0.953125,-1.09375,419
420,1695772810343,-0.2763672,-0.9624634,0.2765503,-0.234375,1.1875,0.921875,420
421,1695772810383,-0.2548828,-0.9480591,0.21356201,-1.484375,2.234375,0.953125,421
422,1695772810423,-0.22973633,-0.9385376,0.22064209,-2.53125,0.0625,-3.03125,422
423,1695772810463,-0.23486328,-0.991272,0.25897217,-0.359375,0.25,-2.59375,423
424,1695772810503,-0.2331543,-0.9805298,0.2477417,-1.9375,-0.671875,-0.828125,424
425,1695772810543,-0.23999023,-0.9356079,0.23773193,-1.84375,-0.640625,-0.078125,425
426,1695772810583,-0.2487793,-0.9685669,0.24163818,-1.984375,-2.125,-0.953125,426
427,1695772810623,-0.24536133,-0.9590454,0.24163818,-2.109375,-0.71875,-1.296875,427
428,1695772810663,-0.2487793,-0.98516846,0.2501831,-1.953125,-1.890625,-1.09375,428
429,1695772810703,-0.24389648,-0.9463501,0.23699951,-5.453125,-1.609375,0.359375,429
430,1695772810743,-0.23632812,-0.97735596,0.2374878,-6.453125,-4.578125,0.359375,430
431,1695772810783,-0.24389648,-0.9590454,0.26263428,-1.890625,-1.734375,3.78125,431
432,1695772810823,-0.23828125,-0.97369385,0.25213623,-4.734375,-3.1875,0.5625,432
433,1695772810863,-0.20629883,-1.0039673,0.29656982,-0.578125,1.28125,0.125,433
434,1695772810903,-0.26391602,-1.0466919,0.31414795,-13.5,-2.5625,9.671875,434
435,1695772810943,-0.24487305,-0.7871704,0.19378662,-3.015625,-6.171875,-0.28125,435
436,1695772810983,-0.23852539,-0.9661255,0.291687,4.734375,-1.203125,3.796875,436
437,1695772811023,-0.24072266,-0.88116455,0.25750732,12.671875,2.234375,8.5,437
438,1695772811063,-0.22485352,-0.8933716,0.21600342,-2.546875,1.40625,-4.0625,438
439,1695772811103,-0.21044922,-1.0249634,0.291687,-3.890625,-7.390625,-7.515625,439
440,1695772811143,-0.24902344,-1.0042114,0.28485107,3.203125,-1.171875,2.375,440
441,1695772811183,-0.20825195,-0.9483032,0.2645874,-1.09375,-0.015625,0.8125,441
442,1695772811223,-0.24145508,-0.98760986,0.25286865,-2.9375,-4.15625,1.046875,442
443,1695772811263,-0.23657227,-0.92803955,0.25042725,-2.125,-1.28125,-0.1875,443
444,1695772811303,-0.24291992,-0.9434204,0.27044678,0.921875,-1.40625,-0.03125,444
445,1695772811343,-0.25390625,-0.9812622,0.2662964,0.265625,0.46875,-1.4375,445
446,1695772811383,-0.23706055,-0.9692993,0.25994873,-1.6875,2.5625,0.125,446
447,1695772811423,-0.22680664,-0.95684814,0.26507568,-0.71875,1.125,-0.703125,447
448,1695772811463,-0.2397461,-0.94073486,0.2772827,0.8125,2.265625,-0.21875,448
449,1695772811503,-0.21777344,-0.975647,0.26263428,-0.78125,0.578125,-0.9375,449
450,1695772811543,-0.21972656,-0.96051025,0.26531982,-1.34375,2.203125,0.453125,450
451,1695772811583,-0.23876953,-0.9663696,0.25335693,0.5625,2.0625,2.09375,451
452,1695772811623,-0.23583984,-0.9451294,0.26116943,-1.296875,2.59375,0.109375,452
453,1695772811663,-0.21850586,-0.9495239,0.27435303,0.640625,2.640625,-0.609375,453
454,1695772811703,-0.21875,-0.975647,0.28826904,0.25,4.203125,0.671875,454
455,1695772811743,-0.19799805,-0.94854736,0.25994873,0.03125,2.03125,-1.21875,455
456,1695772811783,-0.19580078,-0.92510986,0.26434326,3.953125,0.8125,-1.53125,456
457,1695772811823,-0.20239258,-0.98443604,0.27337646,-1.1875,-1.40625,-2.78125,457
458,1695772811863,-0.30029297,-0.987854,0.27508545,5.125,1.90625,6.8125,458
459,1695772811903,-0.22875977,-0.9763794,0.24700928,-2.46875,3.21875,-1.3125,459
460,1695772811943,-0.21264648,-0.98101807,0.2489624,-3.265625,-0.390625,-3.484375,460
461,1695772811983,-0.2097168,-0.97076416,0.2555542,0.671875,5.328125,1.09375,461
462,1695772812023,-0.19848633,-0.94537354,0.22332764,-3.296875,3.53125,1.875,462
463,1695772812063,-0.22705078,-0.9714966,0.2597046,-2.1875,0.953125,2.015625,463
464,1695772812103,-0.22558594,-0.9793091,0.27801514,-2.609375,4.5,0.828125,464
465,1695772812143,-0.22851562,-0.92755127,0.2711792,-0.484375,4.640625,1.1875,465
466,1695772812183,-0.20922852,-0.93756104,0.24578857,-3.03125,2.765625,-2.984375,466
467,1695772812223,-0.18237305,-0.9414673,0.26605225,1.25,0.65625,-2.484375,467
468,1695772812263,-0.19750977,-0.96051025,0.2831421,0.078125,1.953125,-2.140625,468
469,1695772812303,-0.24316406,-0.9685669,0.2555542,1.3125,0.625,1.9375,469
470,1695772812343,-0.21411133,-0.9690552,0.260437,-7.578125,-2.484375,-3.0625,470
471,1695772812383,-0.20581055,-0.9710083,0.2670288,-2.703125,-2.0625,0.3125,471
472,1695772812423,-0.21069336,-1.00177,0.25775146,-1.9375,2.59375,1.046875,472
473,1695772812463,-0.22363281,-1.0090942,0.29022217,-3.578125,4.6875,4.015625,473
474,1695772812503,-0.2446289,-0.96539307,0.29730225,-9.109375,3.75,6.84375,474
475,1695772812543,-0.2199707,-0.9138794,0.2399292,-0.125,-1.96875,4.03125,475
476,1695772812583,-0.1081543,-1.0108032,0.32928467,10.640625,4.046875,10.078125,476
477,1695772812623,-0.20361328,-0.88067627,0.24798584,6.125,0.0,5.6875,477
478,1695772812663,-0.115234375,-0.9500122,0.22479248,1.21875,-8.65625,-2.40625,478
479,1695772812703,-0.17236328,-0.94000244,0.28582764,2.484375,-2.734375,-2.296875,479
480,1695772812743,-0.19433594,-0.9456177,0.26531982,0.03125,-3.8125,-1.953125,480
481,1695772812783,-0.20727539,-0.98272705,0.2687378,0.078125,-4.625,0.21875,481
482,1695772812823,-0.16967773,-0.9883423,0.3204956,1.453125,1.734375,-2.140625,482
483,1695772812863,-0.22216797,-0.9866333,0.2411499,-5.359375,-0.75,0.546875,483
484,1695772812903,-0.23461914,-0.8867798,0.20599365,-2.765625,-6.515625,-6.9375,484
485,1695772812943,-0.14868164,-0.97003174,0.28729248,5.09375,-2.265625,-9.28125,485
486,1695772812983,-0.17822266,-0.9902954,0.2597046,4.984375,-2.984375,-4.703125,486
487,1695772813023,-0.2265625,-0.9558716,0.23040771,1.671875,-5.390625,-5.734375,487
488,1695772813063,-0.24023438,-0.93951416,0.22161865,1.78125,-4.359375,-10.90625,488
489,1695772813103,-0.26879883,-0.97906494,0.26776123,3.90625,-3.59375,-10.578125,489
490,1695772813143,-0.2680664,-0.9495239,0.21990967,1.703125,-0.703125,-10.203125,490
491,1695772813183,-0.26220703,-0.9776001,0.23675537,-1.75,-1.875,-9.8125,491
492,1695772813223,-0.29370117,-0.9290161,0.21453857,1.109375,2.21875,-8.71875,492
493,1695772813263,-0.28808594,-0.9973755,0.27288818,3.546875,0.296875,-4.921875,493
494,1695772813303,-0.30981445,-0.95684814,0.2177124,-5.59375,0.53125,-4.65625,494
495,1695772813343,-0.28955078,-0.94854736,0.21234131,-3.9375,0.53125,-6.296875,495
496,1695772813383,-0.27954102,-0.9758911,0.25726318,1.578125,2.921875,-1.71875,496
497,1695772813423,-0.31860352,-0.9602661,0.2243042,-0.828125,3.1875,5.140625,497
498,1695772813463,-0.3022461,-0.9500122,0.2321167,-3.21875,-0.359375,-0.3125,498
499,1695772813503,-0.29248047,-0.95806885,0.24822998,-1.625,3.25,3.921875,499
500,1695772813543,-0.28710938,-0.96099854,0.22479248,-3.25,2.96875,4.90625,500
501,1695772813583,-0.27197266,-0.9536743,0.23529053,-0.8125,2.484375,4.03125,501
502,1695772813623,-0.30004883,-0.9402466,0.262146,-3.515625,2.96875,3.84375,502
503,1695772813663,-0.28393555,-0.95025635,0.24554443,-2.046875,3.03125,4.4375,503
504,1695772813703,-0.25805664,-0.9312134,0.24700928,-4.40625,3.46875,3.640625,504
505,1695772813743,-0.24731445,-0.97247314,0.26898193,-3.515625,2.40625,2.96875,505
506,1695772813783,-0.25756836,-0.9746704,0.27557373,-3.375,1.40625,6.203125,506
507,1695772813823,-0.25,-0.92388916,0.2543335,-2.90625,3.484375,5.953125,507
508,1695772813863,-0.2253418,-0.958313,0.26483154,-5.921875,0.515625,3.875,508
509,1695772813903,-0.22973633,-0.94488525,0.27752686,-6.109375,-0.859375,2.515625,509
510,1695772813943,-0.21020508,-0.9619751,0.30194092,-6.1875,-0.234375,1.109375,510
511,1695772813983,-0.20166016,-0.9631958,0.2699585,-8.359375,-3.28125,-0.703125,511
512,1695772814023,-0.23608398,-0.975647,0.27825928,-14.140625,-2.421875,-2.703125,512
513,1695772814063,-0.26757812,-0.99420166,0.36810303,0.390625,-2.296875,1.84375,513
514,1695772814103,-0.29956055,-0.9529419,0.32904053,0.65625,-0.875,6.203125,514
515,1695772814143,-0.22192383,-0.90338135,0.30828857,3.34375,2.84375,7.9375,515
516,1695772814183,-0.24047852,-0.88287354,0.23651123,11.734375,3.84375,11.21875,516
517,1695772814223,-0.21191406,-0.88116455,0.2921753,10.640625,1.734375,7.359375,517
518,1695772814263,-0.20361328,-0.98028564,0.25604248,2.6875,3.703125,-1.4375,518
519,1695772814303,-0.22387695,-0.9788208,0.2843628,1.21875,0.828125,1.296875,519
520,1695772814343,-0.19335938,-0.98516846,0.2736206,1.828125,4.0625,4.171875,520
521,1695772814383,-0.17553711,-0.9800415,0.28118896,0.09375,2.328125,1.21875,521
522,1695772814423,-0.17871094,-0.9763794,0.2567749,1.71875,0.359375,2.046875,522
523,1695772814463,-0.1821289,-0.93829346,0.26556396,4.21875,2.578125,3.609375,523
524,1695772814503,-0.17871094,-0.9727173,0.26116943,0.484375,1.6875,0.875,524
525,1695772814543,-0.16430664,-1.0064087,0.26190186,3.03125,1.640625,1.71875,525
526,1695772814583,-0.15698242,-0.9553833,0.25042725,0.84375,2.8125,1.078125,526
527,1695772814623,-0.1328125,-0.9873657,0.25042725,1.703125,1.078125,0.84375,527
528,1695772814663,-0.15405273,-0.972229,0.2531128,1.078125,-0.71875,1.046875,528
529,1695772814703,-0.14648438,-0.9817505,0.24212646,-1.109375,-1.234375,-0.21875,529
530,1695772814743,-0.17163086,-0.9783325,0.25579834,-0.15625,-2.25,-0.125,530
531,1695772814783,-0.17163086,-0.9627075,0.2489624,1.8125,0.5,0.0625,531
532,1695772814823,-0.15771484,-0.9612427,0.23480225,-1.84375,-1.21875,-2.328125,532
533,1695772814863,-0.16748047,-0.97662354,0.2506714,-0.671875,-2.703125,-2.21875,533
534,1695772814903,-0.17382812,-0.97369385,0.23114014,-0.890625,-1.171875,-1.171875,534
535,1695772814943,-0.19189453,-0.9619751,0.2411499,-0.46875,-0.546875,-0.78125,535
536,1695772814983,-0.18066406,-0.95391846,0.24798584,-1.28125,2.21875,-1.171875,536
537,1695772815023,-0.16992188,-0.97442627,0.24432373,-1.703125,-0.015625,-0.890625,537
538,1695772815063,-0.16308594,-0.97369385,0.24993896,-0.90625,2.140625,-1.59375,538
539,1695772815103,-0.15795898,-0.9817505,0.2453003,0.296875,0.28125,-2.84375,539
540,1695772815143,-0.16088867,-0.97784424,0.22601318,-0.96875,-0.671875,-2.40625,540
541,1695772815183,-0.16992188,-0.9651489,0.23529053,-1.65625,-0.625,-2.65625,541
542,1695772815223,-0.19189453,-0.9793091,0.2543335,2.375,1.328125,0.71875,542
543,1695772815263,-0.17407227,-0.9680786,0.2411499,-0.15625,1.875,-1.265625,543
544,1695772815303,-0.16137695,-0.989563,0.23651123,-1.9375,0.75,-1.96875,544
545,1695772815343,-0.15771484,-0.97320557,0.25335693,0.015625,0.5,-1.515625,545
546,1695772815383,-0.15966797,-0.9927368,0.24749756,-1.25,0.25,-0.46875,546
547,1695772815423,-0.1730957,-0.96099854,0.2374878,-2.6875,-0.890625,0.78125,547
548,1695772815463,-0.1899414,-0.9751587,0.2609253,-1.796875,-0.578125,0.609375,548
549,1695772815503,-0.1899414,-0.9685669,0.23822021,-1.640625,0.21875,-1.046875,549
550,1695772815543,-0.19189453,-0.9805298,0.26019287,-4.515625,0.296875,-2.5,550
551,1695772815583,-0.17163086,-0.9573364,0.230896,-1.484375,3.6875,-2.140625,551
552,1695772815623,-0.15478516,-0.98443604,0.27264404,-5.484375,0.640625,-3.109375,552
553,1695772815663,-0.17602539,-0.9734497,0.2514038,-2.296875,0.203125,-0.25,553
554,1695772815703,-0.16625977,-0.94537354,0.309021,-0.328125,3.40625,-0.59375,554
555,1695772815743,-0.21972656,-0.9553833,0.28411865,1.640625,0.0625,3.765625,555
556,1695772815783,-0.1940918,-0.93878174,0.23699951,-2.546875,-1.28125,-2.28125,556
557,1695772815823,-0.1796875,-0.9819946,0.29925537,-1.1875,-1.46875,-2.953125,557
558,1695772815863,-0.20800781,-0.986145,0.27825928,-0.25,0.3125,0.265625,558
559,1695772815903,-0.203125,-0.94244385,0.23822021,-2.453125,0.375,-2.078125,559
560,1695772815943,-0.20239258,-0.95684814,0.28656006,0.0,0.828125,-2.53125,560
561,1695772815983,-0.19335938,-0.975647,0.26361084,-2.453125,1.234375,-2.625,561
562,1695772816023,-0.17700195,-0.9500122,0.25408936,-2.609375,-0.125,-3.625,562
563,1695772816063,-0.20361328,-0.96295166,0.30389404,0.375,1.1875,-2.671875,563
564,1695772816103,-0.22094727,-0.9668579,0.28826904,0.53125,0.53125,-0.0625,564
565,1695772816143,-0.2290039,-0.92633057,0.2616577,-0.453125,0.734375,-0.46875,565
566,1695772816183,-0.19995117,-0.9656372,0.26239014,-0.84375,0.3125,-4.703125,566
567,1695772816223,-0.2277832,-0.94244385,0.2982788,-1.40625,1.15625,-2.53125,567
568,1695772816263,-0.20751953,-0.9697876,0.2645874,-0.453125,0.921875,-3.265625,568
569,1695772816303,-0.21948242,-0.95806885,0.2699585,-2.53125,0.0625,-1.125,569
570,1695772816343,-0.21411133,-0.9729614,0.26800537,0.578125,0.0,-2.328125,570
571,1695772816383,-0.2253418,-0.9517212,0.25872803,-2.390625,0.515625,-2.828125,571
572,1695772816423,-0.22460938,-0.9751587,0.29022217,-0.328125,-1.140625,-3.140625,572
573,1695772816463,-0.25219727,-0.95391846,0.28363037,0.484375,1.421875,-0.171875,573
574,1695772816503,-0.25610352,-0.9336548,0.2662964,-1.390625,1.84375,-1.34375,574
575,1695772816543,-0.23388672,-0.96221924,0.26678467,-0.078125,0.9375,-3.578125,575
576,1695772816583,-0.2265625,-0.96881104,0.2855835,-1.5,1.03125,-2.359375,576
577,1695772816623,-0.22875977,-0.9458618,0.29022217,-2.125,1.828125,-1.453125,577
578,1695772816663,-0.24487305,-0.9456177,0.2670288,-2.1875,-0.6875,-1.234375,578
579,1695772816703,-0.23364258,-0.9663696,0.29071045,-0.9375,0.703125,-1.65625,579
580,1695772816743,-0.2536621,-0.9590454,0.27972412,0.0,0.921875,-0.953125,580
581,1695772816783,-0.2446289,-0.94000244,0.28363037,-2.28125,-0.734375,-3.75,581
582,1695772816823,-0.26293945,-0.9404907,0.28216553,0.46875,0.984375,-0.84375,582
583,1695772816863,-0.22827148,-0.9570923,0.27069092,-0.84375,0.015625,-3.28125,583
584,1695772816903,-0.26171875,-0.9812622,0.29681396,-2.09375,-0.703125,-2.421875,584
585,1695772816943,-0.27685547,-0.92681885,0.28070068,0.046875,1.015625,-0.796875,585
586,1695772816983,-0.25439453,-0.9258423,0.27923584,0.3125,0.234375,-2.40625,586
587,1695772817023,-0.26489258,-0.95098877,0.26434326,-2.171875,0.640625,-2.125,587
588,1695772817063,-0.25634766,-0.9692993,0.30194092,-0.734375,0.78125,-2.359375,588
589,1695772817103,-0.27026367,-0.9590454,0.28948975,-1.015625,1.859375,0.484375,589
590,1695772817143,-0.27319336,-0.92193604,0.26849365,0.71875,0.578125,-0.203125,590
591,1695772817183,-0.24926758,-0.9631958,0.29241943,-0.15625,0.640625,-0.609375,591
592,1695772817223,-0.27563477,-0.9505005,0.28631592,1.46875,1.34375,1.71875,592
593,1695772817263,-0.25756836,-0.95562744,0.2723999,0.578125,1.359375,0.265625,593
594,1695772817303,-0.24975586,-0.9475708,0.27825928,-0.40625,0.953125,-0.078125,594
595,1695772817343,-0.25634766,-0.9619751,0.27337646,2.734375,0.890625,2.015625,595
596,1695772817383,-0.24682617,-0.9434204,0.28216553,1.171875,1.921875,1.59375,596
597,1695772817423,-0.24291992,-0.9656372,0.25408936,0.40625,-1.265625,1.15625,597
598,1695772817463,-0.23925781,-0.95025635,0.27093506,-0.484375,-0.640625,0.34375,598
599,1695772817503,-0.25048828,-0.9578247,0.26287842,0.8125,-0.890625,0.953125,599
600,1695772817543,-0.26489258,-0.960022,0.2687378,1.59375,-0.65625,2.171875,600
601,1695772817583,-0.2355957,-0.96954346,0.28070068,-0.03125,-1.203125,1.34375,601
602,1695772817623,-0.25830078,-0.96588135,0.25531006,-2.53125,-2.5,1.3125,602
603,1695772817663,-0.22583008,-0.9495239,0.26116943,-3.0,-0.109375,1.21875,603
604,1695772817703,-0.23632812,-0.9746704,0.27703857,-4.328125,-1.875,2.140625,604
605,1695772817743,-0.24169922,-0.98028564,0.2579956,-5.96875,-2.84375,2.015625,605
606,1695772817783,-0.23168945,-0.94781494,0.27874756,-6.046875,-2.703125,1.6875,606
607,1695772817823,-0.25439453,-0.95318604,0.27923584,-3.421875,-0.015625,3.28125,607
608,1695772817863,-0.24023438,-0.9307251,0.2850952,-0.859375,2.296875,4.5625,608
609,1695772817903,-0.21582031,-0.9517212,0.28900146,-3.828125,0.671875,1.375,609
610,1695772817943,-0.23950195,-0.958313,0.3156128,-1.1875,1.0625,1.5625,610
611,1695772817983,-0.21289062,-0.9365845,0.30169678,-2.1875,0.1875,-0.328125,611
612,1695772818023,-0.21899414,-0.94976807,0.30438232,-0.84375,-0.546875,0.5625,612
613,1695772818063,-0.21777344,-0.96417236,0.2921753,0.875,1.171875,1.03125,613
614,1695772818103,-0.19970703,-0.9578247,0.2982788,-1.25,0.421875,0.390625,614
615,1695772818143,-0.22949219,-0.92681885,0.2946167,1.65625,1.5,0.09375,615
616,1695772818183,-0.22460938,-0.96051025,0.2843628,2.921875,1.484375,-1.6875,616
617,1695772818223,-0.2163086,-0.9619751,0.31463623,5.5,2.40625,-1.265625,617
618,1695772818263,-0.21679688,-0.958313,0.27996826,0.3125,0.84375,-2.796875,618
619,1695772818303,-0.2121582,-0.94854736,0.2868042,-1.234375,0.21875,-3.359375,619
620,1695772818343,-0.25512695,-0.9561157,0.29193115,1.8125,2.9375,1.078125,620
621,1695772818383,-0.22924805,-0.93634033,0.29266357,-1.828125,1.328125,-2.0,621
622,1695772818423,-0.23828125,-0.9546509,0.27703857,-2.03125,-0.1875,-2.734375,622
623,1695772818463,-0.21948242,-0.9780884,0.29412842,6.40625,5.34375,2.328125,623
624,1695772818503,-0.22290039,-0.98760986,0.2682495,-1.34375,1.75,6.1875,624
625,1695772818543,-0.2241211,-0.9570923,0.27679443,-2.921875,2.1875,4.5,625
626,1695772818583,-0.22045898,-0.93951416,0.26898193,0.25,3.671875,3.921875,626
627,1695772818623,-0.15576172,-0.97125244,0.2506714,-5.453125,-0.21875,-3.3125,627
628,1695772818663,-0.18554688,-0.9439087,0.29656982,-0.890625,0.828125,-2.5625,628
629,1695772818703,-0.19604492,-0.98101807,0.32147217,5.375,-0.625,-2.453125,629
630,1695772818743,-0.20678711,-1.0164185,0.29632568,-2.546875,-6.078125,-1.71875,630
631,1695772818783,-0.2199707,-0.9336548,0.2592163,-3.484375,-4.28125,-2.578125,631
632,1695772818823,-0.2043457,-0.9170532,0.2616577,-0.875,-3.53125,-3.0625,632
633,1695772818863,-0.2265625,-0.98638916,0.3102417,1.703125,-3.0625,0.40625,633
634,1695772818903,-0.20727539,-0.9578247,0.2506714,-1.578125,-2.484375,0.0,634
635,1695772818943,-0.2619629,-0.96295166,0.29901123,-2.65625,-4.359375,0.96875,635
636,1695772818983,-0.24829102,-0.9522095,0.28363037,2.375,-3.640625,2.421875,636
637,1695772819023,-0.22827148,-0.9924927,0.3007202,0.046875,-3.59375,2.109375,637
638,1695772819063,-0.24291992,-0.94073486,0.2501831,0.484375,-0.546875,3.25,638
639,1695772819103,-0.20043945,-0.9368286,0.2538452,2.359375,-2.109375,0.109375,639
640,1695772819143,-0.20483398,-0.9812622,0.24017334,4.453125,-1.375,1.609375,640
641,1695772819183,-0.18286133,-0.90826416,0.23504639,4.453125,1.84375,3.640625,641
642,1695772819223,-0.18774414,-0.9727173,0.23260498,-3.21875,-2.203125,-2.21875,642
643,1695772819263,-0.25634766,-0.94195557,0.26678467,1.21875,-0.5,2.921875,643
644,1695772819303,-0.20410156,-0.97662354,0.24285889,-1.515625,-1.21875,-2.328125,644
645,1695772819343,-0.20117188,-0.986145,0.27703857,-1.375,-1.375,-2.8125,645
646,1695772819383,-0.22192383,-0.96881104,0.23382568,-2.484375,-0.890625,-0.421875,646
647,1695772819423,-0.21118164,-0.93048096,0.23480225,-0.25,-1.390625,0.734375,647
648,1695772819463,-0.19921875,-0.9873657,0.26068115,0.484375,-2.359375,-0.296875,648
649,1695772819503,-0.21826172,-0.98516846,0.2772827,2.96875,1.453125,3.1875,649
650,1695772819543,-0.20947266,-0.98223877,0.24407959,-1.875,0.78125,1.984375,650
651,1695772819583,-0.23413086,-0.9631958,0.23577881,-0.3125,1.75,2.5,651
652,1695772819623,-0.19482422,-0.96099854,0.24407959,-0.953125,4.375,-0.34375,652
653,1695772819663,-0.18676758,-0.9783325,0.24359131,-1.125,2.0625,1.3125,653
654,1695772819703,-0.18017578,-0.94317627,0.23406982,0.015625,4.59375,0.4375,654
655,1695772819743,-0.18334961,-0.9627075,0.27191162,0.421875,1.09375,-2.109375,655
656,1695772819783,-0.23706055,-0.9944458,0.260437,-1.484375,1.578125,1.265625,656
657,1695772819823,-0.19116211,-0.94000244,0.2098999,-4.453125,2.0,-0.859375,657
658,1695772819863,-0.1862793,-0.9768677,0.27166748,0.328125,1.5,-0.546875,658
659,1695772819903,-0.15405273,-0.973938,0.276062,2.28125,3.75,1.765625,659
660,1695772819943,-0.18066406,-0.98272705,0.23065186,-4.8125,-4.921875,0.25,660
661,1695772819983,-0.16845703,-0.9348755,0.23944092,-2.78125,-1.96875,-1.46875,661
662,1695772820023,-0.21582031,-1.0064087,0.27215576,-2.484375,-1.125,3.15625,662
663,1695772820063,-0.24511719,-0.9336548,0.27215576,4.03125,4.46875,5.609375,663
664,1695772820103,-0.18066406,-0.9812622,0.246521,-1.203125,1.15625,-0.84375,664
665,1695772820143,-0.16040039,-0.96051025,0.24603271,0.3125,-0.125,-1.234375,665
666,1695772820183,-0.14794922,-0.9981079,0.23797607,-3.21875,-1.046875,-0.71875,666
667,1695772820223,-0.21044922,-0.9434204,0.25286865,-1.203125,-0.5625,1.484375,667
668,1695772820263,-0.22314453,-0.9702759,0.27093506,0.484375,0.4375,1.75,668
669,1695772820303,-0.19897461,-0.9585571,0.23773193,-1.59375,-0.078125,1.171875,669
670,1695772820343,-0.20043945,-0.9573364,0.24554443,-2.3125,-0.359375,0.109375,670
671,1695772820383,-0.2084961,-0.98883057,0.26531982,-2.34375,1.875,-1.1875,671
672,1695772820423,-0.20727539,-0.97198486,0.23919678,-2.15625,3.375,0.125,672
673,1695772820463,-0.16625977,-0.94781494,0.2555542,-0.953125,3.8125,-0.703125,673
674,1695772820503,-0.1628418,-0.9819946,0.24822998,0.046875,2.796875,0.515625,674
675,1695772820543,-0.16503906,-0.96295166,0.25946045,-3.1875,2.3125,-1.21875,675
676,1695772820583,-0.17285156,-0.973938,0.26800537,-0.1875,2.0,-1.5625,676
677,1695772820623,-0.16967773,-0.9690552,0.26605225,-1.734375,1.015625,-1.515625,677
678,1695772820663,-0.16796875,-0.94244385,0.26068115,-0.84375,0.96875,-1.546875,678
679,1695772820703,-0.15771484,-0.986145,0.28533936,1.375,0.5625,-1.171875,679
680,1695772820743,-0.17993164,-0.9561157,0.2670288,1.46875,2.03125,0.359375,680
681,1695772820783,-0.1665039,-0.9595337,0.26361084,-0.96875,-1.390625,-4.453125,681
682,1695772820823,-0.18310547,-0.9558716,0.27801514,-0.40625,-0.328125,-3.640625,682
683,1695772820863,-0.17260742,-0.96832275,0.2645874,0.734375,-0.65625,-1.625,683
684,1695772820903,-0.18261719,-0.9651489,0.26141357,1.1875,-0.296875,-0.34375,684
685,1695772820943,-0.17773438,-0.9800415,0.27850342,-0.25,-1.75,-2.484375,685
686,1695772820983,-0.18676758,-0.96661377,0.2645874,-1.15625,-1.46875,-0.859375,686
687,1695772821023,-0.1940918,-0.9585571,0.26507568,1.265625,1.046875,0.5625,687
688,1695772821063,-0.20483398,-0.9451294,0.24432373,0.53125,1.921875,-1.125,688
689,1695772821103,-0.18603516,-0.9692993,0.2609253,-0.375,1.03125,-5.3125,689
690,1695772821143,-0.19165039,-0.9944458,0.24993896,-1.875,-0.828125,-3.984375,690
691,1695772821183,-0.19970703,-0.96588135,0.27215576,0.78125,1.375,-1.140625,691
692,1695772821223,-0.23242188,-0.942688,0.26409912,2.0625,3.578125,0.25,692
693,1695772821263,-0.20532227,-0.972229,0.2514038,0.34375,2.453125,-2.546875,693
694,1695772821303,-0.19555664,-0.9697876,0.24749756,0.046875,1.15625,-2.4375,694
695,1695772821343,-0.19702148,-0.972229,0.26776123,1.671875,2.453125,-0.359375,695
696,1695772821383,-0.18969727,-0.9522095,0.246521,0.71875,2.203125,-0.1875,696
697,1695772821423,-0.20483398,-0.9788208,0.23968506,-0.875,-0.84375,-0.671875,697
698,1695772821463,-0.20678711,-0.9741821,0.2584839,0.40625,0.21875,-1.171875,698
699,1695772821503,-0.2084961,-0.972229,0.24725342,-1.0,-0.734375,-0.21875,699
700,1695772821543,-0.19921875,-0.9602661,0.25238037,-0.71875,-1.703125,-1.671875,700
701,1695772821583,-0.21166992,-0.97369385,0.24798584,-0.265625,-1.0625,-1.390625,701
702,1695772821623,-0.20996094,-0.9680786,0.23382568,-1.859375,-1.828125,-2.09375,702
703,1695772821663,-0.23852539,-0.9636841,0.2567749,-0.765625,-0.859375,0.875,703
704,1695772821703,-0.23754883,-0.95928955,0.25726318,-0.03125,-0.296875,-0.15625,704
705,1695772821743,-0.22924805,-0.96539307,0.24359131,-4.0,-0.828125,-1.40625,705
706,1695772821783,-0.20605469,-0.9807739,0.2658081,-1.84375,0.265625,-2.203125,706
707,1695772821823,-0.22241211,-0.97076416,0.23895264,-3.5,-0.671875,-0.171875,707
708,1695772821863,-0.23510742,-0.9663696,0.25482178,-2.40625,-0.84375,0.140625,708
709,1695772821903,-0.20996094,-0.96954346,0.24212646,-3.875,0.140625,0.1875,709
710,1695772821943,-0.22924805,-0.96466064,0.25604248,-1.859375,-0.171875,0.765625,710
711,1695772821983,-0.2133789,-0.9614868,0.2477417,-2.296875,0.875,0.53125,711
712,1695772822023,-0.23852539,-0.9439087,0.25360107,-1.8125,-0.015625,1.375,712
713,1695772822063,-0.22705078,-0.97979736,0.26434326,-3.25,3.78125,2.3125,713
714,1695772822103,-0.21289062,-0.9536743,0.25775146,-0.953125,3.5625,2.59375,714
715,1695772822143,-0.203125,-0.97857666,0.27215576,-6.265625,1.890625,-0.03125,715
716,1695772822183,-0.18701172,-0.98565674,0.2772827,-6.859375,-0.984375,-0.5,716
717,1695772822223,-0.19311523,-0.9248657,0.29412842,-6.828125,-2.40625,-1.78125,717
718,1695772822263,-0.21557617,-0.9553833,0.27801514,-3.21875,0.265625,1.640625,718
719,1695772822303,-0.16967773,-0.9458618,0.2987671,-4.484375,1.40625,-3.921875,719
720,1695772822343,-0.25268555,-0.9727173,0.32635498,-3.140625,-0.5625,4.140625,720
721,1695772822383,-0.20898438,-0.9729614,0.33099365,16.390625,-1.0625,-10.140625,721
722,1695772822423,-0.28466797,-0.9258423,0.32269287,3.84375,-4.453125,0.890625,722
723,1695772822463,-0.23339844,-0.87042236,0.23968506,6.1875,-4.265625,-3.890625,723
724,1695772822503,-0.19458008,-0.95196533,0.21356201,0.5,-10.609375,0.984375,724
725,1695772822543,-0.24487305,-0.9800415,0.26556396,4.34375,-2.828125,3.265625,725
726,1695772822583,-0.22314453,-1.000061,0.23284912,0.46875,-2.1875,6.875,726
727,1695772822623,-0.22705078,-0.9146118,0.27801514,-1.09375,-3.453125,1.703125,727
728,1695772822663,-0.24072266,-0.97662354,0.18572998,-4.0625,-4.03125,-0.421875,728
729,1695772822703,-0.21557617,-0.95635986,0.2543335,-1.5625,-1.984375,-2.21875,729
730,1695772822743,-0.203125,-0.99053955,0.27044678,-1.171875,-1.25,-0.421875,730
731,1695772822783,-0.24682617,-0.9627075,0.27947998,-0.09375,-1.375,4.375,731
732,1695772822823,-0.22363281,-0.9446411,0.24725342,-0.78125,-1.5625,2.625,732
733,1695772822863,-0.21606445,-0.94488525,0.25213623,1.1875,0.375,1.359375,733
734,1695772822903,-0.22631836,-0.99053955,0.2658081,1.5625,0.453125,1.671875,734
735,1695772822943,-0.1928711,-0.972229,0.24603271,-2.109375,-0.578125,0.984375,735
736,1695772822983,-0.20141602,-0.9714966,0.25335693,-1.140625,-0.296875,3.0,736
737,1695772823023,-0.23803711,-0.991272,0.24676514,-2.796875,1.671875,5.90625,737
738,1695772823063,-0.20043945,-0.9849243,0.22601318,-6.34375,0.453125,0.515625,738
739,1695772823103,-0.18579102,-0.96417236,0.26287842,-4.640625,2.890625,-0.703125,739
740,1695772823143,-0.16113281,-0.96759033,0.2723999,-3.046875,2.734375,-0.421875,740
741,1695772823183,-0.19677734,-0.94366455,0.27386475,-2.703125,1.96875,1.015625,741
742,1695772823223,-0.20947266,-0.9534302,0.25531006,-5.125,0.890625,-1.109375,742
743,1695772823263,-0.18701172,-0.9763794,0.28753662,-4.90625,1.65625,-2.40625,743
744,1695772823303,-0.17480469,-0.93927,0.30023193,-2.21875,2.890625,-0.125,744
745,1695772823343,-0.19042969,-0.99420166,0.29510498,-1.9375,2.375,1.640625,745
746,1695772823383,-0.17285156,-0.93414307,0.2579956,-4.453125,0.40625,0.421875,746
747,1695772823423,-0.1665039,-0.9746704,0.30316162,-3.390625,-0.46875,-3.0625,747
748,1695772823463,-0.18115234,-0.97052,0.29901123,1.625,2.0625,2.109375,748
749,1695772823503,-0.16894531,-0.94781494,0.28582764,-3.59375,-0.859375,-2.234375,749
750,1695772823543,-0.19238281,-0.95147705,0.3053589,0.25,0.515625,-0.796875,750
751,1695772823583,-0.17944336,-0.9824829,0.32025146,-0.25,-0.40625,0.6875,751
752,1695772823623,-0.19726562,-0.95025635,0.27801514,-4.5625,-0.171875,1.015625,752
753,1695772823663,-0.16870117,-0.94366455,0.28656006,-2.5,0.25,-2.34375,753
754,1695772823703,-0.17260742,-0.986145,0.3287964,0.75,0.703125,-0.5625,754
755,1695772823743,-0.17871094,-0.9402466,0.30023193,-3.484375,-1.453125,-0.890625,755
756,1695772823783,-0.17773438,-0.9487915,0.29388428,-6.140625,-2.953125,-4.953125,756
757,1695772823823,-0.1887207,-0.96710205,0.33441162,-1.46875,-1.71875,-1.375,757
758,1695772823863,-0.19897461,-0.95684814,0.3336792,-0.6875,-0.15625,-0.390625,758
759,1695772823903,-0.20092773,-0.98638916,0.28826904,-8.5,-2.40625,-1.953125,759
