,timestamp,accel_x,accel_y,accel_z,gyro_x,gyro_y,gyro_z,ind
0,1695741293759,-0.22558594,-0.9561157,0.28851318,-0.1875,-0.171875,-0.0625,0
1,1695741293799,-0.23071289,-0.9578247,0.27752686,-1.59375,-0.234375,-0.109375,1
2,1695741293839,-0.2277832,-0.9522095,0.28167725,0.234375,0.1875,-0.1875,2
3,1695741293879,-0.23461914,-0.9546509,0.2904663,-1.078125,-0.09375,-0.4375,3
4,1695741293919,-0.22973633,-0.9495239,0.28094482,-1.75,0.078125,-0.53125,4
5,1695741293959,-0.22631836,-0.954895,0.29632568,-0.15625,0.4375,-0.453125,5
6,1695741293999,-0.2355957,-0.9614868,0.27337646,-2.328125,0.046875,-0.65625,6
7,1695741294039,-0.23120117,-0.9602661,0.28460693,-1.703125,0.140625,-1.015625,7
8,1695741294079,-0.23168945,-0.95562744,0.2982788,-1.8125,0.15625,-0.65625,8
9,1695741294119,-0.23388672,-0.95440674,0.29119873,-2.015625,0.09375,-0.625,9
10,1695741294159,-0.23803711,-0.9487915,0.2909546,-1.4375,0.75,-0.921875,10
11,1695741294199,-0.23730469,-0.9578247,0.30291748,-2.0625,0.21875,-0.53125,11
12,1695741294239,-0.23901367,-0.9487915,0.29803467,-1.09375,-0.0625,-0.421875,12
13,1695741294279,-0.23095703,-0.9483032,0.29510498,-1.125,0.0,-0.390625,13
14,1695741294319,-0.23706055,-0.9480591,0.2970581,-1.84375,0.578125,-0.984375,14
15,1695741294359,-0.2409668,-0.95098877,0.30438232,-1.515625,-0.296875,-0.1875,15
16,1695741294399,-0.23120117,-0.94610596,0.30267334,-1.4375,-0.046875,-0.609375,16
17,1695741294439,-0.22729492,-0.942688,0.293396,-1.40625,0.328125,-0.765625,17
18,1695741294479,-0.23535156,-0.9458618,0.30194092,-2.3125,0.203125,-0.921875,18
19,1695741294519,-0.24194336,-0.9505005,0.30267334,-0.953125,0.1875,-0.125,19
20,1695741294559,-0.23535156,-0.95025635,0.30291748,-1.6875,-0.421875,-0.859375,20
21,1695741294599,-0.22973633,-0.9470825,0.31243896,-2.453125,0.34375,-1.234375,21
22,1695741294639,-0.24707031,-0.94976807,0.31341553,-4.125,0.3125,-1.4375,22
23,1695741294679,-0.24707031,-0.94244385,0.3139038,-1.796875,-0.671875,-0.390625,23
24,1695741294719,-0.23608398,-0.9421997,0.31658936,-1.875,0.203125,-1.046875,24
25,1695741294759,-0.2434082,-0.9470825,0.31365967,-2.90625,0.203125,-1.046875,25
26,1695741294799,-0.25097656,-0.94000244,0.31365967,-1.890625,-0.4375,-0.90625,26
27,1695741294839,-0.24511719,-0.954895,0.32391357,-2.203125,-0.5625,-0.671875,27
28,1695741294879,-0.2434082,-0.9417114,0.32611084,-2.484375,0.15625,-1.265625,28
29,1695741294919,-0.25878906,-0.94244385,0.32366943,-1.578125,-0.0625,-0.828125,29
30,1695741294959,-0.24560547,-0.9429321,0.32562256,-2.703125,-1.078125,-0.75,30
31,1695741294999,-0.23999023,-0.94244385,0.3258667,-1.921875,0.328125,-0.53125,31
32,1695741295039,-0.25268555,-0.94195557,0.32635498,-1.84375,0.15625,-0.921875,32
33,1695741295079,-0.25439453,-0.9421997,0.3287964,-1.578125,-0.4375,-0.578125,33
34,1695741295119,-0.24316406,-0.9331665,0.33392334,-0.9375,0.09375,-0.546875,34
35,1695741295159,-0.24682617,-0.9414673,0.3287964,-2.390625,0.640625,-0.421875,35
36,1695741295199,-0.24267578,-0.9314575,0.33416748,-2.703125,0.359375,-1.65625,36
37,1695741295239,-0.26391602,-0.93292236,0.34197998,-3.375,0.453125,-1.234375,37
38,1695741295279,-0.25268555,-0.9351196,0.3427124,-0.625,-0.671875,0.03125,38
39,1695741295319,-0.2446289,-0.9417114,0.33953857,-1.390625,0.125,-0.421875,39
40,1695741295359,-0.24902344,-0.9439087,0.34490967,-1.5625,-0.03125,-0.75,40
41,1695741295399,-0.25390625,-0.93414307,0.33807373,-0.84375,-0.09375,-0.640625,41
42,1695741295439,-0.25610352,-0.93707275,0.34417725,-1.296875,0.65625,-0.546875,42
43,1695741295479,-0.2614746,-0.9290161,0.3456421,-0.578125,0.078125,-0.703125,43
44,1695741295519,-0.25952148,-0.93829346,0.33953857,-0.796875,-0.140625,-0.28125,44
45,1695741295559,-0.2541504,-0.9326782,0.3444214,-0.734375,-0.125,-0.234375,45
46,1695741295599,-0.25756836,-0.9380493,0.3414917,-0.59375,-0.046875,-0.109375,46
47,1695741295639,-0.24853516,-0.9336548,0.34490967,-1.0,0.171875,-0.6875,47
48,1695741295679,-0.25585938,-0.93927,0.34051514,-1.203125,0.28125,-0.40625,48
49,1695741295719,-0.25048828,-0.9404907,0.34295654,0.25,0.046875,-0.4375,49
50,1695741295759,-0.26098633,-0.9336548,0.34490967,-1.03125,0.40625,-0.125,50
51,1695741295799,-0.24438477,-0.93292236,0.3456421,-1.6875,-0.078125,-1.09375,51
52,1695741295839,-0.2685547,-0.9282837,0.34661865,-2.859375,0.71875,-1.28125,52
53,1695741295879,-0.2680664,-0.9314575,0.35198975,0.53125,-0.453125,0.109375,53
54,1695741295919,-0.25732422,-0.93585205,0.3439331,-0.609375,0.4375,-0.4375,54
55,1695741295959,-0.25097656,-0.9365845,0.35003662,-0.734375,0.078125,-0.453125,55
56,1695741295999,-0.2578125,-0.9365845,0.3456421,0.84375,0.203125,-0.171875,56
57,1695741296039,-0.26538086,-0.93536377,0.34661865,-0.046875,0.265625,0.140625,57
58,1695741296079,-0.25830078,-0.9273071,0.3307495,0.078125,-0.5,-0.296875,58
59,1695741296119,-0.2565918,-0.93341064,0.33514404,-0.5625,0.015625,0.03125,59
60,1695741296159,-0.2536621,-0.9338989,0.3456421,-0.78125,-0.125,-0.046875,60
61,1695741296199,-0.2626953,-0.93170166,0.33392334,0.21875,0.578125,0.109375,61
62,1695741296239,-0.2524414,-0.93707275,0.3373413,0.0625,-0.171875,-0.109375,62
63,1695741296279,-0.2548828,-0.93096924,0.34197998,-1.671875,0.40625,-0.84375,63
64,1695741296319,-0.26586914,-0.93829346,0.33953857,0.1875,-0.015625,0.015625,64
65,1695741296359,-0.24633789,-0.9373169,0.3390503,-0.546875,-0.390625,-0.1875,65
66,1695741296399,-0.25073242,-0.93463135,0.338562,-0.125,0.625,-0.015625,66
67,1695741296439,-0.24975586,-0.9319458,0.3319702,-1.0625,0.921875,-1.03125,67
68,1695741296479,-0.26879883,-0.9324341,0.3444214,-2.09375,0.625,-0.578125,68
69,1695741296519,-0.2614746,-0.9380493,0.340271,0.84375,-0.609375,0.265625,69
70,1695741296559,-0.24853516,-0.93341064,0.338562,-1.09375,0.171875,-0.765625,70
71,1695741296599,-0.26098633,-0.9326782,0.33929443,-0.4375,0.46875,-0.703125,71
72,1695741296639,-0.26000977,-0.9365845,0.34490967,-0.421875,0.171875,-0.09375,72
73,1695741296679,-0.25585938,-0.9434204,0.34100342,0.296875,-0.09375,-0.140625,73
74,1695741296719,-0.25708008,-0.92852783,0.3348999,-0.984375,0.5,-0.890625,74
75,1695741296759,-0.25854492,-0.93927,0.33514404,-1.328125,-0.015625,-0.21875,75
76,1695741296799,-0.2524414,-0.9360962,0.3414917,-1.578125,0.03125,-0.421875,76
77,1695741296839,-0.25854492,-0.93170166,0.34881592,0.25,0.09375,-0.015625,77
78,1695741296879,-0.26098633,-0.9404907,0.32684326,-0.921875,-0.28125,-0.28125,78
79,1695741296919,-0.2602539,-0.9314575,0.34417725,-1.78125,0.25,-0.4375,79
80,1695741296959,-0.2602539,-0.9417114,0.34368896,0.390625,-0.046875,0.296875,80
81,1695741296999,-0.2512207,-0.9368286,0.33953857,-0.75,0.0625,-0.078125,81
82,1695741297039,-0.25073242,-0.9368286,0.33831787,0.046875,-0.09375,-0.0625,82
83,1695741297079,-0.2548828,-0.9307251,0.34246826,-1.421875,0.6875,-0.59375,83
84,1695741297119,-0.26513672,-0.9385376,0.3444214,-0.15625,-0.328125,0.28125,84
85,1695741297159,-0.25610352,-0.9360962,0.33685303,0.5625,-0.109375,0.1875,85
86,1695741297199,-0.25463867,-0.94415283,0.33636475,-0.0625,0.109375,-0.09375,86
87,1695741297239,-0.2512207,-0.93536377,0.3414917,0.453125,0.09375,-0.03125,87
88,1695741297279,-0.25952148,-0.94366455,0.33270264,0.203125,-0.0625,0.21875,88
89,1695741297319,-0.25732422,-0.9378052,0.34320068,0.65625,0.328125,-0.203125,89
90,1695741297359,-0.25756836,-0.94659424,0.33441162,0.5,0.015625,0.265625,90
91,1695741297399,-0.25585938,-0.9378052,0.32757568,-0.328125,-0.390625,-0.25,91
92,1695741297439,-0.2529297,-0.92974854,0.32684326,0.96875,0.421875,0.234375,92
93,1695741297479,-0.25146484,-0.9434204,0.32684326,0.40625,-0.078125,0.0625,93
94,1695741297519,-0.24414062,-0.9397583,0.32611084,-0.71875,0.65625,-0.484375,94
95,1695741297559,-0.25561523,-0.93927,0.32977295,0.96875,0.078125,0.390625,95
96,1695741297599,-0.2529297,-0.9331665,0.3204956,0.078125,0.03125,-0.234375,96
97,1695741297639,-0.24829102,-0.93927,0.32513428,-0.5,-0.015625,0.03125,97
98,1695741297679,-0.24365234,-0.9456177,0.3217163,-1.296875,0.640625,-0.375,98
99,1695741297719,-0.25854492,-0.940979,0.32904053,0.328125,0.015625,0.015625,99
100,1695741297759,-0.25048828,-0.94073486,0.3192749,0.40625,0.3125,0.53125,100
101,1695741297799,-0.25,-0.9446411,0.31658936,-0.328125,0.0625,-0.109375,101
102,1695741297839,-0.25708008,-0.9336548,0.32000732,-0.1875,0.453125,-0.34375,102
103,1695741297879,-0.25073242,-0.9475708,0.3258667,0.875,0.046875,0.5625,103
104,1695741297919,-0.24438477,-0.93707275,0.3192749,-0.109375,0.359375,0.15625,104
105,1695741297959,-0.2529297,-0.940979,0.31195068,0.0,0.828125,0.078125,105
106,1695741297999,-0.24804688,-0.94610596,0.3114624,-0.046875,-0.671875,0.234375,106
107,1695741298039,-0.24609375,-0.9414673,0.3222046,-0.515625,0.328125,-0.0625,107
108,1695741298079,-0.25439453,-0.9500122,0.3151245,0.921875,0.59375,0.125,108
109,1695741298119,-0.24731445,-0.94659424,0.3085327,-1.0625,0.03125,-0.140625,109
110,1695741298159,-0.2541504,-0.93292236,0.3192749,-0.21875,0.796875,0.265625,110
111,1695741298199,-0.24438477,-0.94415283,0.31854248,0.9375,0.203125,0.1875,111
112,1695741298239,-0.24951172,-0.93829346,0.3012085,-0.875,0.171875,-0.453125,112
113,1695741298279,-0.24194336,-0.9451294,0.3180542,-0.125,0.046875,-0.25,113
114,1695741298319,-0.24584961,-0.9483032,0.31463623,-1.9375,0.3125,-0.53125,114
115,1695741298359,-0.24316406,-0.9378052,0.3156128,0.375,-0.203125,0.390625,115
116,1695741298399,-0.24145508,-0.93878174,0.30291748,-0.5625,0.34375,-0.59375,116
117,1695741298439,-0.25,-0.94659424,0.30194092,-1.828125,0.203125,-0.75,117
118,1695741298479,-0.2524414,-0.9456177,0.3163452,-0.21875,0.078125,-0.125,118
119,1695741298519,-0.24731445,-0.9402466,0.32269287,-0.671875,-0.0625,0.0,119
120,1695741298559,-0.2487793,-0.9404907,0.30828857,-1.09375,0.625,-0.765625,120
121,1695741298599,-0.2548828,-0.94976807,0.31219482,-0.703125,-0.046875,-0.015625,121
122,1695741298639,-0.24584961,-0.9505005,0.31781006,-1.3125,0.046875,0.015625,122
123,1695741298679,-0.24804688,-0.94366455,0.32147217,-0.515625,0.296875,-0.203125,123
124,1695741298719,-0.24829102,-0.9475708,0.30999756,-1.40625,0.125,-0.5,124
125,1695741298759,-0.24316406,-0.942688,0.31610107,-1.375,0.34375,-0.28125,125
126,1695741298799,-0.25048828,-0.9470825,0.31854248,-1.078125,0.109375,-0.046875,126
127,1695741298839,-0.25024414,-0.9458618,0.3156128,-1.875,-0.1875,-0.8125,127
128,1695741298879,-0.2512207,-0.9434204,0.3163452,-1.90625,0.359375,-0.328125,128
129,1695741298919,-0.24975586,-0.95147705,0.31854248,-3.515625,0.40625,-1.140625,129
130,1695741298959,-0.25610352,-0.93829346,0.32781982,-2.390625,-0.28125,-0.5,130
131,1695741298999,-0.24365234,-0.9404907,0.32196045,-1.421875,0.1875,-0.453125,131
132,1695741299039,-0.24975586,-0.9404907,0.32318115,-2.53125,0.3125,-1.015625,132
133,1695741299079,-0.25219727,-0.93878174,0.32855225,-1.671875,0.25,-0.75,133
134,1695741299119,-0.25610352,-0.93927,0.33807373,-1.40625,-0.140625,-0.40625,134
135,1695741299159,-0.2512207,-0.94000244,0.3336792,-1.171875,0.203125,-0.640625,135
136,1695741299199,-0.26098633,-0.93829346,0.3287964,-1.546875,0.25,-0.75,136
137,1695741299239,-0.25097656,-0.9417114,0.33294678,-1.140625,-0.40625,-0.21875,137
138,1695741299279,-0.24829102,-0.92974854,0.33343506,-1.15625,0.109375,-0.375,138
139,1695741299319,-0.25610352,-0.93585205,0.33099365,-0.96875,-0.09375,-0.375,139
140,1695741299359,-0.25,-0.93951416,0.3324585,-1.875,0.3125,-0.8125,140
141,1695741299399,-0.25561523,-0.9356079,0.3378296,-1.71875,0.109375,-0.703125,141
142,1695741299439,-0.25268555,-0.9421997,0.34466553,-0.6875,-0.015625,-0.375,142
143,1695741299479,-0.25512695,-0.93878174,0.3319702,-1.890625,-0.046875,-0.71875,143
144,1695741299519,-0.24975586,-0.93585205,0.338562,-1.5625,0.015625,-0.8125,144
145,1695741299559,-0.25585938,-0.9356079,0.338562,-3.921875,1.03125,-1.53125,145
146,1695741299599,-0.26342773,-0.92974854,0.3456421,-0.484375,-0.453125,0.140625,146
147,1695741299639,-0.25219727,-0.9365845,0.3390503,-1.171875,0.0,-0.578125,147
148,1695741299679,-0.26098633,-0.93048096,0.34490967,-1.6875,0.296875,-0.921875,148
149,1695741299719,-0.26245117,-0.9421997,0.3468628,-0.8125,-0.046875,-0.359375,149
150,1695741299759,-0.2578125,-0.9360962,0.35076904,-0.984375,-0.015625,-0.359375,150
151,1695741299799,-0.2565918,-0.928772,0.35150146,-1.03125,0.28125,-0.75,151
152,1695741299839,-0.26611328,-0.9282837,0.3451538,-0.921875,0.421875,-0.4375,152
153,1695741299879,-0.25976562,-0.9373169,0.3480835,-1.546875,-0.34375,-0.1875,153
154,1695741299919,-0.26123047,-0.93341064,0.35491943,-1.109375,0.625,-0.53125,154
155,1695741299959,-0.2602539,-0.93048096,0.3439331,-0.625,0.015625,-0.28125,155
156,1695741299999,-0.26171875,-0.93634033,0.34539795,-1.46875,0.171875,-0.53125,156
157,1695741300039,-0.25756836,-0.93634033,0.3480835,-0.84375,0.0625,-0.375,157
158,1695741300079,-0.2668457,-0.9273071,0.35614014,-2.03125,0.21875,-0.609375,158
159,1695741300119,-0.26538086,-0.93951416,0.34954834,-0.21875,-0.140625,0.0,159
160,1695741300159,-0.26660156,-0.9258423,0.3468628,-1.046875,-0.09375,-0.453125,160
161,1695741300199,-0.25756836,-0.9324341,0.35321045,-0.75,0.21875,-0.21875,161
162,1695741300239,-0.25732422,-0.93292236,0.34735107,-3.09375,0.84375,-1.453125,162
163,1695741300279,-0.27368164,-0.92926025,0.35760498,-1.5,0.34375,-0.234375,163
164,1695741300319,-0.25146484,-0.9326782,0.34906006,-0.296875,-0.03125,-0.09375,164
165,1695741300359,-0.265625,-0.92974854,0.36175537,-1.328125,0.5625,-0.78125,165
166,1695741300399,-0.26586914,-0.93096924,0.35028076,-0.53125,-0.140625,-0.484375,166
167,1695741300439,-0.26904297,-0.923645,0.35491943,-0.703125,0.125,-0.421875,167
168,1695741300479,-0.26342773,-0.9282837,0.3517456,-0.90625,0.65625,-0.640625,168
169,1695741300519,-0.2644043,-0.9282837,0.3529663,-0.515625,0.0625,-0.6875,169
170,1695741300559,-0.26489258,-0.9338989,0.3554077,-0.71875,-0.265625,-0.0625,170
171,1695741300599,-0.2541504,-0.92388916,0.3600464,-0.640625,0.265625,-0.15625,171
172,1695741300639,-0.26049805,-0.93170166,0.35516357,-1.0,0.515625,-0.28125,172
173,1695741300679,-0.26342773,-0.9295044,0.35125732,-0.578125,0.03125,-0.1875,173
174,1695741300719,-0.2607422,-0.92926025,0.36175537,-0.9375,0.375,-0.328125,174
175,1695741300759,-0.2668457,-0.92926025,0.3612671,-0.984375,0.09375,-0.40625,175
176,1695741300799,-0.26464844,-0.92803955,0.355896,-0.328125,0.234375,-0.078125,176
177,1695741300839,-0.26538086,-0.9265747,0.35809326,-1.015625,-0.09375,-0.265625,177
178,1695741300879,-0.26416016,-0.9248657,0.35809326,-0.375,0.078125,-0.1875,178
179,1695741300919,-0.26538086,-0.9260864,0.35565186,-0.5625,0.328125,-0.28125,179
180,1695741300959,-0.27124023,-0.92852783,0.3522339,-1.0,0.046875,-0.265625,180
181,1695741300999,-0.25585938,-0.9299927,0.3632202,0.421875,0.125,-0.21875,181
182,1695741301039,-0.25805664,-0.92388916,0.34979248,-0.890625,0.265625,-0.21875,182
183,1695741301079,-0.25219727,-0.9336548,0.35736084,0.40625,-0.265625,-0.515625,183
184,1695741301119,-0.26708984,-0.9290161,0.35321045,-2.578125,1.0625,-0.65625,184
185,1695741301159,-0.26513672,-0.9221802,0.36541748,0.78125,-0.390625,0.453125,185
186,1695741301199,-0.2631836,-0.9302368,0.35491943,-0.1875,0.03125,-0.359375,186
187,1695741301239,-0.2614746,-0.9307251,0.35516357,0.0,0.21875,-0.125,187
188,1695741301279,-0.26635742,-0.9282837,0.35076904,0.859375,-0.03125,0.0625,188
189,1695741301319,-0.2631836,-0.93170166,0.34881592,0.234375,-0.296875,0.171875,189
190,1695741301359,-0.2602539,-0.9312134,0.35247803,0.65625,-0.078125,-0.125,190
191,1695741301399,-0.27124023,-0.928772,0.35882568,0.125,0.421875,0.015625,191
192,1695741301439,-0.26171875,-0.9390259,0.34002686,0.46875,-0.359375,0.234375,192
193,1695741301479,-0.2565918,-0.9260864,0.34368896,0.28125,0.21875,-0.078125,193
194,1695741301519,-0.26831055,-0.9299927,0.3475952,0.75,0.40625,0.15625,194
195,1695741301559,-0.26464844,-0.9365845,0.33929443,0.375,0.21875,0.171875,195
196,1695741301599,-0.25732422,-0.9324341,0.3361206,0.0,-0.09375,0.25,196
197,1695741301639,-0.2614746,-0.9314575,0.33319092,1.171875,0.296875,0.328125,197
198,1695741301679,-0.2631836,-0.93707275,0.3414917,0.4375,0.1875,0.265625,198
199,1695741301719,-0.25927734,-0.93414307,0.33148193,1.09375,0.0,0.390625,199
200,1695741301759,-0.25512695,-0.9397583,0.3373413,0.0625,0.15625,0.09375,200
201,1695741301799,-0.25708008,-0.93829346,0.3312378,1.109375,0.203125,0.703125,201
202,1695741301839,-0.25512695,-0.93707275,0.324646,1.234375,0.015625,0.34375,202
203,1695741301879,-0.25048828,-0.9343872,0.3270874,0.65625,0.6875,0.484375,203
204,1695741301919,-0.2541504,-0.9434204,0.32513428,-0.359375,0.578125,-0.40625,204
205,1695741301959,-0.25610352,-0.9397583,0.3234253,-0.046875,-0.234375,0.140625,205
206,1695741301999,-0.25073242,-0.9421997,0.3283081,1.234375,0.53125,0.625,206
207,1695741302039,-0.25170898,-0.94537354,0.32196045,-0.1875,0.125,-0.28125,207
208,1695741302079,-0.25585938,-0.9421997,0.32196045,0.65625,0.484375,0.03125,208
209,1695741302119,-0.25708008,-0.93927,0.31658936,1.25,0.0625,0.234375,209
210,1695741302159,-0.25219727,-0.9421997,0.32147217,0.34375,0.015625,0.28125,210
211,1695741302199,-0.25732422,-0.93829346,0.31976318,0.578125,0.484375,-0.046875,211
212,1695741302239,-0.25024414,-0.9463501,0.31585693,0.46875,-0.21875,0.328125,212
213,1695741302279,-0.2409668,-0.9368286,0.31365967,0.15625,0.109375,0.09375,213
214,1695741302319,-0.24804688,-0.93878174,0.31781006,0.5625,0.171875,-0.015625,214
215,1695741302359,-0.2565918,-0.942688,0.30511475,-0.15625,-0.015625,0.125,215
216,1695741302399,-0.2475586,-0.94366455,0.307312,0.265625,0.265625,-0.0625,216
217,1695741302439,-0.2512207,-0.94976807,0.30291748,0.0,-0.03125,0.109375,217
218,1695741302479,-0.24414062,-0.94000244,0.3078003,-0.359375,0.390625,-0.15625,218
219,1695741302519,-0.24853516,-0.9475708,0.30633545,-0.203125,0.046875,-0.09375,219
220,1695741302559,-0.2397461,-0.93927,0.30950928,-0.484375,-0.0625,-0.375,220
221,1695741302599,-0.24560547,-0.94610596,0.30706787,-0.53125,0.546875,-0.109375,221
222,1695741302639,-0.2475586,-0.9507446,0.30413818,-1.65625,0.546875,-0.65625,222
223,1695741302679,-0.25,-0.9439087,0.3126831,-0.921875,-0.234375,-0.34375,223
224,1695741302719,-0.2434082,-0.9414673,0.30706787,-0.75,0.15625,-0.25,224
225,1695741302759,-0.25170898,-0.94244385,0.2994995,-1.125,0.453125,-0.625,225
226,1695741302799,-0.24243164,-0.9451294,0.30291748,-1.484375,-0.125,-0.546875,226
227,1695741302839,-0.24658203,-0.9480591,0.31072998,-0.765625,0.328125,-0.34375,227
228,1695741302879,-0.24804688,-0.94195557,0.30975342,-0.484375,0.140625,-0.125,228
229,1695741302919,-0.24951172,-0.94976807,0.30560303,-1.71875,0.578125,-0.796875,229
230,1695741302959,-0.25170898,-0.94366455,0.3222046,-0.84375,-0.125,-0.1875,230
231,1695741302999,-0.24121094,-0.94659424,0.3078003,-1.734375,-0.15625,-0.28125,231
232,1695741303039,-0.24145508,-0.94659424,0.3151245,-0.8125,0.5,-0.4375,232
233,1695741303079,-0.24536133,-0.9402466,0.31170654,-1.78125,0.125,-0.453125,233
234,1695741303119,-0.2512207,-0.94195557,0.309021,-2.6875,0.140625,-0.765625,234
235,1695741303159,-0.24829102,-0.940979,0.32025146,-2.078125,0.171875,-0.578125,235
236,1695741303199,-0.2487793,-0.94488525,0.31610107,-2.125,-0.125,-0.46875,236
237,1695741303239,-0.25170898,-0.93536377,0.31658936,-2.375,-0.1875,-0.890625,237
238,1695741303279,-0.24267578,-0.9468384,0.33148193,-2.015625,0.328125,-0.875,238
239,1695741303319,-0.2548828,-0.9483032,0.32733154,-4.1875,0.640625,-1.390625,239
240,1695741303359,-0.26171875,-0.93634033,0.33221436,-2.453125,-0.484375,-0.53125,240
241,1695741303399,-0.24731445,-0.93756104,0.33392334,-2.109375,-0.421875,-0.640625,241
242,1695741303439,-0.25097656,-0.944397,0.33050537,-3.3125,0.421875,-1.34375,242
243,1695741303479,-0.25512695,-0.9365845,0.3444214,-1.71875,0.109375,-0.671875,243
244,1695741303519,-0.25683594,-0.9368286,0.3444214,-1.1875,0.34375,-0.671875,244
245,1695741303559,-0.25976562,-0.93170166,0.34197998,-2.046875,0.046875,-0.84375,245
246,1695741303599,-0.25830078,-0.9378052,0.33685303,-2.375,-0.046875,-1.171875,246
247,1695741303639,-0.2626953,-0.9351196,0.3451538,-1.671875,-0.015625,-0.34375,247
248,1695741303679,-0.25830078,-0.93341064,0.34539795,-1.15625,-0.09375,-0.5625,248
249,1695741303719,-0.25976562,-0.9365845,0.3444214,-1.34375,0.265625,-0.84375,249
250,1695741303759,-0.26123047,-0.9356079,0.3451538,-1.6875,0.296875,-0.84375,250
251,1695741303799,-0.2536621,-0.92510986,0.34588623,-1.609375,0.328125,-0.8125,251
252,1695741303839,-0.26342773,-0.9360962,0.34857178,-1.359375,0.046875,-0.3125,252
253,1695741303879,-0.26098633,-0.9299927,0.3529663,-0.90625,0.359375,-0.578125,253
254,1695741303919,-0.26611328,-0.9368286,0.3468628,-1.125,-0.140625,-0.28125,254
255,1695741303959,-0.25878906,-0.9260864,0.34320068,-2.8125,0.5,-1.390625,255
256,1695741303999,-0.2692871,-0.92510986,0.35858154,-2.484375,0.5,-0.828125,256
257,1695741304039,-0.2668457,-0.9307251,0.3583374,-0.6875,-0.296875,0.078125,257
258,1695741304079,-0.26367188,-0.9331665,0.35760498,-1.171875,0.21875,-0.5,258
259,1695741304119,-0.2685547,-0.9258423,0.35614014,-0.75,0.15625,-0.5,259
260,1695741304159,-0.2705078,-0.92803955,0.354187,-0.9375,0.28125,-0.34375,260
261,1695741304199,-0.2680664,-0.9348755,0.35687256,-0.890625,0.28125,-0.25,261
262,1695741304239,-0.26831055,-0.92633057,0.35736084,-0.59375,0.359375,-0.75,262
263,1695741304279,-0.2709961,-0.9319458,0.35076904,-0.75,0.0625,-0.171875,263
264,1695741304319,-0.25976562,-0.9319458,0.35736084,-0.734375,-0.203125,0.0,264
265,1695741304359,-0.26708984,-0.9302368,0.35614014,-1.0625,0.546875,-0.40625,265
266,1695741304399,-0.26391602,-0.92633057,0.35809326,-0.40625,-0.0625,-0.203125,266
267,1695741304439,-0.25854492,-0.92803955,0.35516357,-1.03125,0.328125,-0.265625,267
268,1695741304479,-0.2685547,-0.92633057,0.35565186,-1.203125,0.203125,-0.625,268
269,1695741304519,-0.25952148,-0.93218994,0.35394287,-0.375,0.0625,0.0,269
270,1695741304559,-0.26635742,-0.92266846,0.35809326,-1.09375,0.296875,-0.4375,270
271,1695741304599,-0.26245117,-0.93048096,0.36297607,-0.234375,-0.203125,0.0,271
272,1695741304639,-0.25830078,-0.9258423,0.35394287,-2.640625,1.03125,-1.1875,272
273,1695741304679,-0.2763672,-0.92681885,0.36395264,-1.3125,-0.09375,-0.078125,273
274,1695741304719,-0.2524414,-0.92926025,0.35491943,-0.390625,-0.078125,0.09375,274
275,1695741304759,-0.25805664,-0.92437744,0.3554077,-1.015625,0.515625,-0.59375,275
276,1695741304799,-0.26733398,-0.92266846,0.36224365,-0.703125,0.421875,-0.4375,276
277,1695741304839,-0.27929688,-0.92681885,0.3649292,-0.359375,0.140625,-0.25,277
278,1695741304879,-0.265625,-0.92681885,0.36590576,-0.734375,0.03125,-0.046875,278
279,1695741304919,-0.2692871,-0.9302368,0.35980225,-0.171875,0.265625,-0.28125,279
280,1695741304959,-0.27001953,-0.9295044,0.35784912,-0.46875,0.046875,-0.078125,280
281,1695741304999,-0.2602539,-0.9282837,0.36468506,-0.4375,-0.359375,0.015625,281
282,1695741305039,-0.26342773,-0.9314575,0.35443115,-0.34375,0.546875,-0.359375,282
283,1695741305079,-0.2668457,-0.9336548,0.36029053,-0.0625,0.328125,-0.171875,283
284,1695741305119,-0.26831055,-0.92681885,0.355896,0.140625,0.359375,0.078125,284
285,1695741305159,-0.25952148,-0.9314575,0.35443115,-0.390625,-0.171875,-0.15625,285
286,1695741305199,-0.26489258,-0.92510986,0.3583374,0.21875,0.53125,-0.03125,286
287,1695741305239,-0.25708008,-0.93414307,0.37005615,1.5,0.59375,0.421875,287
288,1695741305279,-0.26489258,-0.9312134,0.33807373,0.453125,-0.359375,0.453125,288
289,1695741305319,-0.24951172,-0.9338989,0.35101318,0.671875,0.640625,-0.4375,289
290,1695741305359,-0.26367188,-0.9302368,0.35614014,-1.21875,1.34375,-0.1875,290
291,1695741305399,-0.25854492,-0.93463135,0.35003662,2.171875,-0.46875,1.015625,291
292,1695741305439,-0.25390625,-0.9351196,0.34246826,1.171875,0.28125,0.25,292
293,1695741305479,-0.2602539,-0.9319458,0.3397827,0.796875,0.421875,0.03125,293
294,1695741305519,-0.26049805,-0.9314575,0.34100342,1.453125,0.3125,0.5,294
295,1695741305559,-0.26391602,-0.9365845,0.3397827,0.765625,-0.171875,0.78125,295
296,1695741305599,-0.2487793,-0.93414307,0.33319092,1.0,0.234375,0.09375,296
297,1695741305639,-0.2602539,-0.93341064,0.3427124,0.953125,0.5,0.28125,297
298,1695741305679,-0.25732422,-0.9397583,0.32684326,0.96875,0.015625,0.875,298
299,1695741305719,-0.24414062,-0.93585205,0.32855225,0.859375,0.109375,0.390625,299
300,1695741305759,-0.25317383,-0.93707275,0.33416748,1.46875,0.59375,0.46875,300
301,1695741305799,-0.2524414,-0.9429321,0.32244873,0.640625,0.046875,0.484375,301
302,1695741305839,-0.25219727,-0.9421997,0.32391357,0.5625,0.3125,0.21875,302
303,1695741305879,-0.25170898,-0.9404907,0.32562256,0.46875,0.59375,0.125,303
304,1695741305919,-0.25048828,-0.94732666,0.3143921,0.484375,-0.171875,0.546875,304
305,1695741305959,-0.24633789,-0.9302368,0.32196045,0.078125,0.09375,-0.25,305
306,1695741305999,-0.24682617,-0.9487915,0.32000732,-0.546875,0.234375,0.234375,306
307,1695741306039,-0.24707031,-0.94415283,0.3204956,-1.484375,0.5,-0.578125,307
308,1695741306079,-0.25439453,-0.94537354,0.32318115,-0.078125,-0.03125,0.140625,308
309,1695741306119,-0.2368164,-0.94488525,0.31707764,0.09375,-0.140625,-0.03125,309
310,1695741306159,-0.2446289,-0.94488525,0.3143921,-1.03125,0.484375,-0.671875,310
311,1695741306199,-0.25170898,-0.93927,0.3209839,-0.46875,0.0625,-0.296875,311
312,1695741306239,-0.2446289,-0.94537354,0.31951904,-0.046875,-0.09375,0.03125,312
313,1695741306279,-0.24804688,-0.94610596,0.3163452,-0.421875,0.21875,-0.125,313
314,1695741306319,-0.25146484,-0.9390259,0.3168335,-0.5,0.46875,-0.5,314
315,1695741306359,-0.24633789,-0.94781494,0.31610107,-0.421875,-0.21875,0.21875,315
316,1695741306399,-0.24658203,-0.9421997,0.31414795,-0.484375,-0.140625,-0.234375,316
317,1695741306439,-0.24609375,-0.9429321,0.32025146,-0.21875,0.640625,-0.34375,317
318,1695741306479,-0.24658203,-0.9451294,0.3168335,-0.75,-0.125,-0.109375,318
319,1695741306519,-0.24633789,-0.93756104,0.3192749,-1.078125,0.296875,-0.515625,319
320,1695741306559,-0.25097656,-0.9458618,0.32000732,-0.53125,0.109375,-0.109375,320
321,1695741306599,-0.24389648,-0.9434204,0.3139038,-0.84375,0.265625,-0.59375,321
322,1695741306639,-0.24804688,-0.9429321,0.31732178,-0.875,0.40625,-0.390625,322
323,1695741306679,-0.24267578,-0.9421997,0.31781006,-1.546875,0.328125,-0.921875,323
324,1695741306719,-0.2553711,-0.94244385,0.3270874,-2.25,0.40625,-0.671875,324
325,1695741306759,-0.25048828,-0.940979,0.32659912,-0.78125,-0.359375,0.0,325
326,1695741306799,-0.24414062,-0.9397583,0.32025146,-1.90625,0.71875,-0.890625,326
327,1695741306839,-0.25146484,-0.9446411,0.32391357,-2.171875,0.203125,-0.96875,327
328,1695741306879,-0.25195312,-0.94073486,0.3209839,-0.78125,-0.109375,-0.5,328
329,1695741306919,-0.2446289,-0.94415283,0.32806396,-1.671875,-0.109375,-0.265625,329
330,1695741306959,-0.2487793,-0.93170166,0.32391357,-1.484375,0.546875,-0.953125,330
331,1695741306999,-0.25341797,-0.9402466,0.33050537,-1.8125,0.125,-0.375,331
332,1695741307039,-0.24951172,-0.9326782,0.33685303,-1.796875,-0.34375,-0.34375,332
333,1695741307079,-0.24902344,-0.928772,0.33392334,-1.375,0.359375,-0.703125,333
334,1695741307119,-0.25268555,-0.93829346,0.3319702,-1.21875,0.0625,-0.390625,334
335,1695741307159,-0.2487793,-0.93341064,0.33172607,-2.15625,0.0,-0.71875,335
336,1695741307199,-0.25561523,-0.93585205,0.338562,-2.21875,0.375,-0.875,336
337,1695741307239,-0.25317383,-0.94244385,0.34197998,-1.265625,0.09375,-0.65625,337
338,1695741307279,-0.25683594,-0.93048096,0.33709717,-1.84375,-0.0625,-0.765625,338
339,1695741307319,-0.24389648,-0.93829346,0.33831787,-1.40625,-0.03125,-0.59375,339
340,1695741307359,-0.2578125,-0.94122314,0.34075928,-4.375,0.53125,-1.59375,340
341,1695741307399,-0.2626953,-0.9326782,0.34783936,-2.0625,-0.15625,-0.515625,341
342,1695741307439,-0.25439453,-0.93218994,0.34979248,-0.734375,-0.171875,-0.390625,342
343,1695741307479,-0.25830078,-0.93096924,0.34173584,-2.296875,0.328125,-1.0,343
344,1695741307519,-0.26391602,-0.9360962,0.34783936,-1.296875,-0.25,-0.78125,344
345,1695741307559,-0.2626953,-0.927063,0.34783936,-1.296875,0.078125,-0.53125,345
346,1695741307599,-0.2578125,-0.9324341,0.3517456,-1.203125,0.265625,-0.625,346
347,1695741307639,-0.26245117,-0.9348755,0.35394287,-1.5625,0.484375,-0.875,347
348,1695741307679,-0.25805664,-0.9326782,0.35443115,-1.125,-0.203125,-0.0625,348
349,1695741307719,-0.2578125,-0.9282837,0.35150146,-0.9375,0.0,-0.53125,349
350,1695741307759,-0.2644043,-0.9299927,0.35809326,-1.15625,0.421875,-0.5625,350
351,1695741307799,-0.26635742,-0.9319458,0.34906006,-0.453125,0.328125,-0.140625,351
352,1695741307839,-0.26098633,-0.93218994,0.35516357,-0.953125,0.078125,-0.390625,352
353,1695741307879,-0.25927734,-0.9265747,0.3546753,-1.59375,0.1875,-0.578125,353
354,1695741307919,-0.25878906,-0.9319458,0.354187,-0.703125,0.125,-0.109375,354
355,1695741307959,-0.26123047,-0.92193604,0.35198975,-1.171875,0.125,-0.6875,355
356,1695741307999,-0.2614746,-0.9302368,0.35516357,-0.125,0.25,0.171875,356
357,1695741308039,-0.25317383,-0.9273071,0.34783936,-3.03125,0.390625,-1.5,357
358,1695741308079,-0.2668457,-0.9260864,0.3673706,-1.953125,0.234375,-0.53125,358
359,1695741308119,-0.25756836,-0.9224243,0.35491943,-0.515625,-0.046875,-0.046875,359
360,1695741308159,-0.26123047,-0.9307251,0.36297607,-1.1875,0.515625,-0.71875,360
361,1695741308199,-0.26123047,-0.92681885,0.35638428,-0.4375,-0.03125,-0.5,361
362,1695741308239,-0.26123047,-0.9265747,0.35662842,-0.796875,0.125,-0.421875,362
363,1695741308279,-0.2631836,-0.9265747,0.3600464,-0.546875,0.4375,-0.421875,363
364,1695741308319,-0.25976562,-0.9277954,0.3632202,-1.0625,0.28125,-0.609375,364
365,1695741308359,-0.27392578,-0.9260864,0.36175537,-0.765625,-0.0625,-0.15625,365
366,1695741308399,-0.25927734,-0.92803955,0.3607788,-0.375,-0.328125,0.109375,366
367,1695741308439,-0.2590332,-0.92315674,0.36419678,-1.15625,0.328125,-0.4375,367
368,1695741308479,-0.27270508,-0.9326782,0.35369873,-0.390625,0.40625,-0.453125,368
369,1695741308519,-0.25854492,-0.928772,0.36566162,-1.015625,0.15625,-0.265625,369
370,1695741308559,-0.2607422,-0.9224243,0.3673706,-0.8125,0.09375,-0.34375,370
371,1695741308599,-0.2680664,-0.9258423,0.35882568,-0.421875,0.171875,-0.296875,371
372,1695741308639,-0.26538086,-0.9221802,0.3637085,-0.6875,-0.09375,-0.203125,372
373,1695741308679,-0.26220703,-0.9290161,0.35614014,-0.40625,0.203125,-0.296875,373
374,1695741308719,-0.26831055,-0.92974854,0.36395264,-1.078125,0.203125,-0.453125,374
375,1695741308759,-0.2607422,-0.9319458,0.35736084,-0.3125,-0.140625,-0.046875,375
376,1695741308799,-0.25976562,-0.92803955,0.36175537,-0.390625,0.375,-0.46875,376
377,1695741308839,-0.26220703,-0.93170166,0.35931396,0.25,-0.109375,0.28125,377
378,1695741308879,-0.26293945,-0.9277954,0.35125732,-1.6875,0.3125,-0.75,378
379,1695741308919,-0.26586914,-0.91778564,0.3619995,-0.484375,0.234375,-0.125,379
380,1695741308959,-0.26049805,-0.92974854,0.36541748,0.65625,-0.15625,0.421875,380
381,1695741308999,-0.25390625,-0.9343872,0.35736084,-0.359375,0.0625,-0.5625,381
382,1695741309039,-0.27148438,-0.9234009,0.35321045,0.421875,0.28125,-0.25,382
383,1695741309079,-0.26416016,-0.9246216,0.36102295,0.71875,-0.0625,0.109375,383
384,1695741309119,-0.26660156,-0.93170166,0.35638428,0.640625,0.0625,0.203125,384
385,1695741309159,-0.26171875,-0.9209595,0.3554077,1.203125,0.25,-0.234375,385
386,1695741309199,-0.26782227,-0.9351196,0.35614014,0.953125,0.296875,0.59375,386
387,1695741309239,-0.26098633,-0.93048096,0.3529663,1.921875,-0.015625,0.625,387
388,1695741309279,-0.25561523,-0.9307251,0.34344482,0.875,0.1875,0.203125,388
389,1695741309319,-0.25512695,-0.9348755,0.3451538,1.953125,0.3125,0.296875,389
390,1695741309359,-0.2602539,-0.9343872,0.33685303,0.828125,0.921875,0.3125,390
391,1695741309399,-0.26220703,-0.93634033,0.34173584,1.9375,0.265625,0.578125,391
392,1695741309439,-0.25805664,-0.9397583,0.338562,1.828125,0.375,0.46875,392
393,1695741309479,-0.25708008,-0.9282837,0.33221436,0.703125,0.015625,0.328125,393
394,1695741309519,-0.2553711,-0.93927,0.32806396,0.53125,-0.0625,0.546875,394
395,1695741309559,-0.24731445,-0.9390259,0.33148193,0.71875,0.046875,0.46875,395
396,1695741309599,-0.24633789,-0.94000244,0.3307495,0.6875,0.765625,0.109375,396
397,1695741309639,-0.25976562,-0.92926025,0.3204956,0.328125,0.140625,0.015625,397
398,1695741309679,-0.2548828,-0.9451294,0.32635498,0.296875,0.46875,0.21875,398
399,1695741309719,-0.25097656,-0.93951416,0.32757568,-0.59375,0.25,-0.125,399
400,1695741309759,-0.25317383,-0.94537354,0.32196045,0.984375,0.0625,0.5625,400
401,1695741309799,-0.24121094,-0.9397583,0.3151245,0.453125,-0.078125,-0.03125,401
402,1695741309839,-0.2529297,-0.9380493,0.31732178,0.0,0.390625,-0.078125,402
403,1695741309879,-0.2512207,-0.9373169,0.32391357,0.453125,-0.03125,-0.140625,403
404,1695741309919,-0.2565918,-0.94488525,0.3156128,0.484375,-0.40625,0.4375,404
405,1695741309959,-0.24609375,-0.93951416,0.3163452,0.0625,0.453125,-0.171875,405
406,1695741309999,-0.25390625,-0.93878174,0.31195068,0.25,0.4375,-0.03125,406
407,1695741310039,-0.25097656,-0.9458618,0.31707764,0.109375,-0.203125,0.484375,407
408,1695741310079,-0.24487305,-0.9365845,0.31707764,0.234375,0.328125,0.125,408
409,1695741310119,-0.24291992,-0.9421997,0.3139038,0.421875,-0.15625,0.328125,409
410,1695741310159,-0.2421875,-0.95025635,0.31170654,-0.6875,0.0625,-0.0625,410
411,1695741310199,-0.24853516,-0.940979,0.3102417,-0.46875,0.359375,0.046875,411
412,1695741310239,-0.24536133,-0.94854736,0.30999756,-0.25,0.1875,-0.140625,412
413,1695741310279,-0.24804688,-0.9495239,0.307312,-0.578125,0.296875,0.0,413
414,1695741310319,-0.24145508,-0.94488525,0.30194092,-0.125,0.171875,0.15625,414
415,1695741310359,-0.2434082,-0.9500122,0.30389404,-0.75,0.3125,-0.3125,415
416,1695741310399,-0.24072266,-0.9524536,0.31536865,-0.90625,0.28125,-0.171875,416
417,1695741310439,-0.24243164,-0.94537354,0.30926514,-2.03125,0.703125,-0.53125,417
418,1695741310479,-0.24731445,-0.9468384,0.3143921,0.203125,0.046875,0.046875,418
419,1695741310519,-0.24047852,-0.93927,0.3065796,-0.4375,0.609375,-0.28125,419
420,1695741310559,-0.24780273,-0.94781494,0.30096436,-0.546875,0.46875,-0.484375,420
421,1695741310599,-0.25463867,-0.94732666,0.31976318,0.109375,0.375,-0.125,421
422,1695741310639,-0.24536133,-0.9495239,0.3078003,0.015625,-0.296875,0.234375,422
423,1695741310679,-0.23999023,-0.94122314,0.30413818,-0.46875,0.015625,-0.203125,423
424,1695741310719,-0.24316406,-0.9439087,0.3085327,-1.0625,0.46875,-0.59375,424
425,1695741310759,-0.24487305,-0.9534302,0.30926514,-0.5625,-0.078125,0.03125,425
426,1695741310799,-0.24072266,-0.94610596,0.3085327,-1.0,-0.234375,-0.25,426
427,1695741310839,-0.24414062,-0.9429321,0.30755615,-0.4375,0.40625,-0.25,427
428,1695741310879,-0.24609375,-0.95196533,0.30316162,-1.25,0.28125,-0.390625,428
429,1695741310919,-0.24951172,-0.94537354,0.31341553,-0.796875,0.3125,-0.3125,429
430,1695741310959,-0.24633789,-0.94317627,0.31072998,-0.765625,0.15625,-0.3125,430
431,1695741310999,-0.24560547,-0.9507446,0.30804443,-0.875,-0.0625,-0.390625,431
432,1695741311039,-0.24560547,-0.9356079,0.30267334,-1.046875,0.234375,-0.65625,432
433,1695741311079,-0.23901367,-0.94659424,0.3156128,-1.484375,0.390625,-0.578125,433
434,1695741311119,-0.2475586,-0.94244385,0.31610107,-3.515625,0.375,-0.90625,434
435,1695741311159,-0.24243164,-0.94610596,0.31878662,-1.296875,-0.40625,-0.1875,435
436,1695741311199,-0.23950195,-0.94366455,0.31585693,-1.9375,0.5625,-0.640625,436
437,1695741311239,-0.25170898,-0.94244385,0.3143921,-2.15625,0.21875,-0.671875,437
438,1695741311279,-0.24951172,-0.94000244,0.324646,-1.859375,-0.296875,-0.8125,438
439,1695741311319,-0.24902344,-0.94366455,0.31951904,-1.203125,0.046875,-0.34375,439
440,1695741311359,-0.24487305,-0.9390259,0.31976318,-1.6875,0.109375,-0.734375,440
441,1695741311399,-0.25756836,-0.93756104,0.32440186,-1.34375,0.625,-0.6875,441
442,1695741311439,-0.25024414,-0.9434204,0.322937,-1.59375,-0.5,-0.3125,442
443,1695741311479,-0.23901367,-0.9368286,0.32611084,-1.96875,0.015625,-0.625,443
444,1695741311519,-0.25268555,-0.944397,0.32635498,-1.265625,0.109375,-0.421875,444
445,1695741311559,-0.2524414,-0.9421997,0.3241577,-2.15625,0.0,-0.734375,445
446,1695741311599,-0.2524414,-0.93170166,0.33294678,-1.875,0.375,-0.703125,446
447,1695741311639,-0.24926758,-0.9446411,0.32757568,-1.046875,-0.046875,-0.421875,447
448,1695741311679,-0.25732422,-0.93585205,0.33319092,-2.03125,0.234375,-0.703125,448
449,1695741311719,-0.25439453,-0.9434204,0.33172607,-1.234375,-0.234375,-0.328125,449
450,1695741311759,-0.24853516,-0.9365845,0.3312378,-3.3125,0.640625,-1.421875,450
451,1695741311799,-0.25805664,-0.93878174,0.34124756,-2.078125,0.25,-0.421875,451
452,1695741311839,-0.25,-0.9380493,0.34051514,-0.890625,-0.25,-0.1875,452
453,1695741311879,-0.2541504,-0.93341064,0.34002686,-1.546875,0.1875,-0.875,453
454,1695741311919,-0.25610352,-0.942688,0.3397827,-1.4375,-0.078125,-0.859375,454
455,1695741311959,-0.26416016,-0.9378052,0.3427124,-1.3125,0.078125,-0.453125,455
456,1695741311999,-0.25024414,-0.9360962,0.3366089,-1.171875,-0.140625,-0.46875,456
457,1695741312039,-0.25146484,-0.9299927,0.3427124,-1.59375,-0.015625,-0.96875,457
458,1695741312079,-0.2614746,-0.9324341,0.3444214,-1.546875,-0.0625,-0.5,458
459,1695741312119,-0.25732422,-0.9385376,0.3468628,-1.671875,-0.3125,-0.46875,459
460,1695741312159,-0.25830078,-0.93341064,0.35272217,-1.484375,0.328125,-0.65625,460
461,1695741312199,-0.26049805,-0.93463135,0.3439331,-1.171875,0.03125,-0.640625,461
462,1695741312239,-0.25463867,-0.92926025,0.34613037,-1.640625,0.125,-0.578125,462
463,1695741312279,-0.25878906,-0.9312134,0.35565186,-1.875,0.0625,-0.53125,463
464,1695741312319,-0.25927734,-0.9338989,0.35614014,-0.625,0.171875,-0.484375,464
465,1695741312359,-0.2607422,-0.92315674,0.34832764,-1.640625,-0.109375,-0.640625,465
466,1695741312399,-0.25854492,-0.93536377,0.35247803,-0.546875,-0.21875,-0.296875,466
467,1695741312439,-0.2553711,-0.93414307,0.3468628,-4.125,0.671875,-1.828125,467
468,1695741312479,-0.2692871,-0.9290161,0.35980225,-1.640625,0.140625,-0.0625,468
469,1695741312519,-0.25634766,-0.9312134,0.355896,-0.65625,-0.15625,-0.265625,469
470,1695741312559,-0.2590332,-0.928772,0.35931396,-1.34375,0.40625,-0.671875,470
471,1695741312599,-0.25732422,-0.92559814,0.3554077,-1.0625,0.03125,-0.640625,471
472,1695741312639,-0.2692871,-0.9324341,0.35272217,-0.9375,0.0,-0.390625,472
473,1695741312679,-0.2607422,-0.9295044,0.36517334,-0.8125,0.28125,-0.359375,473
474,1695741312719,-0.26831055,-0.9312134,0.3619995,-0.453125,0.5625,-0.671875,474
475,1695741312759,-0.26782227,-0.9299927,0.35614014,-0.96875,-0.265625,-0.1875,475
476,1695741312799,-0.26293945,-0.92974854,0.35760498,-0.6875,-0.0625,-0.109375,476
477,1695741312839,-0.25805664,-0.93096924,0.35784912,-0.734375,0.34375,-0.390625,477
478,1695741312879,-0.26416016,-0.9312134,0.35247803,-1.03125,0.171875,-0.328125,478
479,1695741312919,-0.25854492,-0.93096924,0.36297607,-1.03125,0.234375,-0.4375,479
480,1695741312959,-0.2565918,-0.9273071,0.35247803,-0.640625,0.078125,-0.375,480
481,1695741312999,-0.26245117,-0.92852783,0.35614014,-1.3125,0.140625,-0.65625,481
482,1695741313039,-0.2668457,-0.9312134,0.3619995,-0.9375,0.0625,-0.109375,482
483,1695741313079,-0.26342773,-0.9248657,0.36444092,-0.328125,0.234375,-0.53125,483
484,1695741313119,-0.26489258,-0.9307251,0.3522339,-0.546875,0.421875,0.015625,484
485,1695741313159,-0.25805664,-0.9336548,0.34979248,-1.671875,0.171875,-0.828125,485
486,1695741313199,-0.27148438,-0.92559814,0.36541748,-3.171875,0.375,-0.8125,486
487,1695741313239,-0.26831055,-0.92926025,0.37298584,0.421875,-0.0625,0.1875,487
488,1695741313279,-0.26782227,-0.928772,0.36517334,-1.0,0.1875,-0.484375,488
489,1695741313319,-0.26782227,-0.9277954,0.3624878,-0.875,-0.234375,-0.25,489
490,1695741313359,-0.26538086,-0.92803955,0.36175537,-0.21875,-0.015625,-0.1875,490
491,1695741313399,-0.25854492,-0.92803955,0.3600464,-0.359375,0.15625,-0.109375,491
492,1695741313439,-0.25878906,-0.9295044,0.36761475,-0.90625,0.46875,-0.796875,492
493,1695741313479,-0.27270508,-0.93096924,0.3619995,-0.21875,0.28125,-0.234375,493
494,1695741313519,-0.265625,-0.9277954,0.35369873,-0.625,-0.203125,0.234375,494
495,1695741313559,-0.2692871,-0.92559814,0.36590576,-0.640625,0.34375,-0.296875,495
496,1695741313599,-0.26123047,-0.92193604,0.3600464,-0.203125,0.3125,-0.15625,496
497,1695741313639,-0.25952148,-0.93170166,0.3619995,-1.265625,-0.015625,-0.234375,497
498,1695741313679,-0.26904297,-0.9246216,0.36102295,-0.171875,0.46875,-0.078125,498
499,1695741313719,-0.2631836,-0.9295044,0.35272217,-0.328125,0.0625,-0.1875,499
500,1695741313759,-0.2644043,-0.92510986,0.3649292,-1.53125,0.15625,-0.25,500
501,1695741313799,-0.265625,-0.92852783,0.3600464,0.203125,-0.015625,0.015625,501
502,1695741313839,-0.26635742,-0.92193604,0.3612671,-0.328125,0.234375,-0.34375,502
503,1695741313879,-0.2614746,-0.9336548,0.35858154,0.703125,0.328125,0.5625,503
504,1695741313919,-0.2614746,-0.9204712,0.35516357,-1.21875,0.78125,-1.09375,504
505,1695741313959,-0.2705078,-0.91973877,0.36468506,-1.109375,0.015625,0.0,505
506,1695741313999,-0.25561523,-0.9373169,0.36151123,0.96875,0.03125,0.375,506
507,1695741314039,-0.26049805,-0.9302368,0.3534546,-0.09375,0.046875,-0.3125,507
508,1695741314079,-0.25854492,-0.9229126,0.35809326,0.015625,0.515625,-0.125,508
509,1695741314119,-0.27319336,-0.92755127,0.35809326,0.28125,0.59375,0.015625,509
510,1695741314159,-0.2644043,-0.9356079,0.34954834,0.4375,-0.3125,0.5625,510
511,1695741314199,-0.25341797,-0.9234009,0.34954834,0.640625,0.34375,-0.140625,511
512,1695741314239,-0.26782227,-0.9324341,0.35516357,0.265625,0.3125,0.328125,512
513,1695741314279,-0.2602539,-0.93463135,0.3444214,0.59375,0.03125,0.578125,513
514,1695741314319,-0.2614746,-0.9336548,0.3517456,1.203125,0.46875,0.53125,514
515,1695741314359,-0.26049805,-0.93878174,0.33709717,0.65625,0.0625,0.109375,515
516,1695741314399,-0.25708008,-0.93170166,0.34173584,0.171875,-0.015625,0.265625,516
517,1695741314439,-0.25390625,-0.9378052,0.3378296,1.140625,0.34375,0.375,517
518,1695741314479,-0.2578125,-0.9373169,0.34344482,0.3125,0.53125,0.421875,518
519,1695741314519,-0.2487793,-0.9434204,0.33587646,1.09375,-0.015625,0.703125,519
520,1695741314559,-0.25317383,-0.9314575,0.34100342,0.34375,0.640625,0.0,520
521,1695741314599,-0.2524414,-0.944397,0.33538818,-0.078125,0.46875,0.21875,521
522,1695741314639,-0.25390625,-0.94122314,0.33709717,-0.25,0.390625,-0.171875,522
523,1695741314679,-0.25854492,-0.93927,0.3390503,0.40625,0.0625,0.40625,523
524,1695741314719,-0.24072266,-0.9351196,0.32781982,0.265625,-0.125,0.234375,524
525,1695741314759,-0.25195312,-0.940979,0.32659912,0.5625,1.0625,-0.078125,525
526,1695741314799,-0.25268555,-0.94366455,0.33294678,-0.015625,-0.109375,0.140625,526
527,1695741314839,-0.25048828,-0.94366455,0.32635498,0.765625,0.25,-0.015625,527
528,1695741314879,-0.24731445,-0.942688,0.32904053,0.703125,0.359375,0.15625,528
529,1695741314919,-0.25952148,-0.94317627,0.32366943,-0.03125,0.328125,-0.109375,529
530,1695741314959,-0.25268555,-0.9373169,0.32537842,0.15625,-0.09375,0.421875,530
531,1695741314999,-0.2475586,-0.9487915,0.32025146,-0.09375,-0.203125,0.203125,531
532,1695741315039,-0.2487793,-0.94488525,0.32659912,0.734375,0.203125,0.265625,532
533,1695741315079,-0.24438477,-0.9480591,0.31072998,-0.125,0.109375,-0.03125,533
534,1695741315119,-0.25268555,-0.9351196,0.31854248,-0.953125,0.25,-0.265625,534
535,1695741315159,-0.24975586,-0.94781494,0.32733154,0.46875,0.546875,0.015625,535
536,1695741315199,-0.24121094,-0.940979,0.3151245,-0.15625,0.171875,-0.328125,536
537,1695741315239,-0.24584961,-0.93707275,0.3126831,-0.40625,0.140625,-0.171875,537
538,1695741315279,-0.24926758,-0.9439087,0.3204956,-0.890625,0.75,-0.546875,538
539,1695741315319,-0.24682617,-0.9446411,0.32440186,-1.34375,0.171875,-0.4375,539
540,1695741315359,-0.24658203,-0.942688,0.32391357,-0.109375,-0.03125,0.0,540
541,1695741315399,-0.23901367,-0.94122314,0.31219482,-0.59375,0.40625,-0.703125,541
542,1695741315439,-0.24975586,-0.94317627,0.31732178,-0.75,0.421875,-0.359375,542
543,1695741315479,-0.24536133,-0.9456177,0.3209839,-0.140625,-0.0625,0.015625,543
544,1695741315519,-0.24194336,-0.93829346,0.31707764,-0.40625,-0.0625,-0.203125,544
545,1695741315559,-0.24804688,-0.93927,0.3180542,-0.359375,0.578125,-0.421875,545
546,1695741315599,-0.25708008,-0.940979,0.32366943,-0.875,-0.171875,-0.25,546
547,1695741315639,-0.23999023,-0.9365845,0.322937,-0.28125,-0.03125,-0.09375,547
548,1695741315679,-0.24316406,-0.94781494,0.32196045,-0.234375,0.46875,-0.171875,548
549,1695741315719,-0.24584961,-0.95025635,0.31414795,-1.265625,-0.3125,-0.390625,549
550,1695741315759,-0.23730469,-0.9385376,0.32073975,-1.171875,0.484375,-0.4375,550
551,1695741315799,-0.25634766,-0.9495239,0.3204956,-0.546875,0.21875,-0.015625,551
552,1695741315839,-0.2475586,-0.9390259,0.3114624,-1.125,0.265625,-0.734375,552
553,1695741315879,-0.24511719,-0.9421997,0.3192749,-1.140625,-0.03125,-0.25,553
554,1695741315919,-0.24291992,-0.9500122,0.32244873,-2.921875,0.984375,-1.09375,554
555,1695741315959,-0.24951172,-0.9480591,0.3222046,-1.34375,-0.21875,-0.21875,555
556,1695741315999,-0.24243164,-0.94000244,0.3222046,-1.9375,0.03125,-0.4375,556
557,1695741316039,-0.2529297,-0.94659424,0.32269287,-1.734375,0.671875,-0.875,557
558,1695741316079,-0.25024414,-0.9390259,0.32513428,-1.453125,-0.203125,-0.453125,558
559,1695741316119,-0.24926758,-0.9421997,0.32904053,-0.640625,-0.0625,-0.1875,559
560,1695741316159,-0.24902344,-0.94244385,0.3287964,-0.9375,0.140625,-0.203125,560
561,1695741316199,-0.24633789,-0.94195557,0.324646,-1.40625,0.34375,-0.78125,561
562,1695741316239,-0.2541504,-0.9365845,0.3307495,-0.859375,-0.234375,-0.015625,562
563,1695741316279,-0.24731445,-0.9351196,0.33026123,-1.296875,-0.234375,-0.59375,563
564,1695741316319,-0.2529297,-0.93756104,0.33807373,-1.40625,0.421875,-0.328125,564
565,1695741316359,-0.2446289,-0.9402466,0.32733154,-1.4375,0.1875,-0.53125,565
566,1695741316399,-0.25146484,-0.9360962,0.33758545,-2.28125,0.203125,-0.625,566
567,1695741316439,-0.24682617,-0.9421997,0.34173584,-0.640625,0.28125,-0.40625,567
568,1695741316479,-0.25024414,-0.94000244,0.32318115,-1.328125,0.1875,-0.421875,568
569,1695741316519,-0.24389648,-0.93218994,0.33416748,-2.046875,-0.234375,-0.921875,569
570,1695741316559,-0.25170898,-0.9326782,0.33880615,-3.15625,0.625,-1.15625,570
571,1695741316599,-0.2536621,-0.94073486,0.34051514,-1.359375,-0.421875,-0.3125,571
572,1695741316639,-0.24194336,-0.93170166,0.33636475,-1.375,-0.03125,-0.5,572
573,1695741316679,-0.24975586,-0.9397583,0.34490967,-2.296875,0.046875,-0.984375,573
574,1695741316719,-0.25976562,-0.93585205,0.3463745,-1.296875,-0.109375,-0.890625,574
575,1695741316759,-0.25878906,-0.9348755,0.3468628,-1.484375,-0.1875,-0.5,575
576,1695741316799,-0.2536621,-0.9282837,0.3505249,-1.03125,0.015625,-0.796875,576
577,1695741316839,-0.25976562,-0.9302368,0.3456421,-1.765625,0.0625,-0.84375,577
578,1695741316879,-0.2614746,-0.9307251,0.3444214,-1.203125,-0.34375,-0.328125,578
579,1695741316919,-0.25463867,-0.9290161,0.35272217,-1.546875,0.296875,-0.625,579
580,1695741316959,-0.26245117,-0.9365845,0.3475952,-0.984375,0.0625,-0.609375,580
581,1695741316999,-0.25927734,-0.93292236,0.34613037,-1.5625,0.125,-0.765625,581
582,1695741317039,-0.26342773,-0.923645,0.355896,-1.59375,-0.03125,-0.5,582
583,1695741317079,-0.2602539,-0.9326782,0.35565186,-0.765625,0.34375,-0.515625,583
584,1695741317119,-0.2614746,-0.9312134,0.35003662,-1.0625,-0.3125,-0.171875,584
585,1695741317159,-0.2475586,-0.9299927,0.3517456,-1.53125,0.109375,-1.03125,585
586,1695741317199,-0.26953125,-0.9307251,0.35760498,-3.578125,0.84375,-1.140625,586
587,1695741317239,-0.26416016,-0.93585205,0.3637085,-1.140625,-0.078125,0.046875,587
588,1695741317279,-0.26245117,-0.92803955,0.3619995,-0.640625,0.203125,-0.1875,588
589,1695741317319,-0.2602539,-0.9314575,0.36029053,-1.109375,0.0625,-0.734375,589
590,1695741317359,-0.26489258,-0.9360962,0.36419678,-0.765625,0.21875,-0.46875,590
591,1695741317399,-0.25830078,-0.93218994,0.36517334,-0.609375,0.09375,-0.09375,591
592,1695741317439,-0.25854492,-0.9336548,0.36175537,-0.796875,0.296875,-0.515625,592
593,1695741317479,-0.2680664,-0.9299927,0.36468506,-0.734375,0.234375,-0.34375,593
594,1695741317519,-0.26220703,-0.93096924,0.3632202,-0.578125,0.28125,0.046875,594
595,1695741317559,-0.25732422,-0.93463135,0.36102295,-0.984375,0.203125,-0.46875,595
596,1695741317599,-0.2578125,-0.92559814,0.3612671,-0.546875,0.1875,-0.25,596
597,1695741317639,-0.26220703,-0.92803955,0.3607788,-0.78125,0.421875,-0.328125,597
598,1695741317679,-0.2619629,-0.9314575,0.35809326,-0.9375,0.203125,-0.421875,598
599,1695741317719,-0.2626953,-0.9299927,0.36175537,-1.0625,0.328125,-0.4375,599
600,1695741317759,-0.2644043,-0.9273071,0.37371826,-0.140625,0.28125,-0.234375,600
601,1695741317799,-0.26635742,-0.9290161,0.3534546,-1.296875,0.03125,-0.296875,601
602,1695741317839,-0.25683594,-0.92926025,0.36175537,-0.0625,0.03125,-0.25,602
603,1695741317879,-0.2578125,-0.92633057,0.36273193,-3.5,0.78125,-1.34375,603
604,1695741317919,-0.26708984,-0.92755127,0.37420654,-0.765625,-0.078125,-0.03125,604
605,1695741317959,-0.26489258,-0.92633057,0.36712646,-0.46875,0.296875,-0.3125,605
606,1695741317999,-0.26049805,-0.92510986,0.3612671,-1.0,0.3125,-0.390625,606
607,1695741318039,-0.26464844,-0.9282837,0.36273193,-0.5625,0.078125,-0.421875,607
608,1695741318079,-0.26171875,-0.9209595,0.36810303,-0.28125,-0.140625,-0.234375,608
609,1695741318119,-0.2614746,-0.9302368,0.36224365,-0.4375,0.375,-0.375,609
610,1695741318159,-0.27294922,-0.92926025,0.36517334,-0.6875,0.109375,-0.328125,610
611,1695741318199,-0.26733398,-0.9241333,0.35931396,-0.015625,-0.328125,0.203125,611
612,1695741318239,-0.25512695,-0.9273071,0.36761475,-0.125,-0.1875,-0.046875,612
613,1695741318279,-0.2602539,-0.9273071,0.3624878,-0.171875,0.34375,-0.046875,613
614,1695741318319,-0.26098633,-0.9326782,0.3571167,0.296875,-0.03125,0.03125,614
615,1695741318359,-0.2602539,-0.927063,0.3649292,0.03125,0.34375,0.125,615
616,1695741318399,-0.26171875,-0.928772,0.35662842,1.0625,0.25,0.28125,616
617,1695741318439,-0.26538086,-0.9324341,0.35662842,0.90625,0.171875,0.171875,617
618,1695741318479,-0.26513672,-0.92022705,0.35443115,-0.234375,0.03125,-0.09375,618
619,1695741318519,-0.2619629,-0.9338989,0.35760498,1.609375,0.421875,0.59375,619
620,1695741318559,-0.26293945,-0.93048096,0.3600464,1.390625,0.484375,0.15625,620
621,1695741318599,-0.26489258,-0.9314575,0.34881592,0.609375,0.296875,0.53125,621
622,1695741318639,-0.2578125,-0.92926025,0.33831787,-0.625,0.65625,-0.625,622
623,1695741318679,-0.26367188,-0.9326782,0.35565186,-0.265625,0.390625,0.53125,623
624,1695741318719,-0.2536621,-0.93829346,0.3522339,1.859375,0.03125,0.859375,624
625,1695741318759,-0.25219727,-0.9373169,0.34051514,0.40625,0.53125,0.078125,625
626,1695741318799,-0.25756836,-0.9378052,0.3427124,0.1875,0.171875,0.09375,626
627,1695741318839,-0.24609375,-0.93414307,0.34051514,1.109375,0.421875,0.296875,627
628,1695741318879,-0.25561523,-0.9378052,0.34002686,0.6875,-0.0625,0.34375,628
629,1695741318919,-0.24853516,-0.9314575,0.33538818,0.296875,0.203125,-0.125,629
630,1695741318959,-0.26123047,-0.9385376,0.34368896,1.0625,0.5625,0.484375,630
631,1695741318999,-0.25048828,-0.942688,0.32977295,0.78125,-0.25,0.703125,631
632,1695741319039,-0.2446289,-0.9368286,0.33294678,0.34375,0.40625,0.03125,632
633,1695741319079,-0.24487305,-0.93536377,0.33709717,1.015625,0.390625,0.296875,633
634,1695741319119,-0.2529297,-0.94488525,0.32366943,-0.03125,0.4375,0.21875,634
635,1695741319159,-0.24365234,-0.9397583,0.3217163,0.671875,0.1875,0.203125,635
636,1695741319199,-0.24926758,-0.9380493,0.32904053,0.203125,0.1875,-0.046875,636
637,1695741319239,-0.24560547,-0.9446411,0.33172607,0.09375,0.234375,-0.015625,637
638,1695741319279,-0.24682617,-0.9492798,0.32122803,0.390625,0.03125,0.375,638
639,1695741319319,-0.24853516,-0.94732666,0.3222046,0.21875,0.265625,-0.109375,639
640,1695741319359,-0.24584961,-0.94976807,0.33099365,-0.109375,0.25,0.046875,640
641,1695741319399,-0.24682617,-0.95440674,0.3241577,-1.53125,0.625,-0.390625,641
642,1695741319439,-0.25,-0.9404907,0.32806396,0.53125,0.15625,0.25,642
643,1695741319479,-0.24511719,-0.9338989,0.3168335,0.25,0.03125,0.1875,643
644,1695741319519,-0.25048828,-0.94244385,0.31292725,-0.59375,0.359375,-0.171875,644
645,1695741319559,-0.24169922,-0.93951416,0.32318115,0.53125,0.015625,0.125,645
646,1695741319599,-0.24584961,-0.94415283,0.31488037,0.03125,-0.03125,0.125,646
647,1695741319639,-0.24121094,-0.9492798,0.31610107,-0.109375,0.0,0.015625,647
648,1695741319679,-0.24609375,-0.93878174,0.31707764,0.4375,0.640625,-0.0625,648
649,1695741319719,-0.2475586,-0.9500122,0.31878662,-0.15625,-0.125,0.40625,649
650,1695741319759,-0.23754883,-0.940979,0.3131714,0.234375,0.265625,0.109375,650
651,1695741319799,-0.2487793,-0.9446411,0.3085327,0.25,0.28125,0.171875,651
652,1695741319839,-0.23608398,-0.9483032,0.3151245,-0.34375,-0.03125,0.046875,652
653,1695741319879,-0.23828125,-0.9470825,0.31341553,-0.40625,0.78125,0.0,653
654,1695741319919,-0.24829102,-0.9468384,0.30926514,-0.140625,-0.046875,0.03125,654
655,1695741319959,-0.24487305,-0.9468384,0.30755615,0.09375,0.171875,0.34375,655
656,1695741319999,-0.23901367,-0.9348755,0.30950928,-1.015625,-0.125,-0.375,656
657,1695741320039,-0.23510742,-0.94537354,0.30560303,-1.1875,-0.078125,-0.28125,657
658,1695741320079,-0.2409668,-0.94903564,0.309021,-3.5625,0.296875,-0.828125,658
659,1695741320119,-0.23486328,-0.94317627,0.3295288,-0.171875,-0.046875,0.484375,659
660,1695741320159,-0.23608398,-0.9429321,0.30706787,-0.75,0.9375,-0.28125,660
661,1695741320199,-0.2368164,-0.94073486,0.31243896,-1.578125,0.0625,-0.78125,661
662,1695741320239,-0.23754883,-0.94732666,0.32318115,-0.828125,-0.125,-0.265625,662
663,1695741320279,-0.2421875,-0.9458618,0.30828857,-0.65625,0.125,-0.140625,663
664,1695741320319,-0.23901367,-0.942688,0.30584717,-0.84375,-0.25,-0.484375,664
665,1695741320359,-0.24267578,-0.9480591,0.31365967,-1.53125,0.203125,-0.671875,665
666,1695741320399,-0.2368164,-0.9492798,0.31195068,-1.046875,-0.3125,-0.203125,666
667,1695741320439,-0.2397461,-0.9385376,0.31414795,-1.59375,0.15625,-0.703125,667
668,1695741320479,-0.23852539,-0.9468384,0.3180542,-1.015625,-0.046875,-0.421875,668
669,1695741320519,-0.24047852,-0.942688,0.31878662,-1.75,0.21875,-0.765625,669
670,1695741320559,-0.24536133,-0.94195557,0.31658936,-1.875,0.375,-0.734375,670
671,1695741320599,-0.24194336,-0.94732666,0.32269287,-1.171875,0.1875,-0.59375,671
672,1695741320639,-0.24682617,-0.93829346,0.32635498,-1.828125,0.40625,-0.828125,672
673,1695741320679,-0.23901367,-0.9468384,0.32440186,-1.4375,-0.28125,-0.34375,673
674,1695741320719,-0.23364258,-0.94195557,0.3209839,-3.53125,0.796875,-1.453125,674
675,1695741320759,-0.24926758,-0.944397,0.3283081,-1.625,0.203125,-0.71875,675
676,1695741320799,-0.24243164,-0.9380493,0.32122803,-1.40625,0.125,-0.5,676
677,1695741320839,-0.24389648,-0.9402466,0.324646,-2.203125,0.265625,-0.953125,677
678,1695741320879,-0.25341797,-0.9446411,0.33416748,-1.859375,-0.015625,-0.890625,678
679,1695741320919,-0.24951172,-0.94000244,0.33587646,-1.015625,-0.03125,-0.609375,679
680,1695741320959,-0.24316406,-0.93878174,0.33294678,-1.40625,0.125,-0.515625,680
681,1695741320999,-0.24658203,-0.9390259,0.33587646,-1.5625,0.09375,-1.046875,681
682,1695741321039,-0.2512207,-0.93585205,0.33392334,-1.421875,-0.28125,-0.40625,682
683,1695741321079,-0.24560547,-0.9414673,0.33880615,-1.265625,-0.09375,-0.453125,683
684,1695741321119,-0.24902344,-0.9356079,0.34466553,-1.421875,0.328125,-0.453125,684
685,1695741321159,-0.25024414,-0.94366455,0.33709717,-1.359375,-0.15625,-0.625,685
686,1695741321199,-0.24511719,-0.9312134,0.34051514,-2.34375,0.0625,-0.859375,686
687,1695741321239,-0.25732422,-0.9348755,0.34661865,-0.84375,0.1875,-0.265625,687
688,1695741321279,-0.25634766,-0.9365845,0.34661865,-0.84375,0.15625,-0.671875,688
689,1695741321319,-0.25,-0.9380493,0.33758545,-1.046875,-0.078125,-0.21875,689
690,1695741321359,-0.24609375,-0.9356079,0.3366089,-2.015625,0.296875,-1.328125,690
691,1695741321399,-0.26611328,-0.93536377,0.35028076,-2.546875,0.359375,-0.6875,691
692,1695741321439,-0.2548828,-0.93536377,0.34954834,-0.015625,-0.140625,0.0,692
693,1695741321479,-0.2529297,-0.93414307,0.34368896,-1.265625,0.1875,-0.734375,693
694,1695741321519,-0.25170898,-0.9324341,0.34832764,-1.40625,-0.03125,-0.796875,694
695,1695741321559,-0.26098633,-0.9351196,0.34613037,-0.796875,-0.0625,-0.3125,695
696,1695741321599,-0.25073242,-0.9324341,0.3529663,-0.859375,0.421875,-0.390625,696
697,1695741321639,-0.25610352,-0.9351196,0.3534546,-0.796875,0.046875,-0.734375,697
698,1695741321679,-0.25878906,-0.9326782,0.3456421,-1.046875,-0.234375,-0.34375,698
699,1695741321719,-0.24951172,-0.9380493,0.34490967,-0.828125,-0.125,-0.125,699
700,1695741321759,-0.25585938,-0.9295044,0.34735107,-0.9375,0.390625,-0.359375,700
701,1695741321799,-0.26245117,-0.93463135,0.34783936,-0.734375,0.125,-0.421875,701
702,1695741321839,-0.25073242,-0.9307251,0.34979248,-0.734375,0.046875,-0.421875,702
703,1695741321879,-0.25170898,-0.9331665,0.35150146,-0.78125,0.46875,-0.640625,703
704,1695741321919,-0.26000977,-0.93585205,0.34588623,-1.59375,0.265625,-0.703125,704
705,1695741321959,-0.25878906,-0.93927,0.3522339,-0.515625,-0.265625,-0.015625,705
706,1695741321999,-0.25097656,-0.93341064,0.35101318,-0.765625,0.140625,-0.59375,706
707,1695741322039,-0.25976562,-0.9417114,0.34979248,-0.390625,0.390625,0.015625,707
708,1695741322079,-0.24951172,-0.93048096,0.33831787,-2.34375,0.5625,-1.453125,708
709,1695741322119,-0.26464844,-0.9319458,0.3571167,-1.796875,0.03125,-0.265625,709
710,1695741322159,-0.25097656,-0.9365845,0.35516357,0.0,-0.15625,0.078125,710
711,1695741322199,-0.2524414,-0.9351196,0.355896,-1.0625,0.375,-0.578125,711
712,1695741322239,-0.2590332,-0.9299927,0.35076904,-0.59375,0.109375,-0.4375,712
713,1695741322279,-0.2578125,-0.92974854,0.3529663,-0.28125,0.390625,-0.1875,713
714,1695741322319,-0.25463867,-0.9368286,0.34906006,0.015625,-0.03125,0.03125,714
715,1695741322359,-0.25610352,-0.92388916,0.35614014,0.375,0.25,-0.25,715
716,1695741322399,-0.2680664,-0.93096924,0.34783936,0.203125,0.1875,-0.0625,716
717,1695741322439,-0.25219727,-0.9378052,0.34857178,0.21875,-0.4375,0.28125,717
718,1695741322479,-0.25170898,-0.9348755,0.34857178,0.734375,0.453125,0.0,718
719,1695741322519,-0.25732422,-0.93878174,0.34832764,0.734375,0.03125,0.078125,719
720,1695741322559,-0.25927734,-0.9343872,0.3439331,0.09375,0.03125,0.234375,720
721,1695741322599,-0.25341797,-0.9307251,0.34197998,1.125,0.21875,0.3125,721
722,1695741322639,-0.25610352,-0.94122314,0.3444214,0.765625,0.375,0.03125,722
723,1695741322679,-0.25097656,-0.93756104,0.34051514,-0.21875,0.171875,0.0,723
724,1695741322719,-0.24780273,-0.93927,0.33538818,1.28125,0.03125,0.640625,724
725,1695741322759,-0.24829102,-0.9356079,0.33221436,0.984375,0.234375,0.09375,725
726,1695741322799,-0.25195312,-0.93756104,0.3336792,0.40625,0.390625,0.296875,726
727,1695741322839,-0.24926758,-0.9429321,0.33026123,-0.890625,0.671875,-0.59375,727
728,1695741322879,-0.26049805,-0.9402466,0.3427124,0.0,0.5625,0.34375,728
729,1695741322919,-0.25024414,-0.9439087,0.3312378,1.828125,0.140625,0.859375,729
730,1695741322959,-0.24194336,-0.94073486,0.3204956,-0.234375,0.46875,-0.046875,730
731,1695741322999,-0.25146484,-0.93292236,0.32659912,0.203125,0.203125,-0.25,731
732,1695741323039,-0.25463867,-0.940979,0.32635498,0.96875,-0.171875,0.15625,732
733,1695741323079,-0.24389648,-0.93878174,0.33294678,0.578125,0.265625,0.515625,733
734,1695741323119,-0.2529297,-0.9373169,0.3295288,0.609375,0.5625,-0.078125,734
735,1695741323159,-0.2487793,-0.9458618,0.32391357,0.5625,0.015625,0.265625,735
736,1695741323199,-0.24853516,-0.944397,0.31878662,-0.09375,-0.109375,0.390625,736
737,1695741323239,-0.24267578,-0.9385376,0.32562256,1.078125,0.359375,0.1875,737
738,1695741323279,-0.24584961,-0.95098877,0.3180542,0.53125,-0.15625,0.375,738
739,1695741323319,-0.24169922,-0.93878174,0.3139038,-0.375,0.234375,0.015625,739
740,1695741323359,-0.24291992,-0.94537354,0.3168335,0.53125,0.296875,0.015625,740
741,1695741323399,-0.2434082,-0.942688,0.31536865,-0.5625,0.0625,-0.125,741
742,1695741323439,-0.24389648,-0.9475708,0.32659912,0.359375,0.234375,0.171875,742
743,1695741323479,-0.23242188,-0.9365845,0.31658936,-0.03125,0.09375,-0.296875,743
744,1695741323519,-0.25390625,-0.9475708,0.3024292,-1.578125,1.234375,-0.65625,744
745,1695741323559,-0.24072266,-0.9421997,0.31414795,-0.03125,-0.578125,-0.03125,745
746,1695741323599,-0.23852539,-0.9421997,0.31854248,-0.828125,0.671875,-0.34375,746
747,1695741323639,-0.24267578,-0.9451294,0.3126831,-0.234375,0.296875,-0.171875,747
748,1695741323679,-0.24121094,-0.9483032,0.30682373,-0.4375,0.203125,-0.34375,748
749,1695741323719,-0.24169922,-0.94415283,0.31585693,-0.625,0.296875,-0.3125,749
750,1695741323759,-0.24316406,-0.9463501,0.322937,0.078125,-0.03125,-0.375,750
751,1695741323799,-0.24707031,-0.94488525,0.31414795,0.21875,-0.078125,0.0625,751
752,1695741323839,-0.23999023,-0.9439087,0.30999756,0.078125,-0.140625,-0.484375,752
753,1695741323879,-0.24658203,-0.94610596,0.30584717,0.015625,0.09375,0.015625,753
754,1695741323919,-0.23876953,-0.9451294,0.31365967,-0.46875,-0.421875,-0.125,754
755,1695741323959,-0.24487305,-0.9456177,0.307312,-0.1875,0.453125,-0.359375,755
756,1695741323999,-0.2475586,-0.954895,0.3156128,-0.4375,0.15625,-0.046875,756
757,1695741324039,-0.23925781,-0.94366455,0.30828857,-0.703125,0.328125,-0.3125,757
758,1695741324079,-0.24536133,-0.9456177,0.3126831,-0.703125,0.359375,-0.171875,758
759,1695741324119,-0.2446289,-0.9492798,0.3048706,-0.609375,-0.296875,-0.140625,759
