,timestamp,accel_x,accel_y,accel_z,gyro_x,gyro_y,gyro_z,ind
0,1695773383146,-0.03466797,-0.9780884,0.12860107,-1.421875,0.671875,-1.203125,0
1,1695773383186,-0.057128906,-0.9915161,0.14227295,-0.296875,0.5625,-0.03125,1
2,1695773383226,-0.059326172,-1.0149536,0.1395874,-2.734375,-1.4375,-1.453125,2
3,1695773383266,-0.04272461,-0.9924927,0.14764404,-1.421875,1.1875,-1.28125,3
4,1695773383306,-0.044433594,-0.98809814,0.14276123,-1.96875,0.140625,-1.1875,4
5,1695773383346,-0.06640625,-0.9939575,0.13519287,-1.9375,-0.4375,0.40625,5
6,1695773383386,-0.05908203,-0.9963989,0.14886475,-1.6875,-0.234375,-0.3125,6
7,1695773383426,-0.041015625,-0.9834595,0.14031982,-3.796875,0.078125,-1.84375,7
8,1695773383466,-0.061035156,-0.99664307,0.15692139,1.734375,0.09375,0.3125,8
9,1695773383506,-0.055419922,-0.98272705,0.14813232,-0.953125,-0.375,-1.296875,9
10,1695773383546,-0.060058594,-0.98565674,0.14666748,-1.65625,-0.0625,0.359375,10
11,1695773383586,-0.060058594,-1.0081177,0.1564331,0.546875,0.1875,-0.203125,11
12,1695773383626,-0.053466797,-0.99957275,0.15106201,-1.4375,0.015625,0.90625,12
13,1695773383666,-0.05102539,-0.99298096,0.14056396,-0.625,0.734375,0.265625,13
14,1695773383706,-0.053466797,-0.9734497,0.1461792,0.65625,1.171875,0.015625,14
15,1695773383746,-0.059326172,-0.99591064,0.1539917,-1.234375,-0.53125,-1.515625,15
16,1695773383786,-0.052246094,-0.9932251,0.14691162,-0.25,0.09375,-0.25,16
17,1695773383826,-0.06518555,-0.99786377,0.1449585,-1.953125,0.078125,-0.1875,17
18,1695773383866,-0.04663086,-0.9776001,0.15081787,0.359375,0.96875,1.09375,18
19,1695773383906,-0.043701172,-0.9907837,0.15863037,0.796875,1.328125,1.0,19
20,1695773383946,-0.064941406,-1.0071411,0.1515503,-2.203125,-0.625,-0.828125,20
21,1695773383986,-0.052001953,-1.0012817,0.14398193,-1.9375,1.671875,-1.375,21
22,1695773384026,-0.041748047,-0.98223877,0.14105225,-0.234375,1.890625,-0.140625,22
23,1695773384066,-0.043945312,-0.9968872,0.13519287,-0.859375,-0.78125,0.46875,23
24,1695773384106,-0.04638672,-0.98443604,0.15570068,-0.59375,-1.1875,1.125,24
25,1695773384146,-0.043701172,-0.9998169,0.14959717,-0.96875,0.625,-1.875,25
26,1695773384186,-0.056396484,-0.9795532,0.1473999,0.578125,0.65625,0.0625,26
27,1695773384226,-0.055664062,-0.9685669,0.14886475,-1.234375,-1.078125,-1.046875,27
28,1695773384266,-0.046142578,-1.0144653,0.15325928,-2.203125,-1.3125,0.015625,28
29,1695773384306,-0.049072266,-1.0081177,0.16668701,-1.859375,0.703125,1.46875,29
30,1695773384346,-0.047607422,-0.97906494,0.14788818,-2.984375,-1.90625,-0.34375,30
31,1695773384386,-0.04345703,-0.9812622,0.15057373,-2.890625,-1.234375,-0.5,31
32,1695773384426,-0.06274414,-0.9890747,0.17132568,-3.59375,-1.75,-0.71875,32
33,1695773384466,-0.060058594,-1.0073853,0.16888428,-2.6875,-1.859375,0.203125,33
34,1695773384506,-0.05102539,-0.9819946,0.16375732,-3.453125,0.0625,-0.359375,34
35,1695773384546,-0.04711914,-0.97784424,0.16986084,-2.125,-0.34375,-0.5,35
36,1695773384586,-0.048828125,-0.98809814,0.17840576,-2.03125,0.0625,-0.546875,36
37,1695773384626,-0.07495117,-1.0071411,0.18377686,-2.578125,-0.59375,0.359375,37
38,1695773384666,-0.043701172,-0.9763794,0.168396,-1.578125,1.625,-0.703125,38
39,1695773384706,-0.04711914,-1.000061,0.17547607,0.40625,-0.03125,0.46875,39
40,1695773384746,-0.040771484,-0.98321533,0.16546631,-0.4375,-0.765625,0.609375,40
41,1695773384786,-0.052490234,-0.99591064,0.18035889,0.4375,0.21875,-0.765625,41
42,1695773384826,-0.048339844,-1.0132446,0.1749878,-0.078125,0.9375,-0.25,42
43,1695773384866,-0.047607422,-0.9829712,0.16693115,1.078125,-0.140625,1.046875,43
44,1695773384906,-0.057128906,-0.9859009,0.17010498,-1.84375,0.0625,-0.421875,44
45,1695773384946,-0.045410156,-0.9849243,0.17254639,-0.078125,1.109375,0.0,45
46,1695773384986,-0.039794922,-0.9939575,0.17816162,-1.625,0.390625,-1.296875,46
47,1695773385026,-0.047607422,-0.98931885,0.16888428,-1.546875,-0.03125,-0.109375,47
48,1695773385066,-0.050048828,-1.0029907,0.17108154,0.015625,-0.28125,1.09375,48
49,1695773385106,-0.03955078,-0.9710083,0.18597412,1.046875,2.375,0.09375,49
50,1695773385146,-0.052246094,-0.99884033,0.16619873,-3.015625,-0.890625,-1.78125,50
51,1695773385186,-0.0390625,-0.98101807,0.15545654,-2.765625,0.125,-0.859375,51
52,1695773385226,-0.043945312,-0.99468994,0.17132568,0.859375,0.015625,0.90625,52
53,1695773385266,-0.029785156,-0.9859009,0.18792725,-0.515625,0.0625,-0.421875,53
54,1695773385306,-0.049072266,-1.0176392,0.17425537,-1.96875,-0.828125,-1.109375,54
55,1695773385346,-0.068603516,-0.9807739,0.168396,-2.25,0.203125,2.1875,55
56,1695773385386,-0.033203125,-0.9546509,0.15740967,0.078125,0.453125,-0.34375,56
57,1695773385426,-0.046875,-1.0076294,0.17303467,0.1875,-0.78125,-1.34375,57
58,1695773385466,-0.043701172,-1.0005493,0.18548584,0.09375,0.9375,-1.59375,58
59,1695773385506,-0.036376953,-0.99884033,0.17791748,0.28125,1.25,1.125,59
60,1695773385546,-0.052001953,-0.9727173,0.1671753,-1.40625,-0.6875,0.640625,60
61,1695773385586,-0.052490234,-0.96295166,0.17474365,-1.421875,-0.78125,-0.890625,61
62,1695773385626,-0.052001953,-1.0142212,0.17596436,0.359375,1.0625,-1.03125,62
63,1695773385666,-0.041503906,-1.0220337,0.18206787,-0.890625,1.484375,-0.1875,63
64,1695773385706,-0.033203125,-0.9824829,0.17791748,-2.171875,0.328125,0.140625,64
65,1695773385746,-0.037841797,-0.96661377,0.16546631,1.421875,1.4375,-0.09375,65
66,1695773385786,-0.045898438,-1.0015259,0.1696167,-1.578125,-0.53125,-1.828125,66
67,1695773385826,-0.052978516,-0.9834595,0.16595459,-2.53125,0.125,0.15625,67
68,1695773385866,-0.053710938,-1.0015259,0.18670654,1.96875,0.765625,-0.15625,68
69,1695773385906,-0.043945312,-1.0144653,0.19110107,-1.46875,0.6875,-0.890625,69
70,1695773385946,-0.043701172,-0.96588135,0.16693115,-1.921875,0.171875,-0.875,70
71,1695773385986,-0.052001953,-1.010315,0.1696167,0.0,0.703125,-0.59375,71
72,1695773386026,-0.048583984,-0.9763794,0.17767334,-0.890625,-0.3125,0.453125,72
73,1695773386066,-0.04663086,-1.005188,0.18597412,-0.140625,0.78125,-0.296875,73
74,1695773386106,-0.04272461,-0.9963989,0.17303467,-0.40625,1.125,-1.40625,74
75,1695773386146,-0.044677734,-0.9780884,0.17401123,-0.28125,-0.65625,0.59375,75
76,1695773386186,-0.056152344,-0.9985962,0.17230225,-0.546875,-0.5625,0.15625,76
77,1695773386226,-0.05517578,-0.98272705,0.18695068,-0.328125,0.8125,0.5,77
78,1695773386266,-0.04321289,-0.9885864,0.17572021,-0.890625,-0.25,-1.5,78
79,1695773386306,-0.048339844,-0.99420166,0.16546631,-3.484375,-0.359375,-0.078125,79
80,1695773386346,-0.038085938,-0.98028564,0.18475342,1.4375,-0.59375,0.046875,80
81,1695773386386,-0.049560547,-1.0029907,0.1876831,0.03125,0.328125,-0.125,81
82,1695773386426,-0.055664062,-1.0003052,0.17132568,-1.25,-0.609375,-0.578125,82
83,1695773386466,-0.049316406,-0.98101807,0.1762085,-2.140625,0.390625,-1.0,83
84,1695773386506,-0.042236328,-0.98638916,0.16986084,0.296875,1.140625,0.609375,84
85,1695773386546,-0.06323242,-0.9829712,0.18890381,1.875,0.53125,2.296875,85
86,1695773386586,-0.05419922,-1.0044556,0.18450928,-2.5,-0.171875,-0.46875,86
87,1695773386626,-0.042236328,-0.9793091,0.17230225,-1.375,0.15625,-0.015625,87
88,1695773386666,-0.03881836,-0.9998169,0.16693115,0.28125,0.25,-1.796875,88
89,1695773386706,-0.060546875,-0.9993286,0.17889404,-1.34375,-0.828125,1.203125,89
90,1695773386746,-0.04321289,-0.9800415,0.17156982,-0.59375,-0.6875,0.09375,90
91,1695773386786,-0.04296875,-0.9976196,0.18157959,-0.046875,0.640625,0.140625,91
92,1695773386826,-0.048339844,-0.98760986,0.18060303,-0.875,0.609375,0.34375,92
93,1695773386866,-0.055908203,-0.97442627,0.16864014,-2.359375,-1.140625,-0.09375,93
94,1695773386906,-0.036132812,-0.97906494,0.17376709,0.328125,0.96875,-1.40625,94
95,1695773386946,-0.036865234,-1.0105591,0.17254639,-0.078125,0.71875,-0.40625,95
96,1695773386986,-0.04345703,-1.0115356,0.18011475,0.59375,1.3125,1.046875,96
97,1695773387026,-0.045898438,-0.9871216,0.16644287,-0.578125,1.234375,1.0625,97
98,1695773387066,-0.03100586,-0.9690552,0.16937256,1.34375,0.9375,-1.0,98
99,1695773387106,-0.053955078,-1.0132446,0.18719482,0.90625,1.5,-0.984375,99
100,1695773387146,-0.057617188,-0.9920044,0.16644287,-1.453125,1.28125,0.484375,100
101,1695773387186,-0.04248047,-0.973938,0.17645264,2.203125,2.09375,-0.65625,101
102,1695773387226,-0.03125,-1.0042114,0.16522217,-0.75,0.90625,-0.71875,102
103,1695773387266,-0.03881836,-0.97613525,0.15960693,-1.421875,-0.453125,0.890625,103
104,1695773387306,-0.03955078,-0.9915161,0.16156006,1.921875,1.21875,-0.3125,104
105,1695773387346,-0.04736328,-0.99664307,0.17572021,-1.640625,-0.328125,-0.359375,105
106,1695773387386,-0.03515625,-0.99835205,0.16278076,-2.390625,-0.578125,-0.75,106
107,1695773387426,-0.045166016,-0.9812622,0.16741943,-0.171875,1.328125,1.265625,107
108,1695773387466,-0.034179688,-0.9973755,0.1720581,0.984375,0.703125,-0.453125,108
109,1695773387506,-0.032226562,-0.9985962,0.15765381,-2.0625,-0.6875,-0.90625,109
110,1695773387546,-0.048583984,-0.9866333,0.17474365,0.078125,0.015625,-1.140625,110
111,1695773387586,-0.04638672,-0.97906494,0.16668701,0.625,1.484375,-0.578125,111
112,1695773387626,-0.04711914,-1.0137329,0.1630249,-0.46875,0.375,0.765625,112
113,1695773387666,-0.03491211,-0.9824829,0.1774292,0.21875,1.03125,-0.828125,113
114,1695773387706,-0.036621094,-0.9961548,0.14935303,-1.625,0.765625,0.203125,114
115,1695773387746,-0.047607422,-0.97540283,0.14959717,-2.203125,-1.125,-0.203125,115
116,1695773387786,-0.041259766,-0.9805298,0.16912842,0.734375,1.25,-1.234375,116
117,1695773387826,-0.04711914,-1.0073853,0.17132568,-0.125,0.375,-0.625,117
118,1695773387866,-0.048583984,-0.989563,0.1593628,-0.796875,1.125,0.765625,118
119,1695773387906,-0.028564453,-0.98638916,0.16253662,-0.375,0.90625,-0.015625,119
120,1695773387946,-0.048828125,-0.9866333,0.16473389,-0.015625,1.0625,0.5625,120
121,1695773387986,-0.049316406,-0.9837036,0.16204834,1.296875,0.03125,-0.609375,121
122,1695773388026,-0.041503906,-1.0061646,0.168396,0.328125,0.6875,-0.578125,122
123,1695773388066,-0.041748047,-0.99542236,0.15765381,1.5625,1.59375,0.546875,123
124,1695773388106,-0.036132812,-0.9932251,0.1539917,-0.078125,0.40625,-1.3125,124
125,1695773388146,-0.03149414,-0.9717407,0.15789795,-1.21875,-0.546875,-1.453125,125
126,1695773388186,-0.053955078,-1.0037231,0.15179443,-1.046875,-0.53125,0.625,126
127,1695773388226,-0.051513672,-0.9771118,0.16278076,0.75,1.109375,1.609375,127
128,1695773388266,-0.041992188,-0.9927368,0.16937256,0.125,0.734375,-0.84375,128
129,1695773388306,-0.03515625,-0.98223877,0.13494873,-0.1875,0.171875,-0.8125,129
130,1695773388346,-0.022460938,-1.0042114,0.15765381,-1.078125,0.5625,-0.71875,130
131,1695773388386,-0.04638672,-0.99591064,0.15740967,-1.1875,-0.609375,1.71875,131
132,1695773388426,-0.0546875,-1.0015259,0.16644287,-1.328125,-1.140625,0.9375,132
133,1695773388466,-0.040283203,-0.9837036,0.1618042,-3.40625,-0.703125,-1.03125,133
134,1695773388506,-0.0390625,-0.98638916,0.1642456,-1.28125,1.265625,-0.71875,134
135,1695773388546,-0.03540039,-0.97857666,0.15179443,-0.53125,0.109375,-1.03125,135
136,1695773388586,-0.03857422,-0.99786377,0.15985107,-2.9375,-1.640625,-0.078125,136
137,1695773388626,-0.023925781,-1.003479,0.16033936,-2.484375,-1.109375,-1.28125,137
138,1695773388666,-0.05859375,-1.0049438,0.1762085,1.671875,1.3125,1.921875,138
139,1695773388706,-0.046875,-0.9776001,0.17279053,-0.140625,1.21875,0.578125,139
140,1695773388746,-0.03466797,-0.99884033,0.15765381,-1.1875,0.28125,-1.109375,140
141,1695773388786,-0.030273438,-0.9907837,0.15789795,-2.265625,0.03125,-0.53125,141
142,1695773388826,-0.03173828,-0.9932251,0.15545654,-0.84375,-0.40625,0.015625,142
143,1695773388866,-0.041503906,-0.98760986,0.16619873,-1.359375,-0.984375,1.046875,143
144,1695773388906,-0.036621094,-1.0007935,0.16082764,-1.0625,-0.6875,-0.71875,144
145,1695773388946,-0.036865234,-0.98516846,0.16400146,-2.4375,0.53125,-0.640625,145
146,1695773388986,-0.033935547,-0.9829712,0.17425537,0.875,1.359375,0.0625,146
147,1695773389026,-0.03955078,-1.0071411,0.17352295,-1.03125,-0.640625,-1.390625,147
148,1695773389066,-0.03881836,-0.99053955,0.1720581,-3.296875,-0.296875,-0.296875,148
149,1695773389106,-0.02319336,-0.9697876,0.16448975,-0.203125,-0.078125,-0.3125,149
150,1695773389146,-0.03857422,-0.99346924,0.17645264,-1.546875,-0.671875,-0.28125,150
151,1695773389186,-0.04638672,-0.98809814,0.17474365,-1.53125,-0.5625,-1.390625,151
152,1695773389226,-0.04272461,-1.0015259,0.16766357,-1.53125,0.203125,0.34375,152
153,1695773389266,-0.04736328,-0.9829712,0.18450928,0.65625,0.21875,0.25,153
154,1695773389306,-0.039794922,-1.0027466,0.17327881,-1.015625,-0.65625,-0.984375,154
155,1695773389346,-0.052734375,-0.98638916,0.18548584,-3.25,0.59375,0.546875,155
156,1695773389386,-0.029785156,-0.97735596,0.17401123,-0.34375,0.3125,-1.953125,156
157,1695773389426,-0.036621094,-0.99835205,0.18060303,-1.5625,-0.078125,-0.421875,157
158,1695773389466,-0.028808594,-0.9768677,0.18182373,-0.96875,-0.046875,1.171875,158
159,1695773389506,-0.041503906,-0.9939575,0.17132568,-0.3125,-1.3125,-0.140625,159
160,1695773389546,-0.042236328,-1.0015259,0.17181396,-3.328125,1.28125,-0.03125,160
161,1695773389586,-0.042236328,-0.9902954,0.18841553,-0.328125,0.59375,1.015625,161
162,1695773389626,-0.041015625,-0.9985962,0.18084717,-0.46875,1.109375,-1.546875,162
163,1695773389666,-0.047607422,-0.98931885,0.17938232,-1.578125,1.40625,0.015625,163
164,1695773389706,-0.025878906,-0.9680786,0.16864014,1.4375,1.1875,0.078125,164
165,1695773389746,-0.021484375,-1.0071411,0.18109131,1.109375,0.984375,1.40625,165
166,1695773389786,-0.033935547,-0.98321533,0.19793701,-0.4375,-0.640625,0.5,166
167,1695773389826,-0.039794922,-1.0032349,0.17376709,-2.328125,-0.40625,-0.734375,167
168,1695773389866,-0.037109375,-0.98150635,0.17938232,1.40625,1.515625,0.328125,168
169,1695773389906,-0.0390625,-1.005188,0.1749878,0.203125,0.359375,-1.359375,169
170,1695773389946,-0.024902344,-0.9859009,0.17523193,-1.53125,0.328125,-1.125,170
171,1695773389986,-0.03149414,-0.9981079,0.17523193,-0.0625,0.578125,-0.765625,171
172,1695773390026,-0.04272461,-0.9944458,0.17816162,-0.9375,0.3125,-0.078125,172
173,1695773390066,-0.040527344,-0.99884033,0.18011475,-3.140625,-0.4375,-0.90625,173
174,1695773390106,-0.015625,-0.9741821,0.17181396,-1.796875,0.875,-1.078125,174
175,1695773390146,-0.044189453,-0.9932251,0.18255615,-1.640625,0.234375,-1.828125,175
176,1695773390186,-0.047607422,-0.9524536,0.18084717,-4.671875,0.171875,-0.421875,176
177,1695773390226,-0.0637207,-0.98150635,0.20379639,0.46875,-1.796875,-0.171875,177
178,1695773390266,-0.03100586,-1.0015259,0.19671631,-2.375,0.90625,-3.25,178
179,1695773390306,-0.036376953,-1.0203247,0.20037842,-0.40625,0.5,-1.046875,179
180,1695773390346,-0.0546875,-0.9829712,0.20062256,0.03125,0.578125,-1.09375,180
181,1695773390386,-0.045654297,-0.96221924,0.19451904,0.625,0.4375,1.484375,181
182,1695773390426,-0.06323242,-1.0020142,0.1642456,-0.921875,-0.109375,0.34375,182
183,1695773390466,-0.044921875,-0.989563,0.18426514,-0.421875,2.015625,-1.015625,183
184,1695773390506,-0.016845703,-1.0112915,0.18988037,0.65625,1.296875,-2.203125,184
185,1695773390546,-0.044189453,-0.97003174,0.18157959,-1.828125,-0.8125,1.671875,185
186,1695773390586,-0.05834961,-0.97125244,0.17840576,0.09375,-0.484375,1.34375,186
187,1695773390626,-0.04663086,-0.99053955,0.18719482,-0.5,-0.96875,-0.703125,187
188,1695773390666,-0.028320312,-0.9976196,0.20135498,-1.40625,0.671875,-2.28125,188
189,1695773390706,-0.06738281,-0.9927368,0.18963623,-0.125,-1.234375,-1.21875,189
190,1695773390746,-0.032226562,-0.98809814,0.17767334,1.03125,1.671875,-0.640625,190
191,1695773390786,-0.03930664,-1.0098267,0.17767334,-2.6875,0.15625,0.171875,191
192,1695773390826,-0.049560547,-0.97735596,0.18206787,0.203125,0.46875,-0.265625,192
193,1695773390866,-0.047607422,-0.9746704,0.18548584,-0.03125,-0.453125,-0.375,193
194,1695773390906,-0.04272461,-0.9890747,0.19158936,-0.53125,0.578125,-0.875,194
195,1695773390946,-0.053955078,-1.0176392,0.18670654,-0.4375,0.734375,-0.046875,195
196,1695773390986,-0.06616211,-0.9768677,0.18182373,-1.265625,0.0,0.046875,196
197,1695773391026,-0.04272461,-0.97735596,0.17327881,0.28125,1.4375,-2.8125,197
198,1695773391066,-0.024658203,-1.0142212,0.18817139,0.0,1.015625,0.234375,198
199,1695773391106,-0.049804688,-0.98516846,0.18792725,-0.921875,-0.078125,2.171875,199
200,1695773391146,-0.052734375,-0.9636841,0.17547607,0.0625,-0.6875,0.453125,200
201,1695773391186,-0.05029297,-0.989563,0.18499756,-0.875,1.015625,-1.1875,201
202,1695773391226,-0.045654297,-0.99542236,0.18182373,-0.640625,-0.203125,-0.71875,202
203,1695773391266,-0.040283203,-1.000061,0.1906128,-2.3125,1.171875,0.125,203
204,1695773391306,-0.037353516,-0.98443604,0.18914795,-0.796875,0.046875,0.9375,204
205,1695773391346,-0.053710938,-1.008606,0.18743896,1.40625,-0.171875,0.1875,205
206,1695773391386,-0.033691406,-0.9819946,0.17523193,-0.78125,0.609375,-0.734375,206
207,1695773391426,-0.052490234,-0.9973755,0.17181396,-1.65625,-1.03125,-1.5,207
208,1695773391466,-0.040771484,-0.9663696,0.16888428,-1.59375,0.5,-0.40625,208
209,1695773391506,-0.048828125,-1.0100708,0.19989014,0.734375,-0.15625,1.46875,209
210,1695773391546,-0.045166016,-0.9949341,0.1828003,-1.3125,0.265625,-0.546875,210
211,1695773391586,-0.04296875,-0.9841919,0.17523193,-1.46875,-0.1875,-1.15625,211
212,1695773391626,-0.032958984,-0.9834595,0.1828003,-0.015625,0.890625,0.328125,212
213,1695773391666,-0.043945312,-0.987854,0.17840576,-0.109375,-0.46875,0.65625,213
214,1695773391706,-0.041015625,-0.98760986,0.18963623,-1.375,0.125,-0.078125,214
215,1695773391746,-0.032470703,-0.9949341,0.18939209,-0.921875,0.484375,-0.3125,215
216,1695773391786,-0.045898438,-0.99298096,0.18133545,0.828125,-0.109375,0.40625,216
217,1695773391826,-0.051757812,-0.9807739,0.18353271,-1.75,0.21875,-0.359375,217
218,1695773391866,-0.044189453,-0.99591064,0.1749878,-1.015625,-0.84375,-0.390625,218
219,1695773391906,-0.038330078,-0.9956665,0.17669678,-0.984375,0.546875,-0.265625,219
220,1695773391946,-0.041503906,-0.9907837,0.18817139,-1.109375,-0.6875,-0.34375,220
221,1695773391986,-0.046142578,-0.9837036,0.18084717,-1.40625,-0.59375,0.0,221
222,1695773392026,-0.048095703,-0.99420166,0.18743896,-0.5,0.203125,0.65625,222
223,1695773392066,-0.05126953,-0.991272,0.17181396,-2.59375,-1.078125,-0.34375,223
224,1695773392106,-0.030029297,-0.98516846,0.17791748,-2.15625,0.671875,0.40625,224
225,1695773392146,-0.032714844,-0.975647,0.19793701,0.6875,-0.15625,1.71875,225
226,1695773392186,-0.045166016,-0.987854,0.19891357,-0.109375,-0.78125,-0.125,226
227,1695773392226,-0.05053711,-1.0010376,0.18963623,-2.875,0.125,-0.640625,227
228,1695773392266,-0.04272461,-0.99298096,0.19525146,-0.03125,0.3125,0.15625,228
229,1695773392306,-0.039794922,-0.98394775,0.18060303,-2.140625,0.734375,0.875,229
230,1695773392346,-0.03149414,-0.9751587,0.19891357,-0.609375,0.390625,1.625,230
231,1695773392386,-0.012451172,-0.99786377,0.1942749,-2.234375,-0.265625,-1.71875,231
232,1695773392426,-0.035888672,-0.99224854,0.20452881,-1.03125,-0.890625,-0.078125,232
233,1695773392466,-0.040771484,-0.9793091,0.20404053,-0.171875,-0.34375,-1.515625,233
234,1695773392506,-0.052978516,-0.9834595,0.18206787,-2.8125,-0.671875,-1.59375,234
235,1695773392546,-0.032714844,-1.0039673,0.20062256,0.3125,0.984375,-0.9375,235
236,1695773392586,-0.049072266,-0.9963989,0.1942749,-0.21875,1.3125,0.578125,236
237,1695773392626,-0.046875,-0.9573364,0.19720459,1.828125,3.046875,-0.375,237
238,1695773392666,-0.04736328,-0.9961548,0.2177124,0.0625,1.625,-1.953125,238
239,1695773392706,-0.014892578,-1.006897,0.18914795,-1.0625,1.453125,-1.78125,239
240,1695773392746,-0.037353516,-0.9932251,0.1762085,0.34375,0.96875,-0.046875,240
241,1695773392786,-0.025146484,-0.9829712,0.19036865,0.421875,0.125,1.9375,241
242,1695773392826,-0.045410156,-0.9758911,0.1984253,0.5,-0.765625,0.96875,242
243,1695773392866,-0.06518555,-0.9993286,0.18597412,-0.21875,0.203125,-2.078125,243
244,1695773392906,-0.04272461,-0.98565674,0.1954956,0.765625,0.484375,-1.0625,244
245,1695773392946,-0.03881836,-0.98321533,0.18426514,-0.640625,1.375,-0.515625,245
246,1695773392986,-0.0390625,-0.9656372,0.16864014,-1.0,0.28125,-1.65625,246
247,1695773393026,-0.021972656,-1.0078735,0.19085693,1.71875,-0.921875,-0.5,247
248,1695773393066,-0.03149414,-1.0056763,0.19500732,1.84375,-0.109375,-0.203125,248
249,1695773393106,-0.08154297,-0.9890747,0.1798706,-0.296875,-0.328125,-1.125,249
250,1695773393146,-0.043945312,-0.9741821,0.18963623,-0.09375,1.125,-1.1875,250
251,1695773393186,-0.03564453,-1.0083618,0.16693115,2.34375,1.046875,-1.421875,251
252,1695773393226,-0.048095703,-1.00177,0.17596436,0.75,2.484375,0.640625,252
253,1695773393266,-0.033935547,-0.9841919,0.17913818,0.828125,-0.390625,-1.046875,253
254,1695773393306,-0.057373047,-1.0010376,0.16815186,-1.25,-0.5,0.125,254
255,1695773393346,-0.055908203,-0.9710083,0.15887451,-0.484375,-0.53125,0.0,255
256,1695773393386,-0.045898438,-0.9951782,0.16448975,-0.75,-0.109375,-1.03125,256
257,1695773393426,-0.037353516,-0.9907837,0.16229248,-1.0,1.609375,-0.984375,257
258,1695773393466,-0.052734375,-0.987854,0.18109131,1.78125,0.53125,-0.171875,258
259,1695773393506,-0.052978516,-1.005188,0.17279053,-1.484375,0.25,-1.59375,259
260,1695773393546,-0.041503906,-0.97906494,0.1774292,-1.15625,0.71875,-0.203125,260
261,1695773393586,-0.052246094,-0.9841919,0.152771,1.234375,-0.546875,0.65625,261
262,1695773393626,-0.05078125,-0.99591064,0.17596436,0.015625,0.703125,0.375,262
263,1695773393666,-0.04248047,-0.9998169,0.17352295,1.1875,-0.625,-0.578125,263
264,1695773393706,-0.052246094,-0.99346924,0.1630249,-1.328125,0.40625,-1.390625,264
265,1695773393746,-0.055908203,-0.9841919,0.16693115,0.984375,0.96875,1.453125,265
266,1695773393786,-0.057373047,-1.0100708,0.17816162,1.671875,0.546875,0.40625,266
267,1695773393826,-0.052490234,-0.97735596,0.15423584,-1.6875,0.328125,0.203125,267
268,1695773393866,-0.030029297,-0.99224854,0.1564331,-0.890625,0.859375,-1.0625,268
269,1695773393906,-0.04248047,-0.9937134,0.15838623,-0.484375,0.203125,0.078125,269
270,1695773393946,-0.057373047,-0.9890747,0.16131592,-1.296875,-0.09375,1.1875,270
271,1695773393986,-0.040771484,-0.9920044,0.17279053,-0.234375,-0.375,-0.34375,271
272,1695773394026,-0.049316406,-1.0122681,0.15130615,-3.0,0.09375,-0.734375,272
273,1695773394066,-0.032226562,-0.9585571,0.15838623,-0.96875,0.296875,-0.109375,273
274,1695773394106,-0.044921875,-0.991272,0.15740967,-0.84375,0.40625,-1.390625,274
275,1695773394146,-0.050048828,-1.0110474,0.16937256,-2.578125,-0.40625,-1.546875,275
276,1695773394186,-0.0546875,-1.0073853,0.17572021,-1.078125,-0.5,-0.078125,276
277,1695773394226,-0.048339844,-0.9685669,0.17523193,-0.1875,0.15625,0.6875,277
278,1695773394266,-0.057617188,-0.99835205,0.15252686,-1.5625,-0.890625,-0.0625,278
279,1695773394306,-0.040039062,-0.9871216,0.16619873,-3.390625,-1.125,-2.65625,279
280,1695773394346,-0.04272461,-1.0171509,0.18426514,0.171875,0.015625,-1.78125,280
281,1695773394386,-0.057617188,-0.98516846,0.16741943,-0.09375,-1.5625,1.046875,281
282,1695773394426,-0.072753906,-0.98150635,0.18011475,-3.578125,-1.859375,0.3125,282
283,1695773394466,-0.044433594,-0.9829712,0.17840576,-3.234375,-0.328125,-1.03125,283
284,1695773394506,-0.049316406,-0.9920044,0.17816162,-4.3125,-0.734375,-1.09375,284
285,1695773394546,-0.05517578,-0.9729614,0.19915771,-1.234375,-1.296875,-1.375,285
286,1695773394586,-0.052001953,-1.0046997,0.19451904,-0.4375,-0.53125,-1.125,286
287,1695773394626,-0.067871094,-0.98883057,0.18963623,-2.65625,-0.5625,-0.140625,287
288,1695773394666,-0.053710938,-0.98638916,0.18011475,-3.0625,0.078125,0.25,288
289,1695773394706,-0.057128906,-0.98565674,0.1942749,-0.65625,1.21875,0.75,289
290,1695773394746,-0.05102539,-0.9956665,0.20159912,-0.359375,0.71875,-0.390625,290
291,1695773394786,-0.057617188,-1.0090942,0.20697021,-2.65625,-0.5,-0.03125,291
292,1695773394826,-0.05908203,-0.96099854,0.18206787,-3.0625,-0.71875,0.53125,292
293,1695773394866,-0.0715332,-0.9727173,0.1906128,-1.75,-0.515625,-0.015625,293
294,1695773394906,-0.045166016,-0.9780884,0.19940186,0.09375,0.921875,-0.84375,294
295,1695773394946,-0.040771484,-1.0090942,0.19915771,-0.59375,-0.484375,-1.15625,295
296,1695773394986,-0.051513672,-0.987854,0.2033081,-0.984375,0.15625,0.9375,296
297,1695773395026,-0.041748047,-0.97857666,0.19793701,-2.4375,0.109375,0.359375,297
298,1695773395066,-0.055419922,-0.98101807,0.19989014,-1.578125,-0.34375,0.03125,298
299,1695773395106,-0.057861328,-0.99102783,0.21697998,-0.1875,0.9375,-1.375,299
300,1695773395146,-0.047607422,-0.986145,0.19085693,-2.015625,-0.390625,-1.46875,300
301,1695773395186,-0.05029297,-0.98394775,0.2098999,-0.96875,0.890625,-0.34375,301
302,1695773395226,-0.055419922,-1.00177,0.19647217,-1.671875,-0.59375,-0.53125,302
303,1695773395266,-0.056884766,-0.9734497,0.20452881,-1.734375,-0.40625,0.390625,303
304,1695773395306,-0.061767578,-0.989563,0.2140503,0.671875,0.609375,0.046875,304
305,1695773395346,-0.05834961,-0.9807739,0.20843506,-0.421875,0.359375,-1.5625,305
306,1695773395386,-0.059326172,-0.99176025,0.199646,-1.609375,1.109375,-1.515625,306
307,1695773395426,-0.04736328,-0.9805298,0.19500732,0.0625,0.578125,-0.15625,307
308,1695773395466,-0.047851562,-0.98223877,0.20233154,-0.65625,-0.390625,0.59375,308
309,1695773395506,-0.06933594,-0.9920044,0.20379639,-1.125,-0.328125,0.09375,309
310,1695773395546,-0.05810547,-0.9920044,0.20379639,-1.390625,0.734375,-1.6875,310
311,1695773395586,-0.060546875,-0.99664307,0.2140503,-0.171875,0.265625,-0.359375,311
312,1695773395626,-0.052490234,-0.99542236,0.20233154,-2.296875,-0.140625,-0.21875,312
313,1695773395666,-0.049804688,-0.98101807,0.20892334,-1.34375,-0.484375,-0.046875,313
314,1695773395706,-0.047607422,-0.98760986,0.20452881,-1.328125,-0.578125,-0.109375,314
315,1695773395746,-0.060546875,-0.9812622,0.20550537,-0.65625,-0.09375,0.3125,315
316,1695773395786,-0.05419922,-0.9829712,0.21746826,1.1875,1.03125,-0.28125,316
317,1695773395826,-0.059570312,-0.9944458,0.21673584,0.9375,0.21875,1.296875,317
318,1695773395866,-0.068359375,-0.97613525,0.2098999,-0.28125,1.234375,0.6875,318
319,1695773395906,-0.06323242,-0.9824829,0.2074585,0.53125,2.25,-0.796875,319
320,1695773395946,-0.052246094,-0.99176025,0.19769287,0.546875,1.765625,-0.140625,320
321,1695773395986,-0.025146484,-0.9937134,0.20526123,0.796875,1.234375,-0.21875,321
322,1695773396026,-0.05029297,-0.9898071,0.20013428,0.71875,0.859375,1.1875,322
323,1695773396066,-0.06567383,-0.98516846,0.19256592,-0.046875,0.6875,1.65625,323
324,1695773396106,-0.045166016,-0.9817505,0.20013428,0.609375,0.453125,0.15625,324
325,1695773396146,-0.05126953,-0.98516846,0.1918335,1.59375,1.453125,0.609375,325
326,1695773396186,-0.053222656,-0.9973755,0.19476318,0.265625,0.859375,-1.421875,326
327,1695773396226,-0.03149414,-0.99224854,0.19232178,1.25,0.5,-0.859375,327
328,1695773396266,-0.044189453,-0.9968872,0.16888428,-2.1875,0.0,0.359375,328
329,1695773396306,-0.04321289,-0.9780884,0.19085693,0.53125,0.71875,1.203125,329
330,1695773396346,-0.040771484,-0.99786377,0.19256592,0.984375,-0.125,-1.359375,330
331,1695773396386,-0.05444336,-0.9837036,0.19354248,0.28125,0.890625,-0.03125,331
332,1695773396426,-0.052978516,-0.9746704,0.18084717,0.046875,1.171875,0.140625,332
333,1695773396466,-0.044677734,-0.98638916,0.17547607,0.5,0.703125,-0.75,333
334,1695773396506,-0.034179688,-1.0073853,0.18475342,-0.640625,0.40625,-0.03125,334
335,1695773396546,-0.042236328,-0.9817505,0.18231201,-0.109375,0.09375,0.28125,335
336,1695773396586,-0.048583984,-0.9932251,0.1828003,-0.453125,0.109375,-0.546875,336
337,1695773396626,-0.046142578,-0.9961548,0.17938232,-0.09375,-0.15625,-1.09375,337
338,1695773396666,-0.05444336,-0.9968872,0.18231201,-0.15625,1.015625,-0.828125,338
339,1695773396706,-0.05078125,-0.9644165,0.17938232,-0.96875,0.9375,-0.28125,339
340,1695773396746,-0.043945312,-0.9927368,0.1774292,-0.53125,-1.125,-1.046875,340
341,1695773396786,-0.040283203,-1.0039673,0.1774292,-2.75,-0.421875,-0.1875,341
342,1695773396826,-0.049804688,-0.9837036,0.1774292,-1.078125,-0.640625,-0.1875,342
343,1695773396866,-0.06225586,-0.98883057,0.1930542,0.25,-0.53125,-0.921875,343
344,1695773396906,-0.063964844,-0.9902954,0.18255615,-3.0625,1.0,-1.46875,344
345,1695773396946,-0.051513672,-0.98272705,0.17669678,-0.578125,0.40625,-1.6875,345
346,1695773396986,-0.043945312,-0.9849243,0.17840576,-1.25,-0.234375,-1.171875,346
347,1695773397026,-0.043701172,-0.9902954,0.18670654,-2.34375,-0.328125,1.34375,347
348,1695773397066,-0.04736328,-0.98394775,0.18792725,-1.03125,-1.171875,0.53125,348
349,1695773397106,-0.053955078,-0.9854126,0.17913818,-2.1875,-1.125,-2.046875,349
350,1695773397146,-0.059814453,-0.9924927,0.184021,-2.421875,0.5625,-1.5625,350
351,1695773397186,-0.051513672,-0.9841919,0.19354248,-0.546875,-0.828125,0.390625,351
352,1695773397226,-0.04736328,-0.99542236,0.19525146,-2.234375,-0.953125,0.03125,352
353,1695773397266,-0.05810547,-0.99957275,0.20941162,-0.9375,0.65625,-0.140625,353
354,1695773397306,-0.05102539,-0.97369385,0.18548584,-1.9375,0.109375,-0.328125,354
355,1695773397346,-0.064453125,-0.9768677,0.2020874,-0.265625,-0.28125,-1.1875,355
356,1695773397386,-0.044433594,-0.9866333,0.20404053,0.03125,0.5625,-1.828125,356
357,1695773397426,-0.053222656,-1.0171509,0.19281006,-2.859375,-1.6875,-0.84375,357
358,1695773397466,-0.06640625,-0.98883057,0.19744873,-0.984375,-0.40625,1.4375,358
359,1695773397506,-0.06347656,-0.97979736,0.19158936,-1.53125,0.078125,-0.25,359
360,1695773397546,-0.068847656,-0.97857666,0.19915771,-1.828125,-0.234375,-1.203125,360
361,1695773397586,-0.04345703,-0.98760986,0.20184326,-1.296875,-0.671875,-1.6875,361
362,1695773397626,-0.052246094,-0.9973755,0.20037842,-2.234375,-0.796875,-0.359375,362
363,1695773397666,-0.056884766,-0.99005127,0.20965576,-0.90625,0.21875,-0.203125,363
364,1695773397706,-0.05883789,-0.96954346,0.2177124,0.0,-0.671875,-0.125,364
365,1695773397746,-0.07446289,-0.9956665,0.19378662,-3.375,-0.9375,-1.34375,365
366,1695773397786,-0.0625,-0.98394775,0.20599365,-3.25,0.375,-0.96875,366
367,1695773397826,-0.049560547,-0.9854126,0.21502686,0.859375,0.34375,0.0,367
368,1695773397866,-0.0703125,-0.99884033,0.21380615,-0.328125,0.109375,-0.53125,368
369,1695773397906,-0.06347656,-0.98101807,0.20404053,-1.015625,0.53125,-0.5,369
370,1695773397946,-0.052978516,-0.9788208,0.21478271,-0.515625,-0.484375,-1.109375,370
371,1695773397986,-0.072509766,-0.98516846,0.19818115,-1.328125,-0.890625,-0.375,371
372,1695773398026,-0.07421875,-0.98272705,0.21234131,-1.328125,0.234375,1.140625,372
373,1695773398066,-0.06591797,-0.99346924,0.20159912,-2.046875,0.78125,0.09375,373
374,1695773398106,-0.06713867,-0.97320557,0.20135498,1.453125,1.09375,-1.140625,374
375,1695773398146,-0.049560547,-0.98760986,0.22015381,-0.34375,0.5625,-1.546875,375
376,1695773398186,-0.057861328,-0.99542236,0.20135498,-1.234375,-0.984375,-0.40625,376
377,1695773398226,-0.06347656,-0.9920044,0.1984253,-1.5625,0.515625,0.484375,377
378,1695773398266,-0.061767578,-0.98101807,0.22088623,0.171875,0.765625,0.984375,378
379,1695773398306,-0.07055664,-0.99176025,0.22039795,-0.84375,0.15625,0.078125,379
380,1695773398346,-0.057861328,-0.9619751,0.21038818,0.359375,1.109375,-0.90625,380
381,1695773398386,-0.064697266,-0.9951782,0.20965576,-1.5625,0.15625,-2.015625,381
382,1695773398426,-0.063964844,-0.972229,0.19720459,-2.015625,-0.828125,-0.125,382
383,1695773398466,-0.071777344,-0.9898071,0.22381592,1.453125,0.84375,0.8125,383
384,1695773398506,-0.06274414,-0.9998169,0.21478271,0.0625,0.578125,-0.265625,384
385,1695773398546,-0.06958008,-0.9873657,0.20306396,-0.828125,0.078125,-0.671875,385
386,1695773398586,-0.05493164,-0.9780884,0.2098999,-0.625,1.34375,-1.453125,386
387,1695773398626,-0.06591797,-0.97003174,0.20404053,0.0,0.171875,-0.453125,387
388,1695773398666,-0.06542969,-0.9885864,0.19866943,-0.890625,-0.875,-0.34375,388
389,1695773398706,-0.059570312,-1.0059204,0.215271,-0.828125,0.1875,-0.453125,389
390,1695773398746,-0.06982422,-0.9976196,0.21258545,0.703125,0.640625,0.203125,390
391,1695773398786,-0.07104492,-0.97125244,0.2098999,-1.8125,-0.203125,-0.265625,391
392,1695773398826,-0.06347656,-0.9763794,0.20428467,-0.28125,1.4375,-0.578125,392
393,1695773398866,-0.053955078,-1.0010376,0.2074585,-0.078125,0.8125,-0.328125,393
394,1695773398906,-0.056396484,-0.9751587,0.21136475,-1.265625,-0.328125,0.484375,394
395,1695773398946,-0.07543945,-0.9859009,0.21014404,-0.796875,0.0,-0.078125,395
396,1695773398986,-0.06298828,-0.9837036,0.19866943,0.953125,0.4375,-0.953125,396
397,1695773399026,-0.057128906,-0.9985962,0.20697021,-1.890625,0.0,-1.125,397
398,1695773399066,-0.080078125,-0.991272,0.20697021,-1.390625,-0.125,1.375,398
399,1695773399106,-0.07519531,-0.9717407,0.21795654,0.015625,1.3125,0.421875,399
400,1695773399146,-0.059570312,-0.9873657,0.20672607,-1.1875,1.3125,-1.65625,400
401,1695773399186,-0.053955078,-0.986145,0.20794678,-1.09375,0.65625,-0.453125,401
402,1695773399226,-0.068847656,-0.9907837,0.20770264,-1.4375,-1.03125,0.0625,402
403,1695773399266,-0.06567383,-0.9783325,0.20452881,-0.328125,-0.390625,0.765625,403
404,1695773399306,-0.064208984,-0.99102783,0.21868896,-0.5625,0.28125,0.171875,404
405,1695773399346,-0.07006836,-0.99786377,0.21380615,-1.625,-0.015625,-0.03125,405
406,1695773399386,-0.06713867,-0.9649048,0.20965576,0.65625,0.828125,-0.75,406
407,1695773399426,-0.046875,-0.98883057,0.20721436,-0.921875,-0.171875,-0.703125,407
408,1695773399466,-0.07397461,-0.9849243,0.21063232,0.09375,-0.296875,0.453125,408
409,1695773399506,-0.078125,-0.9985962,0.2074585,-1.453125,0.5625,0.171875,409
410,1695773399546,-0.045410156,-0.9690552,0.2098999,-1.09375,0.0,0.265625,410
411,1695773399586,-0.06323242,-0.99591064,0.2098999,-0.1875,0.171875,-0.359375,411
412,1695773399626,-0.06665039,-0.9819946,0.21624756,-0.5625,0.6875,-0.59375,412
413,1695773399666,-0.059326172,-0.9902954,0.19940186,-1.5625,-0.34375,-1.375,413
414,1695773399706,-0.06640625,-0.989563,0.20892334,-0.890625,0.328125,-0.375,414
415,1695773399746,-0.06616211,-0.98321533,0.21795654,-0.140625,1.0,2.0,415
416,1695773399786,-0.048095703,-0.9793091,0.2020874,-0.375,0.296875,0.21875,416
417,1695773399826,-0.053222656,-0.98809814,0.21331787,-0.984375,0.75,-0.578125,417
418,1695773399866,-0.06518555,-0.9812622,0.21038818,-0.984375,-0.578125,-0.984375,418
419,1695773399906,-0.072753906,-0.97784424,0.20648193,-0.328125,0.34375,-1.203125,419
420,1695773399946,-0.05126953,-0.9924927,0.2164917,-0.203125,0.984375,-1.453125,420
421,1695773399986,-0.060302734,-1.0022583,0.20379639,-1.890625,-0.609375,-0.8125,421
422,1695773400026,-0.07055664,-0.97052,0.22406006,0.359375,-0.015625,-0.515625,422
423,1695773400066,-0.068847656,-0.98565674,0.20574951,-0.640625,-0.515625,-1.828125,423
424,1695773400106,-0.06298828,-1.0083618,0.21600342,-0.390625,-1.171875,-0.03125,424
425,1695773400146,-0.057617188,-0.9795532,0.21624756,1.5625,0.0,0.109375,425
426,1695773400186,-0.07714844,-0.986145,0.1984253,-0.46875,-0.3125,0.59375,426
427,1695773400226,-0.080078125,-0.9805298,0.20379639,-1.453125,-0.609375,0.046875,427
428,1695773400266,-0.072753906,-0.97784424,0.20819092,1.03125,0.453125,-1.28125,428
429,1695773400306,-0.05126953,-0.9956665,0.2062378,0.28125,1.328125,-1.984375,429
430,1695773400346,-0.079589844,-0.9963989,0.18695068,-3.671875,-0.96875,-2.0,430
431,1695773400386,-0.07006836,-0.97857666,0.19403076,-0.921875,-0.171875,-1.4375,431
432,1695773400426,-0.06689453,-0.99005127,0.22039795,0.375,0.78125,-0.65625,432
433,1695773400466,-0.083740234,-0.9932251,0.20281982,-1.25,0.78125,-0.96875,433
434,1695773400506,-0.059814453,-0.9783325,0.19915771,-1.28125,-0.078125,-0.59375,434
435,1695773400546,-0.06591797,-1.0012817,0.21673584,-1.453125,-0.265625,0.515625,435
436,1695773400586,-0.08081055,-0.9690552,0.2033081,-2.234375,-1.1875,0.984375,436
437,1695773400626,-0.072753906,-0.9771118,0.2164917,1.234375,0.46875,-1.171875,437
438,1695773400666,-0.07373047,-1.0073853,0.20355225,-2.265625,-0.421875,-1.65625,438
439,1695773400706,-0.068115234,-0.9841919,0.2098999,-0.421875,-0.5,0.0,439
440,1695773400746,-0.080322266,-0.99835205,0.21551514,-0.25,0.359375,1.28125,440
441,1695773400786,-0.095214844,-0.9795532,0.20697021,0.28125,-0.171875,0.59375,441
442,1695773400826,-0.07299805,-0.98638916,0.21356201,-1.640625,1.046875,-0.578125,442
443,1695773400866,-0.05908203,-0.9758911,0.19940186,-1.6875,-0.328125,-0.0625,443
444,1695773400906,-0.060302734,-0.9771118,0.2020874,0.5,0.0625,0.296875,444
445,1695773400946,-0.07421875,-0.98931885,0.21868896,-1.5625,-0.375,0.359375,445
446,1695773400986,-0.07861328,-1.0007935,0.20672607,-0.8125,-0.78125,-0.078125,446
447,1695773401026,-0.06616211,-0.9841919,0.21380615,-1.203125,1.96875,0.21875,447
448,1695773401066,-0.076660156,-0.98272705,0.21673584,-0.796875,0.484375,2.109375,448
449,1695773401106,-0.063964844,-0.9673462,0.21966553,0.671875,1.4375,0.21875,449
450,1695773401146,-0.064697266,-1.0010376,0.22039795,-1.453125,1.0625,-0.1875,450
451,1695773401186,-0.064941406,-0.9751587,0.2111206,-0.625,0.015625,0.234375,451
452,1695773401226,-0.07495117,-0.98101807,0.20697021,0.46875,1.78125,0.28125,452
453,1695773401266,-0.051757812,-0.9961548,0.20770264,-0.953125,1.625,1.484375,453
454,1695773401306,-0.05126953,-0.99176025,0.21160889,-1.109375,-0.09375,2.1875,454
455,1695773401346,-0.06713867,-0.9854126,0.21282959,0.546875,-0.53125,1.265625,455
456,1695773401386,-0.05883789,-0.9951782,0.21136475,0.0625,0.484375,0.875,456
457,1695773401426,-0.05859375,-0.9834595,0.20306396,-1.171875,0.171875,-1.453125,457
458,1695773401466,-0.059814453,-0.97320557,0.20770264,-0.71875,-0.046875,-1.3125,458
459,1695773401506,-0.053710938,-0.99005127,0.20916748,-0.9375,1.171875,-1.09375,459
460,1695773401546,-0.04736328,-0.99102783,0.21380615,-1.171875,-0.140625,0.890625,460
461,1695773401586,-0.05053711,-0.9812622,0.22039795,0.6875,0.359375,1.0,461
462,1695773401626,-0.041748047,-0.9854126,0.20648193,-0.5625,0.609375,-1.0,462
463,1695773401666,-0.052734375,-0.9837036,0.21722412,-2.5625,0.0625,-2.953125,463
464,1695773401706,-0.06347656,-0.96832275,0.20135498,-2.140625,-0.296875,-1.28125,464
465,1695773401746,-0.076171875,-0.9898071,0.21820068,0.296875,0.359375,0.78125,465
466,1695773401786,-0.05444336,-0.98760986,0.22747803,0.15625,0.921875,-1.109375,466
467,1695773401826,-0.045410156,-1.0032349,0.2140503,-3.25,-0.046875,-1.125,467
468,1695773401866,-0.07470703,-0.96539307,0.21502686,0.484375,0.28125,0.1875,468
469,1695773401906,-0.068359375,-0.97369385,0.20916748,-1.078125,-0.28125,-1.703125,469
470,1695773401946,-0.055664062,-0.9976196,0.21038818,-1.984375,-0.40625,-0.125,470
471,1695773401986,-0.06347656,-0.98931885,0.22113037,-0.796875,0.40625,-0.3125,471
472,1695773402026,-0.06591797,-0.9807739,0.22039795,0.96875,0.40625,-0.8125,472
473,1695773402066,-0.06225586,-0.97198486,0.20452881,-4.015625,-0.46875,-0.921875,473
474,1695773402106,-0.057861328,-0.9829712,0.21917725,-0.359375,-0.859375,-0.0625,474
475,1695773402146,-0.049804688,-0.99298096,0.22747803,0.4375,0.6875,-2.15625,475
476,1695773402186,-0.06958008,-0.99884033,0.22576904,-1.6875,-0.984375,-0.59375,476
477,1695773402226,-0.08935547,-0.973938,0.20843506,-1.9375,-0.984375,-0.09375,477
478,1695773402266,-0.07373047,-0.95391846,0.21478271,-0.890625,1.25,-0.1875,478
479,1695773402306,-0.06665039,-0.9812622,0.21282959,-1.40625,-0.484375,-0.796875,479
480,1695773402346,-0.059570312,-1.0137329,0.23699951,-1.90625,0.5,0.421875,480
481,1695773402386,-0.06689453,-0.9783325,0.23236084,-0.84375,-0.5,0.875,481
482,1695773402426,-0.06982422,-0.9690552,0.23016357,0.671875,1.078125,-0.6875,482
483,1695773402466,-0.078125,-0.9944458,0.23162842,-1.171875,-0.9375,-0.40625,483
484,1695773402506,-0.06933594,-0.98883057,0.22918701,-0.796875,1.578125,0.578125,484
485,1695773402546,-0.05908203,-0.9585571,0.21429443,0.5,1.921875,-0.171875,485
486,1695773402586,-0.057373047,-0.9746704,0.22357178,0.109375,0.96875,-1.453125,486
487,1695773402626,-0.057861328,-0.99468994,0.20965576,-2.015625,-1.34375,0.296875,487
488,1695773402666,-0.06274414,-0.9800415,0.23309326,0.96875,0.375,1.6875,488
489,1695773402706,-0.06713867,-0.9956665,0.22137451,-0.25,1.046875,0.828125,489
490,1695773402746,-0.079589844,-0.9795532,0.2230835,-2.4375,0.015625,0.625,490
491,1695773402786,-0.053222656,-0.97491455,0.22137451,-0.234375,0.921875,-0.640625,491
492,1695773402826,-0.04345703,-0.98565674,0.21478271,0.3125,0.640625,-0.890625,492
493,1695773402866,-0.05078125,-1.0073853,0.21429443,-0.109375,0.109375,0.015625,493
494,1695773402906,-0.06591797,-0.97662354,0.21917725,-0.6875,-0.65625,1.515625,494
495,1695773402946,-0.061279297,-0.97442627,0.21234131,2.109375,0.546875,-0.140625,495
496,1695773402986,-0.059326172,-1.0176392,0.2140503,-0.890625,0.921875,-1.171875,496
497,1695773403026,-0.05444336,-0.9763794,0.22869873,0.65625,2.140625,1.6875,497
498,1695773403066,-0.055664062,-0.9619751,0.21380615,2.140625,1.203125,0.625,498
499,1695773403106,-0.061035156,-0.9981079,0.20233154,-1.25,-0.09375,-1.0,499
500,1695773403146,-0.032714844,-0.9951782,0.22283936,0.859375,1.015625,-0.375,500
501,1695773403186,-0.059326172,-0.9956665,0.2062378,0.953125,1.3125,1.484375,501
502,1695773403226,-0.061523438,-0.9758911,0.2020874,-0.484375,-0.359375,0.28125,502
503,1695773403266,-0.052001953,-0.98565674,0.20550537,-1.6875,-0.671875,-1.203125,503
504,1695773403306,-0.06738281,-0.9841919,0.20794678,0.453125,0.640625,0.8125,504
505,1695773403346,-0.041748047,-0.9697876,0.21258545,1.59375,0.875,-0.484375,505
506,1695773403386,-0.045654297,-0.9866333,0.20794678,-0.71875,0.40625,0.0625,506
507,1695773403426,-0.064208984,-1.0056763,0.19476318,-0.84375,-1.53125,-0.515625,507
508,1695773403466,-0.055908203,-0.986145,0.20965576,-1.75,-0.140625,-0.8125,508
509,1695773403506,-0.053955078,-0.9846802,0.20159912,0.53125,0.5,0.0625,509
510,1695773403546,-0.060302734,-0.98760986,0.20916748,0.328125,1.390625,-0.078125,510
511,1695773403586,-0.041503906,-0.9866333,0.21331787,1.03125,0.390625,-0.171875,511
512,1695773403626,-0.060058594,-1.000061,0.19281006,-2.421875,-0.84375,-0.46875,512
513,1695773403666,-0.05053711,-0.96466064,0.20257568,-1.4375,0.40625,0.03125,513
514,1695773403706,-0.052978516,-0.9937134,0.22161865,1.859375,-0.0625,0.09375,514
515,1695773403746,-0.05419922,-0.99713135,0.19696045,-2.453125,-0.1875,-0.421875,515
516,1695773403786,-0.04248047,-0.9771118,0.19720459,-2.375,-1.0,-1.203125,516
517,1695773403826,-0.06323242,-0.9741821,0.20013428,-0.453125,-0.109375,0.21875,517
518,1695773403866,-0.055664062,-0.9819946,0.19476318,-1.28125,-0.4375,0.390625,518
519,1695773403906,-0.032714844,-0.9927368,0.20648193,-1.328125,-0.25,-0.703125,519
520,1695773403946,-0.05517578,-1.0054321,0.20477295,-1.796875,0.265625,-0.875,520
521,1695773403986,-0.047851562,-0.9758911,0.20428467,-1.96875,-0.984375,-0.359375,521
522,1695773404026,-0.052490234,-0.97735596,0.20111084,-2.296875,-0.46875,-0.953125,522
523,1695773404066,-0.05908203,-0.99664307,0.2140503,-0.34375,-0.75,-1.328125,523
524,1695773404106,-0.04736328,-0.9907837,0.22161865,-1.9375,-0.03125,-0.53125,524
525,1695773404146,-0.05883789,-0.9885864,0.21844482,-0.921875,-1.46875,0.015625,525
526,1695773404186,-0.08081055,-0.98760986,0.21697998,-1.390625,0.171875,-0.03125,526
527,1695773404226,-0.05126953,-0.96661377,0.21160889,-2.4375,-0.34375,-1.265625,527
528,1695773404266,-0.060058594,-0.9990845,0.21575928,-2.578125,-0.03125,-1.140625,528
529,1695773404306,-0.059570312,-0.99346924,0.22235107,-1.671875,0.1875,-1.0625,529
530,1695773404346,-0.060791016,-0.9758911,0.22503662,-1.28125,-0.796875,0.15625,530
531,1695773404386,-0.052978516,-0.9776001,0.22406006,-0.421875,0.828125,-1.359375,531
532,1695773404426,-0.068847656,-0.98321533,0.21795654,-1.171875,0.328125,-0.78125,532
533,1695773404466,-0.071777344,-0.9817505,0.22161865,-1.75,-0.390625,-0.875,533
534,1695773404506,-0.056152344,-0.98931885,0.21917725,-1.375,-0.609375,-0.953125,534
535,1695773404546,-0.05810547,-0.9788208,0.23016357,-0.703125,0.640625,0.109375,535
536,1695773404586,-0.06347656,-0.9846802,0.22601318,-0.234375,0.375,-0.328125,536
537,1695773404626,-0.06738281,-0.9846802,0.21356201,-0.515625,0.140625,-0.578125,537
538,1695773404666,-0.06665039,-0.9771118,0.22698975,-0.5,-0.015625,-1.5625,538
539,1695773404706,-0.057128906,-0.99346924,0.22161865,0.46875,0.4375,-1.3125,539
540,1695773404746,-0.064697266,-0.99005127,0.22283936,-0.6875,-0.03125,0.625,540
541,1695773404786,-0.06274414,-0.9631958,0.22332764,-0.34375,-0.65625,-0.421875,541
542,1695773404826,-0.08496094,-0.9993286,0.23065186,-1.1875,-0.1875,-0.4375,542
543,1695773404866,-0.07397461,-0.9741821,0.22283936,-0.578125,0.765625,0.03125,543
544,1695773404906,-0.05517578,-0.9800415,0.22332764,-0.328125,1.0,-1.9375,544
545,1695773404946,-0.064453125,-0.9963989,0.22381592,-0.25,0.21875,-0.625,545
546,1695773404986,-0.056396484,-0.9758911,0.22650146,-1.03125,-0.453125,0.21875,546
547,1695773405026,-0.079589844,-0.9866333,0.22259521,-0.984375,0.40625,-0.53125,547
548,1695773405066,-0.07055664,-0.9885864,0.22772217,-0.0625,1.8125,-0.046875,548
549,1695773405106,-0.07348633,-0.98638916,0.22113037,-2.609375,-1.03125,-0.640625,549
550,1695773405146,-0.0703125,-0.96588135,0.2267456,-0.46875,0.53125,-0.5,550
551,1695773405186,-0.05444336,-0.98931885,0.21746826,-0.96875,-0.5,-1.71875,551
552,1695773405226,-0.07470703,-0.99713135,0.23602295,-1.015625,-0.640625,0.359375,552
553,1695773405266,-0.068603516,-0.99005127,0.23358154,0.53125,0.078125,0.34375,553
554,1695773405306,-0.076660156,-0.9846802,0.22918701,-1.140625,0.625,0.71875,554
555,1695773405346,-0.07006836,-0.9714966,0.21917725,-0.59375,0.53125,-0.453125,555
556,1695773405386,-0.05444336,-0.9927368,0.215271,-2.328125,1.1875,-1.046875,556
557,1695773405426,-0.06225586,-0.9849243,0.22064209,-1.625,0.40625,1.453125,557
558,1695773405466,-0.057861328,-0.9668579,0.2321167,0.578125,-0.90625,-0.125,558
559,1695773405506,-0.05029297,-0.99005127,0.22918701,0.46875,0.3125,0.34375,559
560,1695773405546,-0.08129883,-0.9692993,0.21820068,-0.265625,-0.140625,0.859375,560
561,1695773405586,-0.07470703,-0.97979736,0.21209717,-2.859375,-0.390625,-0.625,561
562,1695773405626,-0.05859375,-0.9902954,0.22479248,-1.671875,-1.171875,-2.078125,562
563,1695773405666,-0.0637207,-1.010315,0.24212646,-0.734375,1.609375,-0.3125,563
564,1695773405706,-0.06738281,-0.9661255,0.230896,0.359375,1.4375,1.5625,564
565,1695773405746,-0.06640625,-0.9697876,0.21160889,-1.6875,0.453125,0.0,565
566,1695773405786,-0.05126953,-0.97735596,0.2267456,-0.859375,-0.96875,-1.25,566
567,1695773405826,-0.051757812,-0.9932251,0.23358154,0.5,-0.625,-1.65625,567
568,1695773405866,-0.100097656,-1.0108032,0.24920654,-0.640625,-0.703125,0.8125,568
569,1695773405906,-0.08203125,-0.9624634,0.22210693,-0.59375,-0.59375,1.28125,569
570,1695773405946,-0.064697266,-0.97540283,0.2111206,-1.53125,0.265625,-0.078125,570
571,1695773405986,-0.059326172,-0.9805298,0.21990967,1.0625,2.421875,0.078125,571
572,1695773406026,-0.044189453,-1.0007935,0.22113037,-1.828125,0.4375,0.140625,572
573,1695773406066,-0.068359375,-0.97735596,0.21746826,-2.59375,-1.125,0.484375,573
574,1695773406106,-0.060302734,-0.98321533,0.23162842,0.015625,1.375,0.234375,574
575,1695773406146,-0.050048828,-0.972229,0.22161865,-1.453125,-0.375,-0.4375,575
576,1695773406186,-0.064208984,-0.99005127,0.22454834,-1.46875,1.15625,-0.59375,576
577,1695773406226,-0.0546875,-0.98101807,0.2399292,-1.40625,1.109375,-1.234375,577
578,1695773406266,-0.061767578,-0.973938,0.2333374,-1.109375,-0.859375,-0.40625,578
579,1695773406306,-0.06518555,-0.9841919,0.24017334,-0.53125,0.171875,-0.453125,579
580,1695773406346,-0.05908203,-0.9834595,0.23162842,-2.203125,0.4375,-0.09375,580
581,1695773406386,-0.06689453,-0.97857666,0.23651123,1.328125,0.546875,-0.046875,581
582,1695773406426,-0.060546875,-1.0005493,0.23602295,0.09375,0.375,-1.046875,582
583,1695773406466,-0.06738281,-0.97662354,0.22210693,-1.96875,-1.0,-0.84375,583
584,1695773406506,-0.06542969,-0.9590454,0.22479248,-0.078125,1.09375,-0.953125,584
585,1695773406546,-0.071777344,-0.9993286,0.23187256,0.234375,0.40625,0.125,585
586,1695773406586,-0.05493164,-0.973938,0.22943115,-1.765625,-0.5,0.078125,586
587,1695773406626,-0.05419922,-1.0049438,0.22918701,1.03125,0.0,-2.140625,587
588,1695773406666,-0.057617188,-0.9783325,0.2345581,-2.921875,0.734375,-0.921875,588
589,1695773406706,-0.076660156,-0.97662354,0.22894287,-0.4375,-0.84375,0.109375,589
590,1695773406746,-0.07104492,-0.9776001,0.24285889,-1.203125,1.265625,-0.40625,590
591,1695773406786,-0.05126953,-0.99298096,0.22479248,-0.03125,-0.484375,-1.453125,591
592,1695773406826,-0.059570312,-0.98760986,0.2374878,-1.671875,-0.4375,-0.8125,592
593,1695773406866,-0.08251953,-0.973938,0.22869873,-0.59375,0.703125,0.015625,593
594,1695773406906,-0.07861328,-0.97906494,0.22161865,-0.140625,0.234375,-0.296875,594
595,1695773406946,-0.061767578,-0.9834595,0.2255249,-0.953125,1.328125,-1.109375,595
596,1695773406986,-0.060302734,-0.9951782,0.23577881,0.734375,0.359375,-0.421875,596
597,1695773407026,-0.06958008,-0.97369385,0.23114014,-0.921875,-0.03125,0.3125,597
598,1695773407066,-0.0793457,-0.98101807,0.23065186,-0.21875,-0.171875,-0.40625,598
599,1695773407106,-0.06542969,-0.9846802,0.22772217,-2.625,0.359375,-1.125,599
600,1695773407146,-0.07128906,-0.9795532,0.23919678,0.84375,0.328125,0.421875,600
601,1695773407186,-0.07104492,-0.9939575,0.23431396,-0.3125,-0.171875,-0.546875,601
602,1695773407226,-0.048339844,-0.9690552,0.2345581,-2.328125,0.390625,-0.4375,602
603,1695773407266,-0.083984375,-0.991272,0.2218628,0.484375,-0.203125,0.078125,603
604,1695773407306,-0.072753906,-0.9824829,0.24578857,0.5,0.359375,0.28125,604
605,1695773407346,-0.06713867,-0.98883057,0.22064209,-2.53125,-0.765625,-1.9375,605
606,1695773407386,-0.07446289,-0.9768677,0.22918701,-0.921875,1.546875,-0.5625,606
607,1695773407426,-0.067871094,-0.9776001,0.23260498,-0.9375,-0.078125,0.171875,607
608,1695773407466,-0.06347656,-0.99224854,0.22503662,-0.875,0.359375,0.5625,608
609,1695773407506,-0.0546875,-0.97540283,0.23309326,-0.28125,-0.65625,-0.40625,609
610,1695773407546,-0.07006836,-0.9644165,0.22845459,-0.796875,-0.65625,-1.0,610
611,1695773407586,-0.10913086,-0.9956665,0.23284912,-1.15625,-0.671875,0.40625,611
612,1695773407626,-0.07128906,-0.9871216,0.24139404,-1.453125,1.484375,0.953125,612
613,1695773407666,-0.045898438,-0.9783325,0.21942139,0.25,1.390625,-0.359375,613
614,1695773407706,-0.06201172,-0.9898071,0.2333374,-0.140625,0.421875,-0.046875,614
615,1695773407746,-0.07055664,-0.9734497,0.2267456,-1.84375,-1.703125,-0.40625,615
616,1695773407786,-0.080078125,-0.9841919,0.22821045,-0.375,0.421875,-0.28125,616
617,1695773407826,-0.071777344,-0.9885864,0.23675537,0.96875,1.34375,0.8125,617
618,1695773407866,-0.068359375,-0.98150635,0.24334717,-0.28125,-0.34375,0.734375,618
619,1695773407906,-0.061523438,-0.98272705,0.22259521,-1.390625,0.953125,-0.546875,619
620,1695773407946,-0.056640625,-0.99053955,0.21942139,-3.0,-1.015625,-0.921875,620
621,1695773407986,-0.06518555,-0.9817505,0.22576904,-0.625,-0.6875,-0.734375,621
622,1695773408026,-0.06225586,-0.9729614,0.23382568,-0.4375,0.921875,-0.203125,622
623,1695773408066,-0.08227539,-0.99835205,0.22259521,-0.0625,0.078125,-0.078125,623
624,1695773408106,-0.060546875,-0.9812622,0.22845459,-2.828125,-0.125,-0.890625,624
625,1695773408146,-0.06933594,-0.9795532,0.24017334,-0.96875,0.15625,0.046875,625
626,1695773408186,-0.076416016,-0.9890747,0.24969482,0.734375,0.328125,-1.078125,626
627,1695773408226,-0.060791016,-0.98638916,0.24456787,-1.953125,0.6875,-0.109375,627
628,1695773408266,-0.0690918,-0.9697876,0.21942139,-0.15625,0.171875,0.125,628
629,1695773408306,-0.06567383,-0.97320557,0.23040771,-0.765625,0.390625,-1.171875,629
630,1695773408346,-0.07763672,-0.98443604,0.24139404,-1.40625,-0.9375,-0.125,630
631,1695773408386,-0.08227539,-0.9927368,0.23529053,-0.625,-0.453125,-0.28125,631
632,1695773408426,-0.0715332,-0.9846802,0.24822998,-0.921875,0.921875,-0.1875,632
633,1695773408466,-0.072509766,-0.97003174,0.23431396,-0.046875,0.09375,-0.171875,633
634,1695773408506,-0.07519531,-0.9783325,0.22601318,-1.109375,1.734375,0.234375,634
635,1695773408546,-0.06274414,-0.9800415,0.24066162,-1.046875,-0.5,0.671875,635
636,1695773408586,-0.053466797,-0.9807739,0.23382568,0.34375,0.59375,0.390625,636
637,1695773408626,-0.044189453,-0.9939575,0.23382568,0.265625,1.109375,-0.25,637
638,1695773408666,-0.064697266,-0.96173096,0.23675537,1.4375,0.71875,0.453125,638
639,1695773408706,-0.07470703,-0.99420166,0.23065186,0.75,-0.046875,-0.296875,639
640,1695773408746,-0.053710938,-0.987854,0.2296753,-0.953125,0.921875,0.03125,640
641,1695773408786,-0.052734375,-0.9812622,0.22381592,0.984375,2.0,0.546875,641
642,1695773408826,-0.06616211,-0.96343994,0.22772217,1.75,0.625,-0.65625,642
643,1695773408866,-0.048095703,-0.9968872,0.22869873,1.96875,1.40625,-1.09375,643
644,1695773408906,-0.076171875,-0.99224854,0.21331787,-0.203125,-0.109375,0.171875,644
645,1695773408946,-0.06713867,-0.9729614,0.22991943,0.203125,1.390625,-0.234375,645
646,1695773408986,-0.05419922,-0.98931885,0.2255249,-0.15625,0.15625,-1.453125,646
647,1695773409026,-0.0690918,-1.0005493,0.2267456,-2.0,0.125,-1.15625,647
648,1695773409066,-0.061523438,-0.96343994,0.20941162,-2.5,-0.28125,-1.796875,648
649,1695773409106,-0.07299805,-0.97784424,0.215271,1.265625,-0.453125,-2.03125,649
650,1695773409146,-0.06713867,-0.9841919,0.22503662,1.453125,-0.375,-1.5625,650
651,1695773409186,-0.0847168,-1.0083618,0.22454834,-1.046875,-0.5625,1.09375,651
652,1695773409226,-0.059814453,-0.9776001,0.20501709,-0.171875,2.15625,-0.375,652
653,1695773409266,-0.06665039,-0.9873657,0.20819092,1.609375,0.421875,0.171875,653
654,1695773409306,-0.0715332,-0.9685669,0.21942139,2.125,1.921875,-0.453125,654
655,1695773409346,-0.080566406,-0.9834595,0.20794678,-1.515625,-0.9375,-1.625,655
656,1695773409386,-0.07055664,-0.9834595,0.2033081,0.609375,1.171875,-0.90625,656
657,1695773409426,-0.06640625,-0.9976196,0.2086792,1.375,1.171875,0.6875,657
658,1695773409466,-0.07348633,-0.9854126,0.19866943,0.546875,0.40625,1.75,658
659,1695773409506,-0.07543945,-0.9783325,0.20037842,0.546875,0.28125,-0.96875,659
660,1695773409546,-0.079833984,-0.9949341,0.19671631,-0.546875,1.234375,-1.21875,660
661,1695773409586,-0.07714844,-0.9812622,0.2111206,0.078125,0.578125,0.65625,661
662,1695773409626,-0.05883789,-0.99542236,0.20428467,1.921875,0.40625,0.953125,662
663,1695773409666,-0.05859375,-0.9985962,0.1876831,-1.09375,-0.140625,0.0625,663
664,1695773409706,-0.067871094,-0.9710083,0.19647217,0.796875,0.171875,-0.171875,664
665,1695773409746,-0.0769043,-0.9939575,0.1954956,0.734375,-0.1875,-0.75,665
666,1695773409786,-0.08496094,-0.9968872,0.20037842,-0.109375,1.4375,0.765625,666
667,1695773409826,-0.061767578,-0.9807739,0.20770264,1.671875,2.515625,0.5625,667
668,1695773409866,-0.059326172,-0.9824829,0.17669678,-1.640625,0.453125,0.359375,668
669,1695773409906,-0.068115234,-0.9690552,0.18988037,0.734375,-0.296875,0.015625,669
670,1695773409946,-0.057617188,-1.0066528,0.19281006,-1.703125,0.078125,-0.515625,670
671,1695773409986,-0.06713867,-0.9898071,0.184021,-1.046875,0.125,1.15625,671
672,1695773410026,-0.06762695,-0.98443604,0.19598389,-2.703125,0.34375,-0.171875,672
673,1695773410066,-0.06738281,-0.9819946,0.18719482,-2.984375,0.25,0.09375,673
674,1695773410106,-0.061767578,-0.9866333,0.19378662,0.484375,1.125,-0.546875,674
675,1695773410146,-0.045654297,-0.9883423,0.20306396,-2.53125,1.328125,-2.078125,675
676,1695773410186,-0.053466797,-0.9692993,0.1984253,-0.1875,0.21875,-0.671875,676
677,1695773410226,-0.071777344,-0.9920044,0.20355225,-2.265625,-1.6875,0.9375,677
678,1695773410266,-0.09375,-0.99298096,0.19940186,-1.828125,-1.8125,1.09375,678
679,1695773410306,-0.049560547,-0.9976196,0.20062256,-4.15625,0.8125,-3.171875,679
680,1695773410346,-0.05859375,-1.0071411,0.21136475,-0.203125,-0.1875,-1.046875,680
681,1695773410386,-0.039794922,-0.97003174,0.21624756,-1.859375,-1.28125,-2.5,681
682,1695773410426,-0.068359375,-0.96221924,0.19354248,-4.515625,-0.875,-1.171875,682
683,1695773410466,-0.096191406,-0.96295166,0.19989014,-3.5,-4.359375,-0.4375,683
684,1695773410506,-0.0703125,-1.003479,0.22845459,-3.875,0.171875,-1.359375,684
685,1695773410546,-0.08081055,-1.0166626,0.2267456,-2.03125,-0.203125,0.9375,685
686,1695773410586,-0.064453125,-0.9470825,0.22332764,-1.4375,0.140625,-1.78125,686
687,1695773410626,-0.06640625,-0.98394775,0.22015381,-4.140625,-0.6875,-2.140625,687
688,1695773410666,-0.09741211,-0.9837036,0.2267456,-4.03125,-2.375,1.234375,688
689,1695773410706,-0.06616211,-0.9800415,0.24627686,-2.046875,-1.375,-0.84375,689
690,1695773410746,-0.07055664,-0.99102783,0.2477417,-2.65625,1.4375,-0.640625,690
691,1695773410786,-0.07739258,-0.98443604,0.23406982,-0.15625,-1.078125,0.578125,691
692,1695773410826,-0.07519531,-0.96099854,0.23480225,-1.65625,-0.71875,-0.109375,692
693,1695773410866,-0.08569336,-0.9807739,0.25213623,-1.328125,-0.59375,0.046875,693
694,1695773410906,-0.079833984,-0.989563,0.24603271,-2.765625,0.5625,-0.296875,694
695,1695773410946,-0.05908203,-0.98321533,0.24310303,-1.140625,0.828125,0.625,695
696,1695773410986,-0.06274414,-0.97198486,0.23284912,-0.765625,0.109375,1.265625,696
697,1695773411026,-0.078125,-0.96661377,0.24212646,-2.578125,-1.53125,-1.15625,697
698,1695773411066,-0.08935547,-0.9924927,0.24310303,-2.25,-0.21875,-0.5625,698
699,1695773411106,-0.064208984,-0.98516846,0.2531128,-0.203125,3.046875,1.390625,699
700,1695773411146,-0.07299805,-0.9837036,0.25579834,-0.609375,1.765625,0.984375,700
701,1695773411186,-0.07006836,-0.9751587,0.24871826,-0.484375,1.90625,0.078125,701
702,1695773411226,-0.06713867,-0.9631958,0.24310303,-1.9375,1.71875,-1.03125,702
703,1695773411266,-0.064941406,-0.97540283,0.25115967,-2.5,0.53125,-1.25,703
704,1695773411306,-0.07495117,-0.98809814,0.25628662,-2.390625,-1.078125,-0.203125,704
705,1695773411346,-0.07519531,-0.98321533,0.25653076,-1.453125,1.078125,0.546875,705
706,1695773411386,-0.06665039,-0.9902954,0.26287842,1.375,1.421875,-0.4375,706
707,1695773411426,-0.0690918,-0.98223877,0.25872803,0.671875,2.34375,0.328125,707
708,1695773411466,-0.060546875,-0.95758057,0.2399292,-1.84375,0.375,-0.4375,708
709,1695773411506,-0.052001953,-0.9758911,0.24481201,-0.671875,-1.0,-2.234375,709
710,1695773411546,-0.072021484,-0.99176025,0.2675171,0.9375,-0.890625,-0.828125,710
711,1695773411586,-0.084472656,-0.98760986,0.25360107,0.484375,-1.234375,1.09375,711
712,1695773411626,-0.07006836,-0.9783325,0.24627686,-1.1875,-0.671875,0.4375,712
713,1695773411666,-0.07421875,-0.96661377,0.23480225,0.40625,-0.921875,-1.25,713
714,1695773411706,-0.087646484,-0.99957275,0.24407959,0.65625,0.765625,-2.46875,714
715,1695773411746,-0.078125,-0.98516846,0.2555542,-0.40625,0.09375,0.0,715
716,1695773411786,-0.06933594,-0.96832275,0.24261475,-0.546875,-0.625,-0.21875,716
717,1695773411826,-0.06616211,-0.97662354,0.24383545,-0.140625,0.375,-0.828125,717
718,1695773411866,-0.072021484,-0.99102783,0.24847412,-1.5,-1.828125,-0.953125,718
719,1695773411906,-0.0859375,-0.9746704,0.23577881,-1.375,-0.9375,0.6875,719
720,1695773411946,-0.1003418,-0.98101807,0.25213623,1.5625,0.859375,1.375,720
721,1695773411986,-0.08862305,-0.9807739,0.2453003,-0.265625,2.0,-0.4375,721
722,1695773412026,-0.06347656,-0.9771118,0.23406982,-1.5625,1.71875,-0.90625,722
723,1695773412066,-0.052246094,-0.9800415,0.24163818,-0.109375,1.15625,-0.359375,723
724,1695773412106,-0.064941406,-0.98223877,0.23846436,-1.265625,-1.234375,0.453125,724
725,1695773412146,-0.07836914,-0.98443604,0.24554443,-0.6875,0.078125,0.71875,725
726,1695773412186,-0.0793457,-0.9837036,0.2489624,-0.125,1.390625,0.875,726
727,1695773412226,-0.08178711,-0.9780884,0.24603271,-1.328125,0.625,0.046875,727
728,1695773412266,-0.071777344,-0.97247314,0.2538452,-1.75,0.6875,-0.875,728
729,1695773412306,-0.052001953,-0.9763794,0.24383545,0.015625,1.015625,-0.703125,729
730,1695773412346,-0.06713867,-0.9834595,0.24090576,-0.0625,-0.34375,0.828125,730
731,1695773412386,-0.07836914,-0.9717407,0.2538452,-2.21875,-1.40625,-0.078125,731
732,1695773412426,-0.072509766,-0.97491455,0.24578857,-1.0,-0.203125,-1.0,732
733,1695773412466,-0.079833984,-1.0059204,0.25042725,-0.09375,1.40625,-0.328125,733
734,1695773412506,-0.057861328,-0.9692993,0.24554443,-0.375,1.15625,-0.0625,734
735,1695773412546,-0.06762695,-0.9729614,0.24090576,-2.078125,0.3125,-0.1875,735
736,1695773412586,-0.08178711,-0.97320557,0.24969482,-0.15625,-0.65625,-0.125,736
737,1695773412626,-0.064697266,-0.9812622,0.25823975,-0.453125,0.0625,-1.625,737
738,1695773412666,-0.08544922,-0.99664307,0.24285889,-1.921875,0.25,0.078125,738
739,1695773412706,-0.06201172,-0.9573364,0.26239014,0.84375,1.375,-0.125,739
740,1695773412746,-0.07128906,-1.000061,0.24334717,-0.6875,-0.1875,-0.203125,740
741,1695773412786,-0.072265625,-0.97247314,0.24749756,-0.328125,0.03125,0.21875,741
742,1695773412826,-0.06933594,-0.99053955,0.24578857,-1.375,-0.5,-1.171875,742
743,1695773412866,-0.0715332,-0.9771118,0.24139404,-1.15625,-0.234375,0.140625,743
744,1695773412906,-0.079589844,-0.98931885,0.24505615,1.15625,0.03125,-0.828125,744
745,1695773412946,-0.07788086,-0.9932251,0.24700928,-2.875,-0.828125,0.21875,745
746,1695773412986,-0.072509766,-0.95928955,0.25042725,0.671875,-0.28125,-0.21875,746
747,1695773413026,-0.07348633,-0.98565674,0.24041748,-0.6875,0.75,-0.03125,747
748,1695773413066,-0.0769043,-0.97979736,0.2584839,-0.109375,0.140625,0.625,748
749,1695773413106,-0.07421875,-0.98101807,0.25286865,-0.953125,-0.140625,-0.46875,749
750,1695773413146,-0.07495117,-0.9741821,0.25042725,0.484375,0.078125,-0.375,750
751,1695773413186,-0.07055664,-0.9915161,0.23919678,-0.21875,0.59375,-1.234375,751
752,1695773413226,-0.07055664,-0.9800415,0.23406982,-2.640625,-0.03125,0.328125,752
753,1695773413266,-0.07128906,-0.9751587,0.2514038,0.015625,0.453125,0.5625,753
754,1695773413306,-0.072509766,-0.9776001,0.25482178,-1.046875,0.34375,-0.484375,754
755,1695773413346,-0.07373047,-0.9873657,0.24749756,-0.921875,0.3125,-0.78125,755
756,1695773413386,-0.06738281,-0.97540283,0.23406982,-0.859375,0.296875,-1.078125,756
757,1695773413426,-0.0637207,-0.96539307,0.25213623,-0.546875,-0.1875,0.046875,757
758,1695773413466,-0.084472656,-0.9819946,0.24432373,0.546875,-0.015625,0.84375,758
759,1695773413506,-0.078125,-0.9907837,0.25457764,-1.265625,0.6875,0.140625,759
