,timestamp,accel_x,accel_y,accel_z,gyro_x,gyro_y,gyro_z,ind
0,1696168112079,0.2133789,-0.88067627,-0.19903564,10.265625,14.03125,2.109375,0
1,1696168112119,0.2919922,-1.0332642,-0.1921997,7.734375,0.953125,-2.75,1
2,1696168112159,0.31469727,-1.0999146,-0.085754395,-0.296875,-2.046875,-4.84375,2
3,1696168112199,0.16674805,-0.991272,-0.0134887695,-12.78125,1.34375,-5.5,3
4,1696168112239,0.072021484,-0.99786377,-0.03643799,-0.609375,4.875,-4.546875,4
5,1696168112279,0.064941406,-0.9553833,-0.008850098,3.5,1.8125,-1.171875,5
6,1696168112319,0.11621094,-0.8513794,-0.006652832,1.1875,7.71875,-2.390625,6
7,1696168112359,0.15820312,-0.70806885,0.066589355,-4.375,7.59375,-8.9375,7
8,1696168112399,0.07519531,-0.7420044,0.026306152,-3.203125,-4.015625,-8.296875,8
9,1696168112439,0.027832031,-0.7136841,0.048034668,-1.0,-0.9375,-6.234375,9
10,1696168112479,0.03857422,-0.8262329,0.0446167,-2.578125,-4.25,-6.09375,10
11,1696168112519,0.017578125,-0.8748169,0.04168701,-1.1875,-6.5625,-1.921875,11
12,1696168112559,0.026611328,-0.93951416,0.14031982,-2.328125,-5.453125,-3.125,12
13,1696168112599,0.064941406,-1.0564575,0.13690186,-2.953125,-6.25,-3.5625,13
14,1696168112639,0.049072266,-1.0725708,0.093688965,-9.890625,-6.890625,-5.9375,14
15,1696168112679,-0.04345703,-1.164856,0.1461792,-2.875,-8.4375,-2.6875,15
16,1696168112719,-0.043701172,-1.0540161,0.02923584,6.53125,0.046875,6.609375,16
17,1696168112759,0.25805664,-1.2044067,-0.028625488,11.609375,-9.609375,5.625,17
18,1696168112799,0.41503906,-1.3272095,-0.07940674,6.484375,-9.734375,12.828125,18
19,1696168112839,0.3371582,-0.989563,-0.1026001,-6.75,-5.8125,11.984375,19
20,1696168112879,0.29248047,-0.86309814,-0.031799316,-7.140625,-0.578125,2.125,20
21,1696168112919,0.41577148,-1.0056763,-0.050598145,-7.46875,-10.953125,4.78125,21
22,1696168112959,0.47070312,-1.0396118,0.022644043,-0.046875,-6.375,10.46875,22
23,1696168112999,0.19873047,-1.034729,0.009216309,-14.46875,-4.75,0.359375,23
24,1696168113039,0.2290039,-0.92510986,0.057556152,-14.90625,-1.96875,2.96875,24
25,1696168113079,0.2722168,-0.9727173,0.09661865,9.203125,0.5625,9.625,25
26,1696168113119,0.3388672,-1.0227661,0.14788818,-12.4375,-0.234375,5.59375,26
27,1696168113159,0.16601562,-0.8110962,0.11175537,-7.625,5.421875,1.078125,27
28,1696168113199,0.20874023,-0.8147583,0.066101074,1.703125,-9.265625,9.40625,28
29,1696168113239,0.2163086,-0.7293091,0.1473999,-14.5625,0.09375,6.34375,29
30,1696168113279,0.1796875,-0.6712036,0.22454834,-15.453125,1.1875,-0.40625,30
31,1696168113319,0.16137695,-0.60357666,0.23895264,4.78125,-2.203125,0.046875,31
32,1696168113359,0.12011719,-0.8255005,0.20111084,-0.421875,-0.375,-0.25,32
33,1696168113399,0.15625,-0.9053345,0.2567749,5.03125,8.703125,-3.25,33
34,1696168113439,0.29956055,-1.0264282,0.22479248,7.640625,-1.546875,1.34375,34
35,1696168113479,0.27416992,-1.069397,0.28118896,-10.125,7.5625,-10.015625,35
36,1696168113519,0.21899414,-1.1392212,0.28411865,7.21875,7.140625,-8.890625,36
37,1696168113559,0.1640625,-1.0264282,0.15301514,-0.078125,3.203125,3.359375,37
38,1696168113599,0.19140625,-0.8735962,0.16375732,-2.734375,6.734375,-1.25,38
39,1696168113639,0.25463867,-1.0366821,0.19110107,9.421875,8.46875,-0.453125,39
40,1696168113679,0.6257324,-1.5674438,0.023132324,16.234375,-23.453125,14.0,40
41,1696168113719,0.41674805,-1.2642212,0.1281128,-9.1875,10.875,-15.046875,41
42,1696168113759,0.0546875,-0.6790161,-0.082336426,-7.234375,29.453125,-8.3125,42
43,1696168113799,0.072265625,-0.7822876,-0.2600708,15.375,11.65625,0.78125,43
44,1696168113839,0.33618164,-1.1062622,-0.15679932,8.859375,-15.75,-13.984375,44
45,1696168113879,0.30273438,-1.1541138,0.18572998,-10.25,7.015625,-15.21875,45
46,1696168113919,0.08203125,-0.95977783,0.13543701,-14.34375,5.46875,-8.21875,46
47,1696168113959,-0.06542969,-0.8821411,-0.10699463,1.96875,2.484375,-8.078125,47
48,1696168113999,0.053466797,-0.8220825,0.06414795,4.265625,12.046875,-11.125,48
49,1696168114039,0.072265625,-0.85723877,0.15692139,1.546875,21.65625,-8.171875,49
50,1696168114079,0.091308594,-0.83599854,0.07220459,-4.8125,8.40625,-7.703125,50
51,1696168114119,0.084228516,-0.7612915,-0.053527832,-0.859375,6.703125,-5.796875,51
52,1696168114159,0.07397461,-0.7647095,0.049987793,-1.421875,2.046875,-3.71875,52
53,1696168114199,0.010009766,-0.8189087,0.070739746,2.234375,-1.796875,0.984375,53
54,1696168114239,-0.0063476562,-0.95758057,0.08782959,-1.390625,-7.09375,1.9375,54
55,1696168114279,-0.026855469,-1.1140747,0.12664795,9.46875,0.640625,3.546875,55
56,1696168114319,0.18701172,-1.0679321,0.19500732,-6.703125,-12.046875,5.21875,56
57,1696168114359,0.1340332,-1.0154419,0.15179443,-7.90625,-4.703125,1.8125,57
58,1696168114399,-0.1328125,-1.2468872,0.030700684,6.9375,-6.609375,7.15625,58
59,1696168114439,0.036132812,-1.1455688,0.08294678,9.703125,-1.8125,13.578125,59
60,1696168114479,0.34765625,-1.3650513,0.097351074,-1.59375,-5.265625,2.890625,60
61,1696168114519,0.32983398,-1.0628052,-0.04083252,2.25,6.6875,11.5625,61
62,1696168114559,0.2709961,-0.94073486,-0.066711426,-0.046875,-9.546875,10.4375,62
63,1696168114599,0.32421875,-0.8765259,0.07659912,0.109375,-5.96875,7.671875,63
64,1696168114639,0.42529297,-0.90411377,0.101745605,-6.0,-9.640625,4.65625,64
65,1696168114679,0.34960938,-0.9006958,-0.006164551,-1.734375,-12.5,5.03125,65
66,1696168114719,0.28051758,-0.94195557,0.05267334,-6.1875,-12.921875,1.09375,66
67,1696168114759,0.20678711,-0.98883057,0.16693115,-6.625,-1.3125,-3.28125,67
68,1696168114799,0.18701172,-0.9053345,0.13739014,-0.046875,1.515625,1.65625,68
69,1696168114839,0.32788086,-0.9277954,0.0848999,4.140625,-11.046875,8.203125,69
70,1696168114879,0.32958984,-0.89385986,0.13543701,-1.109375,-5.609375,4.171875,70
71,1696168114919,0.23339844,-0.8508911,0.17156982,-0.234375,6.125,4.65625,71
72,1696168114959,0.18530273,-0.8123169,0.12176514,3.84375,-0.203125,7.453125,72
73,1696168114999,0.106933594,-0.7761841,0.16888428,-3.828125,6.421875,2.546875,73
74,1696168115039,0.20141602,-0.7788696,0.14569092,-1.8125,-2.390625,4.1875,74
75,1696168115079,0.26831055,-0.77423096,0.2230835,3.109375,7.359375,-0.5,75
76,1696168115119,0.23706055,-0.8274536,0.19744873,-1.15625,7.03125,-5.078125,76
77,1696168115159,0.23095703,-0.93292236,0.24090576,-10.625,0.4375,-10.921875,77
78,1696168115199,0.13793945,-0.9727173,0.16766357,1.71875,8.15625,-8.921875,78
79,1696168115239,0.33691406,-1.0767212,0.07293701,19.53125,-7.734375,2.78125,79
80,1696168115279,0.4099121,-1.2866821,0.15252686,13.625,2.125,-5.1875,80
81,1696168115319,0.095458984,-1.2578735,0.1317749,2.734375,5.359375,-8.5,81
82,1696168115359,0.18164062,-1.0730591,-0.054260254,11.578125,6.484375,-5.53125,82
83,1696168115399,0.43701172,-1.1743774,-0.0134887695,8.203125,2.53125,-0.375,83
84,1696168115439,0.30444336,-1.0618286,-0.032043457,-7.828125,11.25,-3.90625,84
85,1696168115479,0.15112305,-0.77130127,-0.26275635,-7.734375,13.21875,-5.234375,85
86,1696168115519,0.2680664,-0.87872314,-0.2456665,3.421875,1.28125,-9.8125,86
87,1696168115559,0.32592773,-1.0950317,0.04144287,3.78125,1.265625,-10.671875,87
88,1696168115599,0.15698242,-1.0298462,0.038757324,-11.421875,9.328125,-10.265625,88
89,1696168115639,-0.013916016,-0.8960571,-0.11480713,-3.015625,12.734375,-12.28125,89
90,1696168115679,-0.008056641,-0.9390259,-0.043762207,5.328125,8.125,-11.71875,90
91,1696168115719,0.1821289,-0.92510986,0.073913574,5.796875,2.234375,-4.78125,91
92,1696168115759,0.16357422,-0.79351807,0.029724121,-2.1875,9.15625,-3.34375,92
93,1696168115799,0.13061523,-0.7737427,-0.04840088,-2.0,8.953125,-0.84375,93
94,1696168115839,0.07006836,-0.72491455,-0.003479004,-1.953125,-4.6875,-6.75,94
95,1696168115879,-0.034423828,-0.788147,0.011413574,5.6875,-7.421875,-1.078125,95
96,1696168115919,-0.02319336,-0.9121704,0.026306152,7.609375,-5.625,2.53125,96
97,1696168115959,0.008544922,-0.9500122,0.0006713867,8.171875,-10.34375,4.671875,97
98,1696168115999,-0.0026855469,-1.0596313,0.08392334,3.875,-3.0625,2.984375,98
99,1696168116039,0.0075683594,-1.1594849,0.11077881,-2.09375,-6.03125,2.171875,99
100,1696168116079,0.19238281,-0.99176025,-0.044006348,1.140625,-3.890625,5.796875,100
101,1696168116119,0.18530273,-1.0288696,-0.03253174,-15.1875,-10.71875,6.640625,101
102,1696168116159,0.09399414,-1.3833618,0.10784912,8.71875,-12.375,8.4375,102
103,1696168116199,0.0036621094,-1.1550903,0.0018920898,6.25,0.140625,11.921875,103
104,1696168116239,0.15673828,-0.9819946,-0.13311768,4.171875,11.34375,11.4375,104
105,1696168116279,0.33325195,-1.0244751,-0.19317627,2.8125,-1.84375,13.875,105
106,1696168116319,0.39379883,-0.9234009,0.028015137,-0.25,-4.796875,12.359375,106
107,1696168116359,0.30151367,-0.87335205,0.0014038086,-2.140625,-5.328125,7.953125,107
108,1696168116399,0.23706055,-0.91485596,-0.1843872,-2.59375,-1.109375,8.09375,108
109,1696168116439,0.36376953,-0.8858032,-0.13165283,0.1875,-12.484375,6.78125,109
110,1696168116479,0.35546875,-1.0195923,0.023864746,0.046875,-8.8125,2.4375,110
111,1696168116519,0.31054688,-0.9907837,-0.007873535,-17.0,-12.03125,1.109375,111
112,1696168116559,0.31079102,-0.9204712,-0.034729004,-4.71875,-11.734375,3.15625,112
113,1696168116599,0.23706055,-0.9631958,0.11541748,-3.359375,-6.640625,1.625,113
114,1696168116639,0.32006836,-0.9841919,0.13812256,-4.765625,-14.203125,4.265625,114
115,1696168116679,0.29760742,-0.90753174,0.06585693,-11.046875,-12.96875,2.359375,115
116,1696168116719,0.20678711,-0.82891846,0.06414795,-4.125,-7.421875,3.890625,116
117,1696168116759,0.18139648,-0.77838135,0.13104248,-4.46875,-2.328125,1.109375,117
118,1696168116799,0.22045898,-0.7695923,0.1618042,-5.84375,1.015625,1.6875,118
119,1696168116839,0.2697754,-0.8088989,0.1408081,-1.109375,-4.8125,-0.578125,119
120,1696168116879,0.25048828,-0.77056885,0.17669678,-3.09375,3.9375,-4.515625,120
121,1696168116919,0.14526367,-0.8521118,0.15618896,0.671875,2.75,0.265625,121
122,1696168116959,0.0625,-0.8772583,0.19232178,-6.515625,9.640625,-6.984375,122
123,1696168116999,0.2619629,-0.9627075,0.101501465,17.234375,14.0625,-8.765625,123
124,1696168117039,0.40576172,-1.177063,0.070495605,13.75,-2.65625,-2.640625,124
125,1696168117079,0.43017578,-1.171936,0.21795654,-4.28125,9.015625,4.921875,125
126,1696168117119,0.25878906,-0.9517212,0.012390137,2.09375,10.78125,-2.609375,126
127,1696168117159,0.19116211,-0.9204712,0.0016479492,6.328125,1.578125,1.578125,127
128,1696168117199,0.36157227,-1.1653442,-0.053771973,18.53125,-3.859375,8.921875,128
129,1696168117239,0.4104004,-1.2744751,-0.07476807,11.640625,10.84375,-3.015625,129
130,1696168117279,0.30810547,-0.89971924,-0.09967041,-7.125,21.796875,0.125,130
131,1696168117319,0.32226562,-0.77008057,-0.34161377,9.703125,19.671875,3.4375,131
132,1696168117359,0.39697266,-0.94732666,-0.20758057,-2.5,-0.9375,-4.421875,132
133,1696168117399,0.3935547,-1.0466919,-0.012512207,-0.484375,5.453125,-8.890625,133
134,1696168117439,0.21679688,-0.99884033,-0.077941895,0.5625,12.875,-10.234375,134
135,1696168117479,0.10229492,-0.8855591,-0.15167236,-6.734375,6.984375,-8.125,135
136,1696168117519,0.12011719,-0.82525635,-0.06304932,-6.328125,11.40625,-9.046875,136
137,1696168117559,0.114746094,-0.90509033,-0.022033691,-4.671875,11.78125,-6.5,137
138,1696168117599,0.1850586,-0.91973877,-0.0256958,-7.65625,3.390625,-1.359375,138
139,1696168117639,0.19506836,-0.78204346,-0.015686035,-9.1875,11.78125,-7.59375,139
140,1696168117679,0.06665039,-0.7527466,-0.0010375977,-20.296875,9.90625,-13.46875,140
141,1696168117719,0.10058594,-0.80059814,0.06829834,-10.84375,-2.3125,-6.171875,141
142,1696168117759,0.018310547,-0.9849243,0.0016479492,7.75,-2.5,-2.984375,142
143,1696168117799,0.044433594,-0.9890747,0.027526855,-2.859375,-4.296875,0.75,143
144,1696168117839,0.12573242,-0.95269775,0.09320068,-8.390625,-7.546875,-3.34375,144
145,1696168117879,0.13232422,-1.0339966,0.13128662,-10.28125,-3.53125,-5.34375,145
146,1696168117919,0.020019531,-1.0684204,0.0211792,-5.890625,-8.71875,4.359375,146
147,1696168117959,0.037109375,-0.9859009,-0.011779785,13.046875,-3.3125,9.234375,147
148,1696168117999,0.22509766,-1.3931274,0.03704834,16.5,-3.390625,-0.84375,148
149,1696168118039,0.30908203,-1.3052368,0.08709717,-14.9375,-1.484375,3.125,149
150,1696168118079,0.3190918,-0.87628174,-0.16192627,-3.4375,4.828125,9.53125,150
151,1696168118119,0.35473633,-0.9077759,-0.07550049,5.578125,-8.671875,10.703125,151
152,1696168118159,0.36987305,-0.99542236,0.04144287,1.09375,-26.203125,8.046875,152
153,1696168118199,0.31176758,-0.927063,0.0692749,-16.0625,-15.875,1.734375,153
154,1696168118239,0.2421875,-0.8621216,-0.05328369,-2.46875,-4.359375,4.9375,154
155,1696168118279,0.38378906,-0.9717407,-0.0029907227,4.71875,-16.0625,7.03125,155
156,1696168118319,0.3034668,-0.99468994,0.1408081,-15.359375,-8.921875,-1.421875,156
157,1696168118359,0.24584961,-0.93585205,0.14886475,-1.65625,-2.015625,1.453125,157
158,1696168118399,0.2866211,-0.8435669,0.022155762,-1.578125,-8.140625,9.4375,158
159,1696168118439,0.37036133,-0.90704346,0.09515381,4.171875,-7.328125,6.40625,159
160,1696168118479,0.37304688,-0.84942627,0.18865967,-7.59375,-10.734375,1.5,160
161,1696168118519,0.1652832,-0.83306885,0.14129639,-2.1875,-14.65625,2.890625,161
162,1696168118559,0.18847656,-0.77056885,0.14300537,-0.875,-10.203125,7.609375,162
163,1696168118599,0.2253418,-0.80255127,0.15716553,-3.796875,-11.171875,5.78125,163
164,1696168118639,0.16430664,-0.7893677,0.2514038,0.484375,-1.015625,-2.765625,164
165,1696168118679,0.18554688,-0.8394165,0.1696167,6.046875,-4.25,0.125,165
166,1696168118719,0.20410156,-0.9421997,0.24334717,-2.34375,4.84375,-6.171875,166
167,1696168118759,0.1574707,-0.8831177,0.24432373,-1.921875,10.65625,-10.859375,167
168,1696168118799,0.2993164,-0.90753174,0.117370605,5.65625,-3.296875,-4.015625,168
169,1696168118839,0.43554688,-1.1170044,0.13446045,6.953125,-10.421875,3.296875,169
170,1696168118879,0.34643555,-1.0735474,0.20184326,0.40625,2.125,-1.5,170
171,1696168118919,0.18066406,-1.0039673,0.058776855,11.25,4.40625,-4.125,171
172,1696168118959,0.2734375,-1.206604,0.077819824,22.359375,3.171875,5.09375,172
173,1696168118999,0.38500977,-1.317688,0.031677246,10.78125,7.1875,1.59375,173
174,1696168119039,0.28930664,-1.0674438,-0.08526611,-12.03125,16.125,-13.84375,174
175,1696168119079,0.19970703,-0.8291626,-0.0791626,-6.671875,20.0,-7.953125,175
176,1696168119119,0.23583984,-0.85650635,-0.1116333,12.59375,13.78125,-3.5,176
177,1696168119159,0.31030273,-1.0630493,-0.105529785,-6.0,8.078125,-11.875,177
178,1696168119199,0.24609375,-0.9487915,-0.012512207,-10.03125,10.765625,-15.203125,178
179,1696168119239,0.07861328,-0.92144775,-0.042297363,0.765625,14.828125,-10.1875,179
180,1696168119279,0.14819336,-0.93414307,-0.013244629,-10.015625,7.59375,-7.984375,180
181,1696168119319,0.1550293,-0.8928833,0.010192871,1.1875,5.078125,-8.640625,181
182,1696168119359,0.075683594,-0.8677368,0.029724121,0.3125,10.71875,-5.8125,182
183,1696168119399,0.06225586,-0.8694458,-0.007385254,-3.203125,15.828125,-5.875,183
184,1696168119439,0.08325195,-0.8262329,-0.027404785,-3.46875,3.515625,-3.3125,184
185,1696168119479,0.11987305,-0.86724854,0.014587402,2.84375,5.515625,-3.390625,185
186,1696168119519,0.059814453,-0.94073486,0.059265137,2.171875,2.015625,-6.109375,186
187,1696168119559,-0.018554688,-0.90826416,0.06781006,1.40625,4.84375,-5.921875,187
188,1696168119599,-0.09375,-0.95196533,-0.014709473,-0.109375,4.75,-0.03125,188
189,1696168119639,0.11743164,-1.0022583,0.038757324,-3.5625,-3.765625,0.0625,189
190,1696168119679,0.23706055,-0.89971924,0.10321045,-8.421875,-10.046875,-1.875,190
191,1696168119719,0.111328125,-0.9746704,0.073913574,-7.609375,-10.625,1.234375,191
192,1696168119759,-0.107421875,-1.0501099,0.038757324,-2.296875,-5.609375,2.953125,192
193,1696168119799,-0.010253906,-0.97003174,0.015563965,4.921875,-8.046875,6.5625,193
194,1696168119839,0.12133789,-1.1697388,0.0028686523,6.40625,-5.671875,4.328125,194
195,1696168119879,0.23266602,-1.3772583,-0.008361816,12.4375,-1.125,8.875,195
196,1696168119919,0.20288086,-1.3491821,0.038757324,-0.8125,-2.515625,10.546875,196
197,1696168119959,0.19262695,-1.1521606,0.026062012,-1.734375,-4.546875,14.296875,197
198,1696168119999,0.3696289,-0.9602661,-0.070373535,6.46875,-3.21875,17.234375,198
199,1696168120039,0.43652344,-0.8723755,-0.10284424,-8.671875,-7.0625,13.296875,199
200,1696168120079,0.48413086,-0.87091064,0.039001465,-10.125,-24.046875,6.859375,200
201,1696168120119,0.15478516,-0.9536743,0.02166748,-5.765625,-4.53125,1.5,201
202,1696168120159,0.032958984,-0.9170532,-0.0076293945,-12.40625,-2.171875,-0.609375,202
203,1696168120199,0.24047852,-0.8464966,0.054138184,-4.875,-8.6875,3.109375,203
204,1696168120239,0.47558594,-0.91973877,0.14422607,4.390625,-7.734375,8.703125,204
205,1696168120279,0.36572266,-0.894104,0.12005615,-5.625,-9.21875,5.765625,205
206,1696168120319,0.25048828,-0.8081665,0.113464355,-7.5625,-6.96875,0.953125,206
207,1696168120359,0.15258789,-0.82769775,0.121520996,-3.8125,-11.890625,2.390625,207
208,1696168120399,0.096191406,-0.6917114,0.14447021,-7.078125,-0.90625,-0.21875,208
209,1696168120439,0.1394043,-0.7490845,0.116882324,2.34375,1.375,0.65625,209
210,1696168120479,0.19873047,-0.8250122,0.19012451,-4.578125,6.296875,-4.4375,210
211,1696168120519,0.20214844,-0.86724854,0.24456787,3.53125,11.5,-7.984375,211
212,1696168120559,0.24658203,-0.9151001,0.22918701,3.234375,3.203125,-8.03125,212
213,1696168120599,0.26000977,-0.9546509,0.20697021,1.609375,2.125,-10.421875,213
214,1696168120639,0.30419922,-1.1482544,0.13446045,20.625,-5.453125,-0.828125,214
215,1696168120679,0.25976562,-1.114563,0.03704834,9.59375,-5.265625,-1.765625,215
216,1696168120719,0.17822266,-1.0623169,0.06756592,5.546875,3.96875,-5.703125,216
217,1696168120759,0.25854492,-1.3103638,0.013366699,17.90625,-1.609375,0.59375,217
218,1696168120799,0.40014648,-1.2180786,0.06903076,6.640625,4.09375,-3.65625,218
219,1696168120839,0.24145508,-1.0598755,-0.11431885,1.1875,17.828125,-4.859375,219
220,1696168120879,0.2006836,-0.94732666,-0.30670166,-4.71875,5.046875,-2.421875,220
221,1696168120919,0.28808594,-0.9209595,-0.17486572,1.125,6.21875,-6.390625,221
222,1696168120959,0.2434082,-0.9776001,-0.003967285,0.578125,17.96875,-11.328125,222
223,1696168120999,0.09472656,-0.95806885,-0.02960205,-7.28125,15.578125,-10.9375,223
224,1696168121039,0.067871094,-0.8936157,-0.08843994,-11.125,14.03125,-11.28125,224
225,1696168121079,0.11767578,-0.8831177,-0.01739502,-9.484375,14.40625,-10.59375,225
226,1696168121119,0.08569336,-0.91119385,0.08123779,0.375,12.296875,-8.3125,226
227,1696168121159,-0.0073242188,-0.8411255,-0.010314941,-6.625,15.640625,-7.390625,227
228,1696168121199,0.018066406,-0.7571411,-0.031311035,-0.640625,14.53125,-10.5625,228
229,1696168121239,0.083984375,-0.8196411,0.03289795,6.15625,7.640625,-4.390625,229
230,1696168121279,0.099853516,-0.8665161,0.015319824,1.375,1.234375,-3.859375,230
231,1696168121319,0.0390625,-0.9656372,-0.030090332,-2.65625,-3.171875,0.515625,231
232,1696168121359,0.06225586,-0.9795532,0.07611084,3.921875,-6.71875,3.421875,232
233,1696168121399,0.026123047,-1.0032349,0.06903076,-3.109375,-9.890625,2.09375,233
234,1696168121439,0.026611328,-1.0100708,0.02947998,-3.484375,-15.3125,2.890625,234
235,1696168121479,-0.076416016,-1.0193481,-0.02960205,4.421875,-13.40625,3.109375,235
236,1696168121519,0.07324219,-1.0886841,0.062438965,6.234375,-1.03125,5.609375,236
237,1696168121559,0.03955078,-1.1526489,-0.032043457,-1.171875,-1.796875,4.046875,237
238,1696168121599,0.060302734,-1.0828247,-0.11920166,5.6875,-0.140625,7.4375,238
239,1696168121639,0.056152344,-1.2293091,-0.03277588,11.8125,1.671875,9.171875,239
240,1696168121679,0.35375977,-1.2703247,-0.04425049,2.984375,0.703125,8.96875,240
241,1696168121719,0.41796875,-0.9624634,-0.1482544,-7.546875,-3.0,9.03125,241
242,1696168121759,0.32470703,-0.8670044,-0.17974854,-1.5,-10.6875,8.6875,242
243,1696168121799,0.2854004,-0.93096924,-0.144104,6.78125,-15.125,7.890625,243
244,1696168121839,0.29614258,-0.92755127,-0.0413208,-3.359375,-6.359375,6.03125,244
245,1696168121879,0.1875,-0.958313,-0.0017700195,-9.046875,2.140625,2.703125,245
246,1696168121919,0.19750977,-0.86065674,-0.0491333,-8.171875,-5.109375,4.203125,246
247,1696168121959,0.32983398,-0.9006958,0.029724121,-2.578125,-9.703125,5.984375,247
248,1696168121999,0.29760742,-0.89190674,0.08880615,-11.828125,-6.359375,0.25,248
249,1696168122039,0.2241211,-0.84454346,0.07537842,-10.515625,-6.890625,2.96875,249
250,1696168122079,0.20458984,-0.815979,0.10101318,-5.703125,-8.90625,4.546875,250
251,1696168122119,0.14868164,-0.817688,0.07098389,-8.140625,-8.078125,1.5625,251
252,1696168122159,0.17333984,-0.8567505,0.11859131,-0.71875,-5.515625,2.578125,252
253,1696168122199,0.140625,-0.81427,0.1930542,-4.75,1.65625,-0.953125,253
254,1696168122239,0.14111328,-0.81988525,0.09832764,-8.40625,-6.109375,-3.90625,254
255,1696168122279,0.1496582,-0.97003174,0.18597412,2.40625,8.671875,-9.46875,255
256,1696168122319,0.22094727,-0.9558716,0.21478271,-2.421875,9.25,-7.328125,256
257,1696168122359,0.23413086,-1.0222778,0.18353271,0.4375,0.21875,-5.3125,257
258,1696168122399,0.31176758,-1.1079712,0.14300537,6.265625,-7.640625,0.8125,258
259,1696168122439,0.13916016,-0.95196533,0.08734131,2.265625,2.796875,-0.296875,259
260,1696168122479,0.104003906,-0.99542236,0.08123779,12.0625,8.53125,-2.484375,260
261,1696168122519,0.3256836,-1.2888794,0.062194824,21.09375,-1.78125,4.203125,261
262,1696168122559,0.3425293,-1.2730103,0.02923584,-5.625,4.71875,-1.65625,262
263,1696168122599,0.27905273,-0.96661377,-0.144104,-2.25,3.390625,1.109375,263
264,1696168122639,0.1640625,-0.8970337,-0.13189697,10.859375,11.765625,0.53125,264
265,1696168122679,0.21289062,-0.880188,-0.19464111,1.546875,20.515625,-3.0,265
266,1696168122719,0.38549805,-1.0127563,-0.16119385,-4.796875,1.21875,-9.71875,266
267,1696168122759,0.31811523,-1.0730591,-0.051086426,6.609375,9.140625,-7.765625,267
268,1696168122799,0.07397461,-0.95880127,-0.15167236,-7.828125,13.234375,-4.71875,268
269,1696168122839,-0.028808594,-0.92755127,-0.10479736,-1.40625,6.875,-5.8125,269
270,1696168122879,0.123535156,-0.95391846,0.039489746,-3.453125,13.078125,-7.5,270
271,1696168122919,0.14941406,-0.9356079,0.020202637,-8.109375,9.09375,-2.390625,271
272,1696168122959,0.13671875,-0.850647,0.0289917,-4.71875,12.953125,-5.0625,272
273,1696168122999,0.024902344,-0.8591919,-0.04156494,-5.109375,13.0,-7.890625,273
274,1696168123039,0.051757812,-0.84869385,0.028259277,-6.59375,0.15625,-4.390625,274
275,1696168123079,0.07470703,-0.8257446,0.0524292,-5.140625,4.609375,-2.171875,275
276,1696168123119,0.075927734,-0.878479,0.019714355,-3.046875,-0.203125,-1.15625,276
277,1696168123159,-0.0048828125,-0.94732666,0.023864746,-9.0625,0.609375,-0.375,277
278,1696168123199,0.044921875,-0.925354,0.010681152,-3.859375,-0.65625,0.34375,278
279,1696168123239,0.032714844,-1.0193481,0.0602417,0.125,-9.96875,2.65625,279
280,1696168123279,0.11816406,-1.0994263,0.013122559,6.9375,-10.5,5.046875,280
281,1696168123319,0.2685547,-1.1748657,0.055114746,2.921875,-0.890625,5.671875,281
282,1696168123359,0.092041016,-1.1472778,0.022888184,0.609375,0.4375,10.265625,282
283,1696168123399,0.118896484,-1.0484009,-0.022277832,2.625,-0.359375,9.609375,283
284,1696168123439,0.20336914,-1.1445923,-0.0010375977,5.1875,-4.96875,6.53125,284
285,1696168123479,0.34277344,-1.0740356,-0.04058838,2.171875,-4.265625,13.46875,285
286,1696168123519,0.33764648,-0.8604126,-0.03668213,1.84375,-4.25,12.296875,286
287,1696168123559,0.24047852,-0.84210205,0.017028809,-3.359375,2.375,5.90625,287
288,1696168123599,0.44262695,-0.90216064,-0.062561035,-6.671875,-20.46875,5.890625,288
289,1696168123639,0.42529297,-0.93096924,0.018981934,-3.515625,-21.65625,3.4375,289
290,1696168123679,0.2565918,-0.9380493,0.082214355,-0.96875,-3.984375,-1.75,290
291,1696168123719,0.23217773,-0.9273071,0.019714355,-0.796875,-18.296875,2.96875,291
292,1696168123759,0.28344727,-0.9365845,0.038757324,3.625,-14.953125,5.578125,292
293,1696168123799,0.35180664,-0.9534302,0.0993042,1.515625,-11.421875,5.046875,293
294,1696168123839,0.32055664,-0.923645,0.13739014,-3.390625,-16.078125,4.0625,294
295,1696168123879,0.2163086,-0.8418579,0.16009521,-2.171875,-12.0,0.96875,295
296,1696168123919,0.10424805,-0.7866821,0.09686279,-4.984375,-8.859375,2.265625,296
297,1696168123959,0.18701172,-0.65948486,0.15570068,-6.875,-4.234375,-0.875,297
298,1696168123999,0.1665039,-0.7319946,0.20159912,3.796875,-1.265625,-2.96875,298
299,1696168124039,0.25927734,-0.9102173,0.21917725,0.0,-5.875,-1.984375,299
300,1696168124079,0.122558594,-0.92681885,0.20404053,-0.40625,8.234375,-8.90625,300
301,1696168124119,0.13256836,-1.0003052,0.009216309,5.53125,5.0,-5.84375,301
302,1696168124159,0.45996094,-1.0664673,0.121032715,4.9375,-4.234375,3.984375,302
303,1696168124199,0.37329102,-1.2263794,0.2020874,7.546875,9.953125,-0.65625,303
304,1696168124239,0.26049805,-1.1499634,-0.027648926,-7.6875,3.9375,-10.8125,304
305,1696168124279,0.19335938,-1.2703247,-0.018859863,13.59375,2.703125,-3.484375,305
306,1696168124319,0.29541016,-1.2053833,0.018981934,8.96875,15.796875,-4.484375,306
307,1696168124359,0.33813477,-0.99176025,-0.09185791,-7.3125,18.140625,-7.921875,307
308,1696168124399,0.22753906,-0.8701782,-0.2312622,-8.015625,18.03125,-4.328125,308
309,1696168124439,0.24902344,-0.84576416,-0.26324463,-0.265625,14.90625,-8.578125,309
310,1696168124479,0.21899414,-0.9590454,-0.0015258789,-13.59375,12.75,-16.484375,310
311,1696168124519,0.18823242,-0.96832275,0.11517334,-11.28125,6.453125,-12.375,311
312,1696168124559,0.08544922,-0.92633057,-0.0256958,-3.59375,11.828125,-3.296875,312
313,1696168124599,0.052490234,-0.8567505,-0.047180176,-5.015625,7.75,-8.421875,313
314,1696168124639,0.028564453,-0.85772705,0.05267334,4.5,11.9375,-7.453125,314
315,1696168124679,0.06347656,-0.8904419,0.11224365,2.703125,13.796875,-4.03125,315
316,1696168124719,0.08300781,-0.90460205,0.05291748,-0.921875,14.125,-6.109375,316
317,1696168124759,0.036865234,-0.89263916,0.04437256,-6.078125,2.9375,-8.296875,317
318,1696168124799,0.057373047,-0.87042236,0.06390381,-4.109375,0.828125,-6.046875,318
319,1696168124839,-0.060058594,-0.8850708,0.10101318,-8.0,1.390625,-4.515625,319
320,1696168124879,0.0390625,-0.89923096,0.11077881,-6.375,-6.109375,0.75,320
321,1696168124919,0.0871582,-0.92071533,0.10858154,-7.65625,-6.828125,2.921875,321
322,1696168124959,0.040771484,-0.98150635,0.08929443,-3.328125,-7.625,4.625,322
323,1696168124999,-0.012451172,-1.1384888,0.051940918,7.375,-5.984375,1.796875,323
324,1696168125039,0.09277344,-1.15094,0.13275146,7.140625,2.375,11.3125,324
325,1696168125079,0.20654297,-1.1487427,0.0048217773,-1.09375,-2.09375,11.859375,325
326,1696168125119,0.08203125,-1.2195435,0.042663574,4.3125,1.4375,8.84375,326
327,1696168125159,0.16674805,-1.1599731,0.0038452148,9.109375,-2.578125,13.734375,327
328,1696168125199,0.27490234,-0.991272,-0.007873535,6.734375,2.9375,10.671875,328
329,1696168125239,0.28198242,-0.866272,-0.03326416,2.640625,7.75,8.125,329
330,1696168125279,0.28637695,-0.8694458,-0.06768799,-0.5625,2.015625,6.5625,330
331,1696168125319,0.33740234,-0.8699341,-0.03643799,0.734375,-7.71875,4.015625,331
332,1696168125359,0.34521484,-0.9314575,-0.031799316,5.390625,-8.6875,3.28125,332
333,1696168125399,0.32763672,-1.0193481,-0.002746582,3.59375,-5.546875,0.4375,333
334,1696168125439,0.21728516,-1.0430298,-0.009094238,-6.3125,-11.3125,-0.09375,334
335,1696168125479,0.20532227,-0.881897,0.039245605,-1.171875,-2.203125,5.859375,335
336,1696168125519,0.41137695,-0.9314575,0.019470215,3.78125,-17.34375,8.421875,336
337,1696168125559,0.37451172,-0.95196533,0.1281128,-7.0,-16.453125,3.671875,337
338,1696168125599,0.16870117,-0.8062134,0.12030029,-9.953125,-7.578125,5.78125,338
339,1696168125639,0.14624023,-0.7280884,0.08123779,-8.46875,-14.9375,4.78125,339
340,1696168125679,0.14990234,-0.69610596,0.20184326,0.578125,-8.265625,2.34375,340
341,1696168125719,0.22436523,-0.8418579,0.19378662,3.421875,-10.015625,4.6875,341
342,1696168125759,0.19458008,-0.9336548,0.16473389,3.203125,0.109375,1.046875,342
343,1696168125799,0.076416016,-1.0044556,0.070739746,4.9375,3.671875,-4.0,343
344,1696168125839,0.16918945,-0.9319458,0.15814209,-3.9375,13.6875,-11.1875,344
345,1696168125879,0.24194336,-0.9873657,0.07684326,12.90625,12.34375,-3.234375,345
346,1696168125919,0.45996094,-0.9932251,0.121276855,-5.28125,-3.125,3.6875,346
347,1696168125959,0.265625,-0.954895,0.07513428,-1.3125,15.09375,-3.953125,347
348,1696168125999,0.15820312,-1.1465454,0.05633545,-0.796875,4.9375,-8.078125,348
349,1696168126039,0.36767578,-1.328186,0.042175293,14.046875,-2.25,-1.390625,349
350,1696168126079,0.39941406,-1.3565063,0.06072998,-4.03125,13.875,-3.765625,350
351,1696168126119,0.23242188,-0.9624634,-0.081848145,-6.390625,20.796875,-4.484375,351
352,1696168126159,0.16308594,-0.7984009,-0.19390869,0.40625,18.40625,-0.828125,352
353,1696168126199,0.31591797,-0.88726807,-0.17340088,-5.375,4.203125,-6.671875,353
354,1696168126239,0.29858398,-0.9890747,-0.06939697,-3.59375,9.703125,-16.40625,354
355,1696168126279,0.125,-1.0093384,-0.020812988,-8.359375,9.4375,-15.859375,355
356,1696168126319,0.03930664,-0.90704346,-0.028869629,-0.9375,6.9375,-9.1875,356
357,1696168126359,0.11694336,-0.87994385,-0.027160645,-4.8125,5.140625,-6.40625,357
358,1696168126399,0.08129883,-0.8657837,0.053649902,-2.90625,4.625,-7.375,358
359,1696168126439,0.029785156,-0.8296509,0.027282715,-3.21875,11.109375,-7.515625,359
360,1696168126479,0.09814453,-0.83428955,0.027282715,2.671875,8.953125,-6.0625,360
361,1696168126519,0.06762695,-0.8772583,0.025817871,2.015625,3.828125,-5.9375,361
362,1696168126559,0.015625,-0.84991455,0.029968262,-2.109375,2.59375,-1.875,362
363,1696168126599,-0.022705078,-0.9607544,0.040222168,-2.015625,-4.296875,-0.65625,363
364,1696168126639,-0.021240234,-0.93463135,0.03729248,3.1875,-5.9375,1.84375,364
365,1696168126679,0.021972656,-0.9104614,0.11810303,0.765625,2.609375,4.140625,365
366,1696168126719,0.083740234,-0.9927368,0.034851074,-3.9375,-5.546875,1.859375,366
367,1696168126759,0.10180664,-1.1004028,0.0036010742,1.421875,-14.296875,5.203125,367
368,1696168126799,0.123535156,-1.163147,0.074645996,8.0,1.25,12.21875,368
369,1696168126839,0.033203125,-1.1904907,-0.0635376,2.28125,-3.15625,6.375,369
370,1696168126879,0.16040039,-1.2185669,-0.023010254,11.53125,-2.671875,9.796875,370
371,1696168126919,0.27734375,-1.1653442,-0.046203613,2.1875,-2.0625,11.0,371
372,1696168126959,0.3486328,-1.0564575,-0.09088135,-1.328125,-6.3125,12.53125,372
373,1696168126999,0.3256836,-0.8040161,-0.12823486,-7.734375,-2.546875,10.953125,373
374,1696168127039,0.3996582,-0.835022,-0.06890869,-0.421875,-13.625,9.90625,374
375,1696168127079,0.45483398,-0.92974854,-0.04498291,6.140625,-24.390625,9.28125,375
376,1696168127119,0.3305664,-0.92974854,0.08416748,-4.8125,-10.390625,3.71875,376
377,1696168127159,0.17993164,-0.93170166,-0.00592041,-5.125,-7.046875,1.09375,377
378,1696168127199,0.22338867,-0.82159424,-0.03643799,11.578125,-14.328125,10.71875,378
379,1696168127239,0.359375,-0.9380493,0.0018920898,11.578125,-24.046875,11.859375,379
380,1696168127279,0.24047852,-0.8052368,0.19525146,-17.765625,-4.828125,-1.046875,380
381,1696168127319,0.17480469,-0.8340454,0.07342529,4.984375,-9.890625,1.140625,381
382,1696168127359,0.19848633,-0.76519775,0.08074951,-14.46875,-9.1875,0.109375,382
383,1696168127399,0.20361328,-0.79278564,0.16156006,3.9375,3.390625,-0.5,383
384,1696168127439,0.25463867,-0.8057251,0.11785889,-0.375,-7.765625,2.578125,384
385,1696168127479,0.25683594,-0.8948364,0.17523193,-0.40625,3.046875,-3.125,385
386,1696168127519,0.16210938,-0.9780884,0.18377686,-8.375,8.359375,-11.625,386
387,1696168127559,0.15429688,-0.8303833,0.008239746,9.9375,11.734375,-4.15625,387
388,1696168127599,0.4399414,-1.0652466,-0.0076293945,8.6875,0.171875,7.140625,388
389,1696168127639,0.43017578,-1.3357544,0.16766357,-12.359375,1.46875,-1.59375,389
390,1696168127679,0.19946289,-1.166565,-0.04058838,3.8125,9.75,-9.390625,390
391,1696168127719,0.2614746,-1.0151978,-0.116760254,14.890625,12.328125,1.328125,391
392,1696168127759,0.43237305,-1.1113892,0.0524292,6.6875,14.65625,-0.890625,392
393,1696168127799,0.2800293,-0.96539307,-0.10211182,0.109375,18.296875,-2.796875,393
394,1696168127839,0.20825195,-0.77227783,-0.3184204,0.703125,19.96875,-3.265625,394
395,1696168127879,0.14038086,-0.87091064,-0.24371338,8.234375,13.96875,-11.140625,395
396,1696168127919,0.328125,-1.0654907,-0.04156494,-9.859375,8.015625,-11.3125,396
397,1696168127959,0.30664062,-0.9949341,-0.02130127,-6.0625,7.015625,-11.953125,397
398,1696168127999,0.15576172,-0.96221924,-0.11505127,-6.453125,3.5,-10.046875,398
399,1696168128039,0.024902344,-0.8999634,-0.04083252,-2.71875,7.40625,-8.46875,399
400,1696168128079,0.053466797,-0.9993286,-0.003967285,3.84375,7.984375,-5.234375,400
401,1696168128119,0.10498047,-0.89678955,0.030456543,-0.734375,8.203125,-11.125,401
402,1696168128159,0.05908203,-0.850647,-0.012268066,-4.921875,17.53125,-9.828125,402
403,1696168128199,0.06762695,-0.92633057,-0.003967285,-5.8125,13.984375,-9.140625,403
404,1696168128239,0.033935547,-0.7918091,0.027770996,-13.84375,1.90625,-4.515625,404
405,1696168128279,0.011474609,-0.80670166,-0.047912598,-8.71875,1.515625,-1.5,405
406,1696168128319,0.036132812,-0.96051025,0.023864746,-6.796875,-1.078125,-4.6875,406
407,1696168128359,0.030761719,-1.0591431,0.04486084,-14.0625,-10.515625,-3.375,407
408,1696168128399,0.11425781,-1.0110474,0.04144287,-7.734375,-7.71875,1.953125,408
409,1696168128439,0.036865234,-0.96221924,0.02142334,-0.21875,-6.40625,2.15625,409
410,1696168128479,0.033691406,-0.9495239,0.08538818,-0.484375,-0.5625,7.15625,410
411,1696168128519,0.064697266,-1.1187134,-0.07940674,-2.15625,-11.578125,3.890625,411
412,1696168128559,0.15625,-1.2359009,-0.054260254,4.578125,-3.125,1.84375,412
413,1696168128599,0.19116211,-1.329895,0.074401855,2.40625,0.984375,6.0625,413
414,1696168128639,0.23095703,-1.2073364,0.019470215,0.03125,1.15625,9.359375,414
415,1696168128679,0.25219727,-0.9505005,-0.13970947,6.171875,-4.640625,10.984375,415
416,1696168128719,0.29296875,-0.8308716,-0.062805176,-1.421875,-6.1875,11.921875,416
417,1696168128759,0.39282227,-0.8882446,0.04510498,-2.5,-15.8125,6.5,417
418,1696168128799,0.32055664,-0.960022,0.008728027,1.078125,-18.984375,5.015625,418
419,1696168128839,0.1538086,-0.9553833,0.05706787,0.296875,-9.75,6.75,419
420,1696168128879,0.14648438,-0.86724854,0.04534912,-4.296875,-8.71875,2.71875,420
421,1696168128919,0.29614258,-0.90093994,0.03656006,6.6875,-15.859375,5.109375,421
422,1696168128959,0.27807617,-0.86016846,0.05316162,3.328125,-9.109375,8.0625,422
423,1696168128999,0.30371094,-0.9116821,0.004333496,-0.90625,-8.78125,7.03125,423
424,1696168129039,0.2409668,-0.8533325,0.20648193,-5.921875,-3.9375,0.109375,424
425,1696168129079,0.13012695,-0.835022,0.09686279,-4.8125,-12.34375,-0.546875,425
426,1696168129119,0.118896484,-0.75567627,0.06707764,-3.40625,-5.84375,1.109375,426
427,1696168129159,0.11645508,-0.7715454,0.14251709,2.625,6.109375,-1.171875,427
428,1696168129199,0.26538086,-0.9505005,0.17718506,0.953125,1.15625,-4.171875,428
429,1696168129239,0.23071289,-0.97247314,0.24310303,-13.09375,5.390625,-8.8125,429
430,1696168129279,0.12036133,-1.0090942,0.039245605,2.53125,7.84375,-1.703125,430
431,1696168129319,0.3605957,-1.0325317,0.054138184,1.65625,-5.0,4.96875,431
432,1696168129359,0.26342773,-0.864563,0.16571045,-0.40625,16.078125,-3.34375,432
433,1696168129399,0.19995117,-1.0459595,0.07342529,-2.125,7.21875,0.0625,433
434,1696168129439,0.33935547,-1.2454224,-0.024719238,9.328125,-1.734375,4.84375,434
435,1696168129479,0.38061523,-1.3213501,0.020690918,11.390625,9.46875,-3.546875,435
436,1696168129519,0.34326172,-1.1814575,0.0038452148,-4.171875,15.34375,-1.75,436
437,1696168129559,0.24829102,-1.0005493,-0.09259033,-5.078125,17.625,-3.484375,437
438,1696168129599,0.08105469,-0.8286743,-0.21392822,1.5,23.328125,-7.359375,438
439,1696168129639,0.16625977,-0.8491821,-0.22662354,-1.78125,16.453125,-8.609375,439
440,1696168129679,0.3125,-0.88653564,-0.024719238,-13.203125,8.78125,-8.265625,440
441,1696168129719,0.25048828,-0.9475708,0.07489014,-3.0625,7.90625,-10.625,441
442,1696168129759,0.030029297,-0.83917236,-0.031555176,2.21875,9.546875,-6.984375,442
443,1696168129799,-0.016601562,-0.89923096,-0.10675049,-1.890625,8.015625,-5.125,443
444,1696168129839,0.1665039,-0.8562622,0.05340576,3.875,4.703125,-3.703125,444
445,1696168129879,0.12939453,-0.91900635,0.07537842,5.453125,7.578125,-6.953125,445
446,1696168129919,-0.008300781,-0.90631104,0.02557373,6.203125,5.609375,-8.5625,446
447,1696168129959,-0.046142578,-0.88067627,-0.043762207,-0.96875,2.8125,-5.078125,447
448,1696168129999,0.040527344,-0.88482666,0.030456543,-1.078125,-0.171875,-1.640625,448
449,1696168130039,0.11254883,-0.89727783,0.058288574,-8.53125,1.265625,-3.328125,449
450,1696168130079,-0.037353516,-0.9187622,0.018737793,-2.9375,2.953125,-3.234375,450
451,1696168130119,0.014160156,-1.0122681,-0.011291504,1.9375,-8.015625,-1.03125,451
452,1696168130159,0.072753906,-1.0698853,0.00970459,-2.453125,-8.390625,-0.234375,452
453,1696168130199,0.060546875,-1.0344849,0.050476074,0.203125,-1.9375,1.765625,453
454,1696168130239,0.08129883,-1.0930786,-0.017150879,7.6875,0.453125,3.921875,454
455,1696168130279,0.13232422,-1.1326294,-0.05328369,-2.21875,-7.890625,6.015625,455
456,1696168130319,0.20410156,-1.1587524,0.012390137,12.171875,2.140625,12.703125,456
457,1696168130359,0.23022461,-1.312561,-0.08062744,9.84375,-2.6875,9.625,457
458,1696168130399,0.2890625,-1.123352,-0.13189697,-4.65625,-14.109375,11.765625,458
459,1696168130439,0.33911133,-0.8411255,-0.09869385,-4.953125,-2.375,9.609375,459
460,1696168130479,0.27294922,-0.8740845,-0.07110596,-6.921875,-6.265625,6.953125,460
461,1696168130519,0.27514648,-0.8855591,-0.0791626,-6.203125,-26.03125,7.453125,461
462,1696168130559,0.26245117,-0.91656494,0.090270996,-0.71875,-17.828125,4.75,462
463,1696168130599,0.2512207,-0.9734497,0.036071777,-6.34375,-5.796875,1.28125,463
464,1696168130639,0.28686523,-0.87628174,0.022888184,-0.953125,-12.375,2.984375,464
465,1696168130679,0.22607422,-0.84625244,0.036315918,5.34375,-12.171875,5.078125,465
466,1696168130719,0.25024414,-0.83795166,0.090026855,3.0625,-10.34375,6.5,466
467,1696168130759,0.33862305,-0.88165283,0.101501465,-1.328125,-11.90625,4.640625,467
468,1696168130799,0.23291016,-0.82281494,0.15252686,0.15625,-2.859375,-3.21875,468
469,1696168130839,0.09790039,-0.8257446,0.093444824,-3.09375,0.296875,-2.140625,469
470,1696168130879,0.1171875,-0.83966064,0.050964355,-7.109375,-4.28125,-1.71875,470
471,1696168130919,0.14111328,-0.8530884,0.13519287,-4.734375,5.28125,-5.375,471
472,1696168130959,0.22827148,-0.93463135,0.17572021,-2.40625,6.0,-7.0,472
473,1696168130999,0.2290039,-0.9614868,0.17840576,-1.171875,7.109375,-6.34375,473
474,1696168131039,0.2290039,-0.9192505,0.07513428,-5.484375,2.0,-3.90625,474
475,1696168131079,0.23583984,-1.0449829,0.03753662,5.0,3.265625,-1.15625,475
476,1696168131119,0.24511719,-1.05719,0.09515381,8.515625,1.109375,1.0,476
477,1696168131159,0.2709961,-1.0610962,0.14642334,1.890625,4.625,-1.015625,477
478,1696168131199,0.31030273,-1.2402954,0.06390381,6.828125,-0.796875,-3.5625,478
479,1696168131239,0.3720703,-1.2879028,-0.06109619,7.53125,-7.46875,0.703125,479
480,1696168131279,0.21899414,-1.2354126,-0.10748291,4.0,17.859375,-1.21875,480
481,1696168131319,0.17260742,-0.8357544,-0.012512207,-1.578125,25.984375,-6.34375,481
482,1696168131359,0.1394043,-0.7749634,-0.25299072,-0.765625,9.515625,-5.546875,482
483,1696168131399,0.30493164,-0.88409424,-0.23736572,-6.3125,6.9375,-6.578125,483
484,1696168131439,0.23071289,-1.0425415,0.03704834,1.46875,9.734375,-4.5625,484
485,1696168131479,0.1003418,-1.045227,0.061706543,-1.46875,8.953125,-10.390625,485
486,1696168131519,0.038085938,-0.9151001,-0.11187744,-9.359375,8.09375,-7.1875,486
487,1696168131559,0.075683594,-0.8389282,-0.024963379,-3.578125,9.375,-4.203125,487
488,1696168131599,0.1459961,-0.8513794,0.034606934,7.890625,10.15625,-5.4375,488
489,1696168131639,0.05419922,-0.913147,0.010437012,3.265625,8.90625,-7.5625,489
490,1696168131679,0.036621094,-0.878479,0.008483887,0.90625,7.75,-5.03125,490
491,1696168131719,0.00390625,-0.8296509,0.011413574,-4.125,5.296875,-3.796875,491
492,1696168131759,0.008300781,-0.8467407,0.043640137,0.828125,6.28125,-2.6875,492
493,1696168131799,0.012451172,-0.8977661,-0.02178955,-3.078125,0.5,1.296875,493
494,1696168131839,0.0949707,-0.8960571,0.028015137,-7.328125,-3.78125,0.703125,494
495,1696168131879,0.0859375,-1.0278931,0.030700684,1.640625,-8.765625,-2.671875,495
496,1696168131919,0.037109375,-1.1155396,-0.035949707,0.28125,-11.96875,7.046875,496
497,1696168131959,0.16259766,-1.0274048,0.024597168,-2.671875,-1.875,5.796875,497
498,1696168131999,0.16552734,-1.1946411,-0.03375244,-3.15625,-1.953125,1.609375,498
499,1696168132039,0.05810547,-1.1619263,-0.0647583,3.125,-0.921875,6.125,499
500,1696168132079,0.1850586,-1.218811,-0.023498535,6.34375,1.515625,8.5625,500
501,1696168132119,0.29614258,-1.0591431,-0.07501221,-5.3125,-5.5625,9.8125,501
502,1696168132159,0.2685547,-0.8518677,-0.059143066,-0.140625,2.515625,10.6875,502
503,1696168132199,0.34716797,-0.87945557,-0.10772705,-3.15625,5.0,8.8125,503
504,1696168132239,0.42138672,-1.0046997,-0.04498291,-15.546875,-29.46875,8.0,504
505,1696168132279,0.35302734,-0.91973877,0.12200928,-8.796875,-13.21875,4.828125,505
506,1696168132319,0.11669922,-0.9067993,0.04949951,-7.4375,-6.703125,-0.828125,506
507,1696168132359,0.18359375,-0.93096924,-0.020080566,-4.90625,-16.625,4.015625,507
508,1696168132399,0.26367188,-0.8230591,0.13861084,-3.46875,-4.09375,8.59375,508
509,1696168132439,0.3630371,-0.90338135,0.10321045,-0.359375,-12.125,9.359375,509
510,1696168132479,0.36743164,-0.7805786,0.14520264,-3.296875,-15.109375,7.4375,510
511,1696168132519,0.19482422,-0.815979,0.11566162,4.625,-14.890625,10.640625,511
512,1696168132559,0.1274414,-0.84503174,0.14349365,1.875,-10.46875,5.25,512
513,1696168132599,0.08886719,-0.8389282,0.1305542,-1.90625,-4.09375,-0.8125,513
514,1696168132639,0.1850586,-0.8274536,0.25360107,-2.4375,-0.34375,-1.46875,514
515,1696168132679,0.19116211,-0.82037354,0.20111084,-1.328125,7.859375,-1.609375,515
516,1696168132719,0.27075195,-0.82525635,0.16766357,1.796875,4.296875,-2.78125,516
517,1696168132759,0.26123047,-1.0144653,0.18157959,8.890625,1.796875,-6.5,517
518,1696168132799,0.3684082,-1.2129517,0.077819824,7.640625,-4.609375,6.0625,518
519,1696168132839,0.38452148,-1.0823364,0.07489014,5.984375,7.359375,0.828125,519
520,1696168132879,0.28125,-1.0586548,0.010192871,-2.8125,8.265625,-9.578125,520
521,1696168132919,0.2915039,-1.2356567,0.113708496,12.171875,4.171875,-3.625,521
522,1696168132959,0.38305664,-1.3394165,-0.05255127,15.640625,8.625,-2.5625,522
523,1696168132999,0.36499023,-1.0725708,-0.17486572,-13.703125,11.234375,-3.96875,523
524,1696168133039,0.19580078,-0.8230591,-0.27349854,1.6875,13.515625,-1.390625,524
525,1696168133079,0.27612305,-0.81256104,-0.2234497,15.640625,10.25,-4.96875,525
526,1696168133119,0.3088379,-0.8753052,0.03704834,-8.328125,11.03125,-12.5,526
527,1696168133159,0.22875977,-0.9517212,0.066345215,-9.109375,-0.453125,-9.78125,527
528,1696168133199,0.076416016,-0.8701782,-0.08062744,2.640625,4.1875,-6.5625,528
529,1696168133239,0.02368164,-0.9146118,-0.11016846,3.984375,4.625,-7.671875,529
530,1696168133279,0.064697266,-0.8550415,-0.03692627,0.921875,4.765625,-7.515625,530
531,1696168133319,0.09814453,-0.91241455,0.028259277,-0.75,13.5625,-5.390625,531
532,1696168133359,0.12207031,-0.83966064,0.027038574,-9.015625,15.71875,-4.515625,532
533,1696168133399,0.12768555,-0.85723877,-0.07183838,-4.875,10.765625,-4.15625,533
534,1696168133439,0.115234375,-0.9133911,-0.0115356445,-6.25,-2.859375,-6.15625,534
535,1696168133479,0.0068359375,-0.93218994,0.05633545,0.421875,4.9375,-4.171875,535
536,1696168133519,-0.030517578,-0.94854736,0.0036010742,1.046875,-0.828125,1.109375,536
537,1696168133559,0.14135742,-0.9871216,0.038513184,-3.265625,-0.890625,-1.734375,537
538,1696168133599,0.12548828,-1.0037231,0.0099487305,-9.0625,-4.890625,-1.484375,538
539,1696168133639,0.017089844,-0.9885864,-0.021057129,-0.21875,-10.375,2.421875,539
540,1696168133679,0.171875,-1.00177,-0.024475098,12.78125,3.578125,5.96875,540
541,1696168133719,0.32006836,-1.3633423,-0.08477783,2.28125,-8.65625,1.0625,541
542,1696168133759,0.1887207,-1.1919556,0.008239746,4.203125,5.765625,9.15625,542
543,1696168133799,0.15161133,-1.1431274,-0.09991455,-0.21875,5.765625,8.375,543
544,1696168133839,0.24902344,-1.0020142,-0.03253174,0.734375,-2.203125,9.046875,544
545,1696168133879,0.32250977,-0.8814087,-0.08428955,-0.34375,7.453125,8.1875,545
546,1696168133919,0.32128906,-0.90948486,-0.06939697,-12.78125,-4.984375,5.84375,546
547,1696168133959,0.36938477,-0.9302368,-0.06768799,-5.546875,-13.28125,7.796875,547
548,1696168133999,0.30126953,-0.8706665,-0.013000488,-6.984375,-6.859375,1.84375,548
549,1696168134039,0.24072266,-0.99224854,0.00970459,-8.046875,-6.3125,-2.90625,549
550,1696168134079,0.18945312,-0.87164307,0.093444824,-8.765625,-2.921875,3.6875,550
551,1696168134119,0.33007812,-0.87579346,0.045837402,1.765625,-6.125,7.515625,551
552,1696168134159,0.3635254,-0.862854,0.028503418,-7.125,-8.109375,10.796875,552
553,1696168134199,0.3371582,-0.8609009,0.10296631,-1.078125,-10.703125,2.5625,553
554,1696168134239,0.17749023,-0.79937744,0.11639404,-16.71875,-8.25,-1.515625,554
555,1696168134279,0.17749023,-0.7654419,0.15374756,-1.09375,-6.9375,4.90625,555
556,1696168134319,0.18066406,-0.87213135,0.14251709,-2.078125,-4.6875,1.96875,556
557,1696168134359,0.22851562,-0.82818604,0.20672607,-1.359375,-1.828125,1.25,557
558,1696168134399,0.21606445,-0.91192627,0.16766357,4.71875,5.109375,-4.5,558
559,1696168134439,0.14794922,-0.9229126,0.17474365,-0.703125,6.484375,-6.296875,559
560,1696168134479,0.23388672,-0.9338989,0.15570068,0.453125,3.734375,-8.015625,560
561,1696168134519,0.27075195,-1.0796509,0.06097412,14.515625,6.34375,0.1875,561
562,1696168134559,0.37670898,-1.1104126,0.09222412,-5.234375,2.078125,6.0625,562
563,1696168134599,0.34350586,-1.1863403,0.10394287,4.671875,11.921875,-8.8125,563
564,1696168134639,0.27124023,-1.2168579,0.051208496,3.765625,-0.1875,-5.796875,564
565,1696168134679,0.28173828,-1.1121216,-0.018127441,0.484375,15.0625,3.53125,565
566,1696168134719,0.31347656,-0.93414307,-0.101135254,0.546875,23.5,-5.234375,566
567,1696168134759,0.1394043,-0.9553833,-0.3098755,-14.0,21.359375,-4.09375,567
568,1696168134799,0.2944336,-0.7827759,-0.15338135,-8.03125,11.1875,-1.5625,568
569,1696168134839,0.35083008,-0.94781494,-0.0005493164,2.828125,-0.109375,-9.328125,569
570,1696168134879,0.1928711,-0.99468994,0.051452637,0.328125,3.078125,-5.28125,570
571,1696168134919,0.17602539,-0.93951416,-0.0010375977,-4.5,-1.546875,-4.296875,571
572,1696168134959,0.1303711,-0.96832275,-0.015930176,9.625,-3.046875,-5.234375,572
573,1696168134999,0.09350586,-0.9458618,0.06878662,0.65625,1.609375,-7.015625,573
574,1696168135039,0.061767578,-0.8875122,-0.0068969727,-0.609375,7.203125,-8.59375,574
575,1696168135079,0.025634766,-0.8128052,-0.051818848,-6.3125,3.84375,-8.34375,575
576,1696168135119,0.06713867,-0.7871704,0.046813965,-1.28125,7.84375,-6.390625,576
577,1696168135159,0.14282227,-0.90997314,0.070007324,5.515625,1.234375,-4.71875,577
578,1696168135199,0.08618164,-0.86798096,0.05267334,-5.796875,-7.6875,-1.0,578
579,1696168135239,0.080566406,-0.84576416,0.066833496,-2.25,-9.65625,-1.265625,579
580,1696168135279,0.026611328,-1.0044556,0.090270996,5.890625,-4.078125,-0.78125,580
581,1696168135319,0.04321289,-1.1033325,0.002380371,-13.078125,-20.953125,1.296875,581
582,1696168135359,0.11425781,-1.0706177,0.028747559,4.5625,-5.359375,4.046875,582
583,1696168135399,0.17797852,-1.1670532,0.13665771,6.8125,2.84375,10.0625,583
584,1696168135439,0.22558594,-1.3140259,-0.007385254,2.265625,-5.375,4.515625,584
585,1696168135479,0.26757812,-1.1206665,-0.10748291,1.53125,6.1875,9.078125,585
586,1696168135519,0.33374023,-1.0742798,-0.074035645,1.6875,-10.484375,11.5625,586
587,1696168135559,0.34326172,-0.97125244,-0.032287598,3.109375,-9.109375,7.484375,587
588,1696168135599,0.23925781,-0.82525635,-0.03741455,-1.0,-1.671875,5.21875,588
589,1696168135639,0.3005371,-0.8765259,-0.11602783,0.203125,-9.578125,5.90625,589
590,1696168135679,0.32470703,-0.95880127,-0.066711426,-3.9375,-11.453125,3.5625,590
591,1696168135719,0.3330078,-0.8989868,0.14764404,-15.890625,-4.96875,-3.375,591
592,1696168135759,0.17871094,-0.85943604,0.07879639,-6.046875,-1.859375,-0.59375,592
593,1696168135799,0.2290039,-0.8833618,0.010437012,6.609375,-15.09375,8.484375,593
594,1696168135839,0.33374023,-0.92315674,0.049987793,-1.84375,-6.984375,8.0,594
595,1696168135879,0.28125,-0.8731079,0.17376709,-7.515625,-4.3125,4.046875,595
596,1696168135919,0.24633789,-0.8928833,0.11517334,-8.0625,-13.453125,4.03125,596
597,1696168135959,0.19921875,-0.8389282,0.12689209,-9.984375,-7.4375,3.328125,597
598,1696168135999,0.22827148,-0.82281494,0.16815186,-4.828125,-6.328125,1.828125,598
599,1696168136039,0.23901367,-0.7871704,0.23626709,0.3125,-2.078125,-2.109375,599
600,1696168136079,0.25,-0.8897095,0.16448975,2.046875,-6.421875,-1.09375,600
601,1696168136119,0.1772461,-0.9299927,0.20892334,-4.96875,-0.53125,-5.90625,601
602,1696168136159,0.12109375,-0.8074341,0.1864624,-0.09375,6.0625,-8.09375,602
603,1696168136199,0.09423828,-0.8726196,0.031188965,13.421875,3.78125,0.046875,603
604,1696168136239,0.30566406,-1.0476685,0.07879639,2.375,7.6875,5.15625,604
605,1696168136279,0.35473633,-1.1416626,0.1564331,9.921875,17.109375,-2.296875,605
606,1696168136319,0.26489258,-1.116272,0.059020996,5.484375,7.1875,-5.078125,606
607,1696168136359,0.34838867,-1.2949829,0.012145996,12.75,8.265625,4.015625,607
608,1696168136399,0.47338867,-1.2815552,0.02947998,5.515625,9.421875,0.34375,608
609,1696168136439,0.4020996,-1.1101685,-0.036193848,-7.859375,14.3125,-1.90625,609
610,1696168136479,0.31054688,-0.9302368,-0.14923096,-6.21875,12.46875,3.1875,610
611,1696168136519,0.109375,-0.78302,-0.18145752,-9.328125,11.421875,-4.0625,611
612,1696168136559,0.2902832,-0.91363525,-0.040100098,1.0625,10.140625,-11.234375,612
613,1696168136599,0.16967773,-0.9920044,-0.012512207,4.984375,16.921875,-7.734375,613
614,1696168136639,0.16357422,-0.97662354,-0.031311035,-2.53125,11.8125,-6.90625,614
615,1696168136679,0.16113281,-0.80255127,-0.04547119,-12.734375,6.515625,-6.046875,615
616,1696168136719,0.1105957,-0.83795166,0.070251465,3.1875,10.984375,-7.5625,616
617,1696168136759,0.052490234,-0.88360596,0.04534912,7.046875,17.578125,-8.6875,617
618,1696168136799,-0.009765625,-0.93048096,-0.00982666,2.90625,15.515625,-6.375,618
619,1696168136839,0.13061523,-0.8530884,0.023864746,0.125,7.25,-5.234375,619
620,1696168136879,0.1459961,-0.7971802,0.046569824,-6.203125,5.375,-4.28125,620
621,1696168136919,0.0009765625,-0.84381104,0.018981934,-7.890625,1.28125,-5.296875,621
622,1696168136959,-0.057373047,-0.9092407,-0.023742676,-1.890625,3.5,-3.8125,622
623,1696168136999,0.07885742,-0.93927,0.055603027,-4.765625,-5.21875,1.890625,623
624,1696168137039,0.25683594,-1.0335083,0.07757568,0.15625,-7.859375,2.453125,624
625,1696168137079,0.17675781,-1.131897,0.0067749023,-3.0,-4.734375,-0.75,625
626,1696168137119,0.017822266,-1.1560669,-0.058654785,-1.171875,-0.75,4.53125,626
627,1696168137159,0.16772461,-1.3062134,0.030700684,9.21875,-0.625,10.046875,627
628,1696168137199,0.39819336,-1.27594,0.01776123,-3.53125,-1.9375,11.390625,628
629,1696168137239,0.3388672,-0.97540283,-0.13165283,6.90625,3.640625,16.578125,629
630,1696168137279,0.32226562,-0.8411255,-0.06842041,-4.453125,-14.296875,13.765625,630
631,1696168137319,0.37817383,-0.86016846,-0.030334473,-4.234375,-14.15625,7.015625,631
632,1696168137359,0.47387695,-0.91412354,-0.09698486,6.328125,-14.53125,10.21875,632
633,1696168137399,0.40161133,-0.93634033,-0.070129395,-5.25,-20.375,4.546875,633
634,1696168137439,0.15917969,-0.8843384,0.0016479492,-0.515625,-13.125,-1.1875,634
635,1696168137479,0.2548828,-0.95513916,0.061950684,1.8125,-18.28125,3.515625,635
636,1696168137519,0.34472656,-0.90875244,0.06878662,2.734375,-17.65625,6.015625,636
637,1696168137559,0.42700195,-0.9002075,0.042175293,-2.109375,-15.421875,4.296875,637
638,1696168137599,0.30639648,-0.92266846,0.10296631,0.140625,-16.109375,0.28125,638
639,1696168137639,0.18334961,-0.83966064,0.12322998,-6.671875,-16.40625,-0.71875,639
640,1696168137679,0.11401367,-0.7149048,0.13421631,-4.875,-6.5,-1.421875,640
641,1696168137719,0.19995117,-0.76568604,0.121032715,-3.359375,-15.3125,-0.453125,641
642,1696168137759,0.20629883,-0.7632446,0.21600342,-4.640625,-1.734375,-4.34375,642
643,1696168137799,0.18701172,-0.77545166,0.19134521,10.515625,1.1875,-3.46875,643
644,1696168137839,0.19897461,-0.9727173,0.14984131,0.375,1.34375,-9.296875,644
645,1696168137879,0.20703125,-1.0293579,0.2802124,-2.796875,7.359375,-14.4375,645
646,1696168137919,0.11279297,-0.96954346,0.13446045,6.3125,14.609375,-9.125,646
647,1696168137959,0.3256836,-0.85284424,0.019226074,-3.03125,5.484375,-2.609375,647
648,1696168137999,0.27734375,-1.1223755,0.14324951,-2.4375,-0.71875,-6.0,648
649,1696168138039,0.19848633,-1.0825806,0.09906006,6.75,5.890625,-3.875,649
650,1696168138079,0.17773438,-0.91119385,0.039978027,-2.40625,12.4375,-2.15625,650
651,1696168138119,0.35888672,-1.0386353,0.121520996,0.53125,6.046875,-0.9375,651
652,1696168138159,0.35986328,-1.4397583,0.047546387,20.875,3.125,-6.46875,652
653,1696168138199,0.2536621,-1.4761353,-0.11187744,0.59375,5.53125,3.09375,653
654,1696168138239,0.25097656,-1.0383911,-0.25689697,-7.40625,25.921875,3.765625,654
655,1696168138279,0.25073242,-0.800354,-0.25982666,3.265625,18.890625,-3.90625,655
656,1696168138319,0.38012695,-0.9854126,-0.1795044,2.484375,3.796875,-8.046875,656
657,1696168138359,0.33398438,-1.019104,-0.04888916,-4.9375,-3.28125,-7.859375,657
658,1696168138399,0.16333008,-0.94244385,-0.010070801,-15.6875,9.125,-9.65625,658
659,1696168138439,0.007080078,-0.7485962,-0.0635376,-7.703125,3.875,-11.0625,659
660,1696168138479,0.010009766,-0.8501587,-0.097229004,-2.71875,4.25,-8.921875,660
661,1696168138519,0.1352539,-0.83599854,0.046325684,-7.703125,10.109375,-7.578125,661
662,1696168138559,0.12158203,-0.84698486,-0.0134887695,-9.21875,8.828125,-9.546875,662
663,1696168138599,0.08911133,-0.72491455,-0.04107666,-7.4375,11.921875,-8.46875,663
664,1696168138639,0.12207031,-0.7918091,-0.02178955,6.03125,10.609375,-5.3125,664
665,1696168138679,0.10888672,-0.99224854,0.007507324,-5.453125,-2.640625,-5.875,665
666,1696168138719,0.09082031,-1.0588989,0.031433105,-4.375,-6.53125,-4.6875,666
667,1696168138759,0.07470703,-0.98150635,0.01361084,-14.65625,-8.40625,-2.828125,667
668,1696168138799,0.020507812,-0.9248657,-0.00982666,-14.515625,-11.5625,-2.234375,668
669,1696168138839,0.036376953,-1.0071411,0.039001465,-7.5625,-13.859375,-4.59375,669
670,1696168138879,0.17138672,-1.1016235,0.18914795,-4.09375,-5.3125,-1.625,670
671,1696168138919,0.110839844,-0.97125244,0.17816162,-18.859375,-1.21875,0.578125,671
672,1696168138959,0.056884766,-0.8225708,0.07489014,-10.46875,0.8125,-4.3125,672
673,1696168138999,-0.0021972656,-0.89434814,0.089538574,4.796875,-3.875,-2.6875,673
674,1696168139039,0.11254883,-1.1165161,0.18939209,5.171875,-10.609375,1.921875,674
675,1696168139079,0.2578125,-0.85162354,-0.054260254,-10.921875,17.28125,-0.953125,841
676,1696168139119,0.1381836,-0.92071533,-0.2715454,4.890625,8.34375,-1.203125,842
677,1696168139159,0.18920898,-0.9380493,-0.14898682,4.65625,-3.9375,-12.984375,843
678,1696168139199,0.16235352,-1.0261841,0.066833496,4.3125,11.34375,-13.765625,844
679,1696168139239,0.06201172,-0.9307251,0.058776855,-9.265625,9.015625,-8.703125,845
680,1696168139279,0.11694336,-0.8115845,-0.051574707,-10.515625,2.09375,-9.671875,846
681,1696168139319,0.103515625,-0.7620239,-0.025939941,0.59375,3.859375,-2.953125,847
682,1696168139359,0.016601562,-0.89385986,0.109313965,1.578125,4.796875,-5.75,848
683,1696168139399,0.060302734,-0.8875122,0.09222412,0.046875,4.25,-8.8125,849
684,1696168139439,0.07421875,-0.881897,0.07366943,-1.5,-0.125,-7.25,850
685,1696168139479,0.057373047,-0.85040283,0.0836792,-5.53125,3.734375,-6.40625,851
686,1696168139519,0.001953125,-0.86846924,0.10858154,-4.359375,5.59375,-6.84375,852
687,1696168139559,0.068359375,-0.8220825,0.14471436,-3.5,1.15625,0.140625,853
688,1696168139599,0.08691406,-0.8164673,0.059753418,-9.40625,-10.328125,-1.859375,854
689,1696168139639,0.04638672,-0.9890747,0.13519287,4.421875,-14.4375,1.375,855
690,1696168139679,0.0063476562,-0.9973755,0.06561279,5.671875,-10.21875,5.046875,856
691,1696168139719,-0.038085938,-0.9829712,0.08099365,7.0625,-2.640625,2.875,857
692,1696168139759,-0.036621094,-1.0918579,0.12225342,4.09375,-4.796875,0.46875,858
693,1696168139799,0.05859375,-1.1001587,0.16668701,7.734375,-1.625,3.640625,859
694,1696168139839,0.08911133,-0.92755127,0.0680542,2.6875,2.859375,3.78125,860
695,1696168139879,0.015380859,-1.0598755,-0.02130127,3.921875,-9.609375,5.796875,861
696,1696168139919,0.079589844,-1.565979,0.07122803,6.1875,-16.765625,6.875,862
697,1696168139959,0.13916016,-1.2761841,0.22137451,10.921875,7.703125,13.96875,863
698,1696168139999,0.33740234,-0.9937134,-0.09283447,4.03125,3.265625,10.5,864
699,1696168140039,0.32885742,-0.82769775,-0.053771973,1.125,-2.25,7.546875,865
700,1696168140079,0.2770996,-0.9138794,-0.043029785,-10.296875,-16.265625,1.125,866
701,1696168140119,0.28027344,-0.9673462,-0.025939941,1.796875,-13.546875,6.40625,867
702,1696168140159,0.35083008,-0.9319458,-0.009338379,1.59375,-11.96875,7.921875,868
703,1696168140199,0.27124023,-0.94659424,0.14691162,-9.65625,-7.078125,1.671875,869
704,1696168140239,0.125,-0.9661255,0.105407715,2.703125,-8.875,3.625,870
705,1696168140279,0.20532227,-0.8657837,0.04876709,-3.203125,-12.21875,6.28125,871
706,1696168140319,0.26489258,-0.88287354,0.039978027,-3.140625,-9.125,5.21875,872
707,1696168140359,0.2878418,-0.86505127,0.16229248,3.296875,-9.1875,0.984375,873
708,1696168140399,0.21508789,-0.81744385,0.15106201,-3.34375,-7.359375,3.984375,874
709,1696168140439,0.19824219,-0.78009033,0.10443115,0.96875,-13.09375,3.4375,875
710,1696168140479,0.13916016,-0.8753052,0.17230225,-0.984375,-7.34375,-1.640625,876
711,1696168140519,0.09277344,-0.86138916,0.18231201,-1.5625,1.609375,-1.84375,877
712,1696168140559,0.14819336,-0.8904419,0.14959717,-1.15625,-1.34375,-4.203125,878
713,1696168140599,0.100097656,-0.9192505,0.1774292,-5.5625,8.921875,-6.546875,879
714,1696168140639,0.14477539,-0.9380493,0.1918335,1.609375,9.984375,-4.71875,880
715,1696168140679,0.26660156,-0.88775635,0.1293335,1.28125,1.359375,-3.5625,881
716,1696168140719,0.24804688,-1.0032349,0.0836792,-0.140625,2.15625,-2.703125,882
717,1696168140759,0.20263672,-1.0254517,0.101257324,10.125,3.84375,-1.671875,883
718,1696168140799,0.11669922,-1.0374146,0.20281982,5.359375,16.890625,-1.78125,884
719,1696168140839,0.23510742,-1.1140747,0.11639404,6.734375,5.6875,-0.28125,885
720,1696168140879,0.33984375,-1.3640747,0.04827881,-0.234375,-0.5,-3.875,886
721,1696168140919,0.35253906,-1.395813,0.0602417,2.125,4.09375,-0.75,887
722,1696168140959,0.15698242,-1.1882935,-0.0017700195,-7.6875,18.015625,-1.546875,888
723,1696168140999,0.11401367,-0.9924927,-0.09674072,-11.09375,32.0625,-2.78125,889
724,1696168141039,0.11767578,-0.74957275,-0.20025635,-11.9375,15.484375,-9.078125,890
725,1696168141079,0.23999023,-1.0125122,-0.14093018,-3.96875,11.5,-20.046875,891
726,1696168141119,0.20336914,-0.9234009,0.10345459,-8.078125,20.203125,-14.78125,892
727,1696168141159,0.07910156,-0.8640747,0.116882324,-18.296875,5.796875,-12.421875,893
728,1696168141199,0.011962891,-0.88775635,0.012878418,2.109375,8.4375,-9.4375,894
729,1696168141239,-0.005126953,-0.8867798,0.019714355,-0.375,5.453125,-3.21875,895
730,1696168141279,0.049072266,-0.8855591,0.049987793,1.53125,6.234375,-5.515625,896
731,1696168141319,0.0073242188,-0.9299927,0.10491943,2.203125,7.8125,-4.296875,897
732,1696168141359,0.048583984,-0.86676025,0.06829834,-1.09375,3.3125,-2.15625,898
733,1696168141399,0.037109375,-0.8364868,0.06585693,-0.3125,0.71875,-3.375,899
734,1696168141439,-0.016113281,-0.8274536,0.06439209,-1.046875,3.828125,-2.203125,900
735,1696168141479,-0.06201172,-0.9331665,0.070495605,-1.0,-5.953125,0.171875,901
736,1696168141519,0.12890625,-1.0044556,0.12738037,-5.609375,-11.796875,-2.0625,902
737,1696168141559,-0.019042969,-0.9817505,0.097595215,-5.921875,-8.09375,2.5,903
738,1696168141599,-0.13085938,-0.928772,0.070495605,2.6875,-4.046875,7.140625,904
739,1696168141639,-0.05908203,-1.0657349,0.0072631836,9.890625,-9.78125,5.671875,905
740,1696168141679,0.16455078,-1.15802,0.16229248,4.578125,3.65625,0.46875,906
741,1696168141719,0.028076172,-1.1160278,0.10809326,1.203125,8.84375,2.140625,907
742,1696168141759,-0.008300781,-1.1272583,-0.0025024414,1.8125,2.34375,1.5,908
743,1696168141799,0.079833984,-1.3174438,0.06121826,-2.046875,-10.203125,1.609375,909
744,1696168141839,0.2265625,-1.2771606,0.10638428,0.453125,1.578125,11.546875,910
745,1696168141879,0.31152344,-0.95318604,-0.023254395,-1.625,-0.59375,13.953125,911
746,1696168141919,0.27929688,-0.81695557,0.04901123,-3.8125,-8.140625,8.828125,912
747,1696168141959,0.26757812,-0.9837036,0.06048584,2.890625,-7.65625,2.671875,913
748,1696168141999,0.27148438,-0.9795532,0.027282715,-1.40625,-12.125,8.28125,914
749,1696168142039,0.2121582,-0.9429321,0.059753418,-1.28125,-3.9375,8.625,915
750,1696168142079,0.12817383,-0.8904419,0.097351074,-6.953125,-0.765625,-1.765625,916
751,1696168142119,0.19189453,-0.9002075,0.117370605,-0.53125,-12.34375,6.0,917
752,1696168142159,0.34228516,-0.8933716,0.11810303,12.265625,-13.828125,16.53125,918
753,1696168142199,0.3293457,-0.9199829,0.113464355,-3.703125,-14.875,4.84375,919
754,1696168142239,0.14770508,-0.76397705,0.13885498,-9.140625,-12.59375,5.90625,920
755,1696168142279,0.09814453,-0.81988525,0.20184326,-4.203125,-14.15625,6.390625,921
756,1696168142319,0.028808594,-0.7896118,0.18890381,2.078125,-3.1875,8.765625,922
757,1696168142359,0.15454102,-0.86676025,0.1515503,0.625,-7.875,4.765625,923
758,1696168142399,0.20703125,-0.84039307,0.22747803,-1.6875,8.015625,-4.9375,924
759,1696168142439,0.24804688,-0.8118286,0.27996826,-0.625,6.203125,-2.625,925
