,timestamp,accel_x,accel_y,accel_z,gyro_x,gyro_y,gyro_z,ind
0,1695772434311,-0.13085938,-0.96173096,0.21038818,-1.046875,-1.90625,1.109375,0
1,1695772434351,-0.1550293,-1.0039673,0.21575928,0.921875,-0.59375,0.03125,1
2,1695772434391,-0.12792969,-1.0186157,0.2098999,-2.171875,-0.53125,-1.015625,2
3,1695772434431,-0.115478516,-0.9768677,0.21624756,-1.453125,1.515625,-2.546875,3
4,1695772434471,-0.10522461,-0.9763794,0.18841553,-1.203125,2.53125,-2.03125,4
5,1695772434511,-0.12109375,-0.95635986,0.19354248,-1.359375,0.21875,1.0,5
6,1695772434551,-0.12475586,-0.9717407,0.19744873,0.109375,0.21875,1.28125,6
7,1695772434591,-0.10571289,-1.0149536,0.21087646,-1.734375,0.234375,-0.75,7
8,1695772434631,-0.10498047,-0.98883057,0.21551514,-2.421875,-0.375,-1.265625,8
9,1695772434671,-0.10546875,-0.97906494,0.20135498,-2.765625,-2.078125,-1.171875,9
10,1695772434711,-0.122558594,-0.96832275,0.2189331,1.21875,-2.28125,-0.359375,10
11,1695772434751,-0.14672852,-1.010315,0.2506714,2.46875,1.765625,1.09375,11
12,1695772434791,-0.17602539,-0.95098877,0.20697021,8.109375,4.390625,4.828125,12
13,1695772434831,-0.13476562,-0.9763794,0.2033081,4.625,5.84375,3.84375,13
14,1695772434871,-0.07421875,-0.9993286,0.1762085,0.71875,1.734375,-3.65625,14
15,1695772434911,-0.100097656,-1.0344849,0.19085693,-2.203125,0.0,1.265625,15
16,1695772434951,-0.11376953,-1.0027466,0.19915771,-0.59375,0.59375,3.15625,16
17,1695772434991,-0.13793945,-0.93878174,0.19329834,-1.296875,1.515625,4.625,17
18,1695772435031,-0.095214844,-0.98101807,0.18865967,2.671875,2.90625,1.625,18
19,1695772435071,-0.064697266,-0.97442627,0.19256592,0.0625,2.015625,1.0625,19
20,1695772435111,-0.06640625,-0.9866333,0.18328857,0.453125,0.328125,0.296875,20
21,1695772435151,-0.0859375,-1.0022583,0.19598389,0.484375,0.21875,0.921875,21
22,1695772435191,-0.100097656,-1.0095825,0.17547607,-0.046875,-0.09375,2.09375,22
23,1695772435231,-0.11401367,-0.9834595,0.19134521,-1.9375,0.234375,1.578125,23
24,1695772435271,-0.07910156,-1.0093384,0.19378662,0.953125,3.140625,1.609375,24
25,1695772435311,-0.07763672,-0.98931885,0.17352295,1.125,2.9375,1.109375,25
26,1695772435351,-0.067871094,-0.9859009,0.18572998,0.078125,3.140625,-2.015625,26
27,1695772435391,-0.055908203,-0.9734497,0.15618896,4.640625,1.3125,-0.15625,27
28,1695772435431,-0.060302734,-0.9812622,0.1630249,4.0,-1.375,0.03125,28
29,1695772435471,-0.08959961,-1.0025024,0.17401123,7.171875,-0.046875,4.90625,29
30,1695772435511,-0.06958008,-1.0137329,0.15692139,0.265625,-0.125,0.015625,30
31,1695772435551,-0.09106445,-1.0003052,0.14959717,-3.109375,-1.515625,-4.328125,31
32,1695772435591,-0.0871582,-0.99346924,0.16595459,0.90625,0.5625,-2.0625,32
33,1695772435631,-0.07495117,-0.99786377,0.16082764,-2.8125,0.4375,-1.96875,33
34,1695772435671,-0.09008789,-0.986145,0.15228271,-2.828125,-1.046875,-2.125,34
35,1695772435711,-0.10083008,-0.9885864,0.16668701,-1.515625,-0.953125,-1.125,35
36,1695772435751,-0.0949707,-0.96466064,0.15472412,-1.78125,-0.65625,0.8125,36
37,1695772435791,-0.087646484,-0.9656372,0.15863037,-0.6875,-0.265625,-0.265625,37
38,1695772435831,-0.039794922,-0.99005127,0.17181396,-2.4375,-2.359375,-5.265625,38
39,1695772435871,-0.095214844,-1.0508423,0.16937256,-4.21875,-4.484375,-3.03125,39
40,1695772435911,-0.07128906,-1.0305786,0.2111206,-0.90625,-2.734375,-5.21875,40
41,1695772435951,-0.16259766,-1.0025024,0.16156006,-9.453125,-10.53125,1.671875,41
42,1695772435991,-0.16430664,-0.92803955,0.20037842,-1.921875,1.25,5.390625,42
43,1695772436031,-0.09472656,-0.98321533,0.18035889,-1.015625,3.21875,-4.515625,43
44,1695772436071,-0.11376953,-1.0125122,0.17474365,-4.15625,1.125,-3.375,44
45,1695772436111,-0.123291016,-0.991272,0.21820068,2.546875,0.421875,-2.1875,45
46,1695772436151,-0.12866211,-1.0088501,0.19915771,-0.4375,6.875,1.3125,46
47,1695772436191,-0.092285156,-0.9151001,0.15057373,-1.4375,3.40625,2.78125,47
48,1695772436231,-0.063964844,-0.9338989,0.18328857,5.8125,-0.59375,-1.078125,48
49,1695772436271,-0.07861328,-1.039856,0.19158936,3.75,-0.328125,-0.25,49
50,1695772436311,-0.075683594,-1.005188,0.17449951,-2.46875,-2.34375,-2.125,50
51,1695772436351,-0.092041016,-0.9717407,0.18695068,-0.21875,-0.109375,-2.296875,51
52,1695772436391,-0.10424805,-1.0337524,0.1876831,-0.59375,0.265625,-2.15625,52
53,1695772436431,-0.1538086,-0.987854,0.17230225,-2.765625,-2.421875,6.28125,53
54,1695772436471,-0.12573242,-0.93414307,0.1864624,-0.328125,-0.71875,0.328125,54
55,1695772436511,-0.119628906,-1.0298462,0.18914795,-1.203125,1.78125,-1.234375,55
56,1695772436551,-0.118652344,-0.9534302,0.19378662,2.125,3.234375,3.5625,56
57,1695772436591,-0.10668945,-0.97320557,0.15203857,-1.59375,0.34375,-2.25,57
58,1695772436631,-0.068115234,-0.98272705,0.18572998,-1.359375,1.515625,-4.5,58
59,1695772436671,-0.068603516,-1.0442505,0.19500732,-0.828125,0.796875,-0.859375,59
60,1695772436711,-0.09887695,-0.9968872,0.16888428,-1.9375,-1.71875,1.21875,60
61,1695772436751,-0.12597656,-0.9849243,0.18035889,-1.953125,-1.28125,-0.375,61
62,1695772436791,-0.11425781,-0.97052,0.19818115,-0.6875,0.8125,-0.25,62
63,1695772436831,-0.10571289,-0.98565674,0.16278076,0.234375,0.109375,0.03125,63
64,1695772436871,-0.09082031,-0.97076416,0.16937256,-1.046875,-0.515625,0.125,64
65,1695772436911,-0.14819336,-0.9841919,0.19281006,4.046875,1.359375,4.125,65
66,1695772436951,-0.09716797,-1.0357056,0.1762085,0.6875,3.5625,3.359375,66
67,1695772436991,-0.110839844,-0.95806885,0.15472412,-2.765625,1.96875,2.984375,67
68,1695772437031,-0.09887695,-0.98223877,0.18157959,-0.65625,3.6875,0.5,68
69,1695772437071,-0.06347656,-1.03302,0.18157959,-0.5625,1.359375,-0.125,69
70,1695772437111,-0.030517578,-1.0020142,0.18011475,-3.90625,-0.109375,-0.171875,70
71,1695772437151,-0.06689453,-0.9763794,0.16497803,-2.703125,-1.4375,0.5625,71
72,1695772437191,-0.07763672,-0.9702759,0.17352295,-0.78125,-3.1875,0.75,72
73,1695772437231,-0.0925293,-0.9710083,0.19476318,-2.15625,-3.734375,0.9375,73
74,1695772437271,-0.09033203,-0.99053955,0.19622803,0.25,-2.6875,0.421875,74
75,1695772437311,-0.084472656,-0.9741821,0.2218628,0.71875,-0.53125,0.09375,75
76,1695772437351,-0.09350586,-0.9927368,0.17034912,-3.3125,-1.09375,-1.890625,76
77,1695772437391,-0.07397461,-0.9553833,0.20941162,-0.375,-0.8125,-2.21875,77
78,1695772437431,-0.0769043,-1.022522,0.18670654,-2.09375,0.53125,-2.59375,78
79,1695772437471,-0.11035156,-0.9985962,0.18670654,-2.40625,-1.109375,0.53125,79
80,1695772437511,-0.09057617,-0.97784424,0.19989014,-0.359375,-0.265625,-0.625,80
81,1695772437551,-0.07861328,-1.0029907,0.19158936,-2.875,-0.90625,-2.03125,81
82,1695772437591,-0.075927734,-0.9824829,0.18963623,-1.390625,-0.15625,-1.453125,82
83,1695772437631,-0.10546875,-0.97052,0.18597412,-1.078125,-0.140625,-0.46875,83
84,1695772437671,-0.09472656,-0.97442627,0.18475342,-0.578125,-0.28125,0.46875,84
85,1695772437711,-0.08325195,-0.98809814,0.1876831,-1.09375,-0.25,-2.25,85
86,1695772437751,-0.09667969,-1.0125122,0.20355225,0.703125,-0.25,-0.953125,86
87,1695772437791,-0.10229492,-1.0015259,0.19793701,-0.25,-0.171875,-0.59375,87
88,1695772437831,-0.09765625,-0.97247314,0.19036865,1.53125,1.578125,-0.125,88
89,1695772437871,-0.10961914,-1.0003052,0.17669678,-1.53125,1.859375,-0.390625,89
90,1695772437911,-0.09667969,-0.97369385,0.18621826,-3.5625,-0.671875,-0.5,90
91,1695772437951,-0.1081543,-0.99591064,0.19525146,-2.5625,1.5,-0.546875,91
92,1695772437991,-0.11254883,-0.9837036,0.20794678,0.515625,2.40625,1.421875,92
93,1695772438031,-0.072509766,-0.9898071,0.19158936,-3.109375,2.328125,-3.40625,93
94,1695772438071,-0.088378906,-0.9795532,0.1876831,-2.5,0.53125,-2.203125,94
95,1695772438111,-0.1171875,-0.9673462,0.21575928,1.515625,0.828125,0.671875,95
96,1695772438151,-0.10888672,-0.9783325,0.20770264,1.71875,3.40625,1.65625,96
97,1695772438191,-0.11328125,-0.9939575,0.19036865,-0.390625,1.859375,1.515625,97
98,1695772438231,-0.08569336,-0.9846802,0.21722412,1.8125,3.4375,-0.84375,98
99,1695772438271,-0.076171875,-1.0310669,0.19329834,0.96875,2.0,-1.171875,99
100,1695772438311,-0.09033203,-0.96710205,0.18719482,-1.21875,1.265625,1.296875,100
101,1695772438351,-0.08300781,-0.9702759,0.19012451,1.078125,1.71875,-2.140625,101
102,1695772438391,-0.09765625,-1.0027466,0.18548584,-0.96875,0.53125,0.21875,102
103,1695772438431,-0.107666016,-0.9841919,0.20281982,0.90625,0.28125,2.3125,103
104,1695772438471,-0.10449219,-0.95928955,0.20062256,0.15625,1.984375,-1.3125,104
105,1695772438511,-0.08081055,-0.9690552,0.1708374,-0.578125,1.109375,-2.34375,105
106,1695772438551,-0.08178711,-1.0064087,0.19671631,-2.078125,-2.75,-1.015625,106
107,1695772438591,-0.11816406,-1.0112915,0.20379639,-1.046875,-1.296875,1.09375,107
108,1695772438631,-0.10668945,-0.9819946,0.18719482,-0.390625,-0.078125,-0.328125,108
109,1695772438671,-0.08666992,-0.9780884,0.18695068,-2.953125,0.265625,-2.265625,109
110,1695772438711,-0.095703125,-0.9871216,0.19281006,-1.984375,-1.03125,-1.3125,110
111,1695772438751,-0.087890625,-0.99176025,0.1918335,-2.546875,-1.28125,-1.84375,111
112,1695772438791,-0.10107422,-0.9829712,0.18719482,-4.421875,-0.78125,-2.046875,112
113,1695772438831,-0.11035156,-0.9636841,0.2008667,2.28125,2.25,1.234375,113
114,1695772438871,-0.0925293,-1.0291138,0.22161865,6.578125,2.921875,0.6875,114
115,1695772438911,-0.13549805,-0.9800415,0.21331787,2.078125,0.703125,4.3125,115
116,1695772438951,-0.1171875,-1.0064087,0.18695068,3.78125,3.234375,1.78125,116
117,1695772438991,-0.08251953,-0.9805298,0.17938232,1.203125,3.6875,0.40625,117
118,1695772439031,-0.080566406,-0.9951782,0.17254639,0.171875,1.90625,-1.65625,118
119,1695772439071,-0.110839844,-0.97613525,0.18695068,-1.203125,1.59375,-0.734375,119
120,1695772439111,-0.0925293,-0.98150635,0.1671753,2.53125,2.0,0.1875,120
121,1695772439151,-0.0625,-0.9800415,0.14276123,-0.171875,1.796875,1.828125,121
122,1695772439191,-0.080566406,-0.99420166,0.16912842,3.8125,-2.34375,-0.078125,122
123,1695772439231,-0.115478516,-1.000061,0.17474365,0.515625,0.03125,0.84375,123
124,1695772439271,-0.08935547,-0.9768677,0.1618042,1.78125,0.90625,0.1875,124
125,1695772439311,-0.072265625,-0.96954346,0.14422607,3.328125,-2.234375,-1.578125,125
126,1695772439351,-0.068359375,-0.99786377,0.15032959,2.71875,-2.5625,1.03125,126
127,1695772439391,-0.095703125,-0.9837036,0.16864014,0.140625,-1.796875,-0.375,127
128,1695772439431,-0.087646484,-1.000061,0.14398193,-2.21875,-0.828125,-4.28125,128
129,1695772439471,-0.09399414,-1.0042114,0.14007568,-0.625,-1.40625,-2.03125,129
130,1695772439511,-0.09033203,-1.0115356,0.16497803,1.75,-0.140625,0.875,130
131,1695772439551,-0.087646484,-0.99468994,0.14105225,-2.078125,0.65625,-0.65625,131
132,1695772439591,-0.10864258,-0.9846802,0.15496826,-1.59375,0.78125,-0.21875,132
133,1695772439631,-0.104003906,-0.9573364,0.15472412,-0.640625,0.96875,-2.359375,133
134,1695772439671,-0.1015625,-0.9866333,0.14105225,-2.828125,-0.859375,-1.75,134
135,1695772439711,-0.0925293,-0.9834595,0.15301514,-1.0,-1.03125,-0.59375,135
136,1695772439751,-0.0925293,-1.010315,0.15447998,-2.453125,-0.5625,-0.6875,136
137,1695772439791,-0.12231445,-1.0081177,0.17156982,-0.890625,-0.734375,3.546875,137
138,1695772439831,-0.107910156,-0.9649048,0.16033936,-0.140625,2.546875,1.109375,138
139,1695772439871,-0.05810547,-0.9927368,0.15179443,0.375,3.078125,-1.78125,139
140,1695772439911,-0.067871094,-1.0054321,0.15301514,-4.0,-2.140625,-2.34375,140
141,1695772439951,-0.10058594,-1.0039673,0.15765381,-2.171875,-2.859375,0.296875,141
142,1695772439991,-0.11767578,-0.9846802,0.16082764,-1.1875,-2.359375,2.140625,142
143,1695772440031,-0.11254883,-0.972229,0.19525146,-2.484375,-0.734375,0.3125,143
144,1695772440071,-0.103515625,-1.0090942,0.16741943,1.546875,0.21875,-0.1875,144
145,1695772440111,-0.099121094,-0.9536743,0.16375732,-2.21875,2.28125,0.140625,145
146,1695772440151,-0.063964844,-0.96417236,0.1749878,-2.890625,0.765625,-2.140625,146
147,1695772440191,-0.060302734,-1.0317993,0.16644287,0.03125,-1.0,-0.984375,147
148,1695772440231,-0.09423828,-1.0386353,0.17449951,-1.375,-3.984375,1.25,148
149,1695772440271,-0.10498047,-0.97247314,0.16326904,-5.140625,-2.359375,-0.125,149
150,1695772440311,-0.10620117,-0.954895,0.17596436,-1.75,0.15625,1.109375,150
151,1695772440351,-0.09741211,-0.96466064,0.17816162,0.828125,0.890625,0.078125,151
152,1695772440391,-0.10107422,-0.9963989,0.18255615,-0.640625,-0.65625,-1.921875,152
153,1695772440431,-0.08642578,-1.0115356,0.18231201,-3.390625,-0.140625,-2.859375,153
154,1695772440471,-0.075927734,-0.99224854,0.17352295,-0.421875,0.71875,0.046875,154
155,1695772440511,-0.10913086,-0.97052,0.17279053,-2.859375,-0.125,1.109375,155
156,1695772440551,-0.11230469,-0.97735596,0.19354248,-1.03125,0.75,0.578125,156
157,1695772440591,-0.09375,-0.99957275,0.19598389,-1.84375,0.5625,-1.484375,157
158,1695772440631,-0.09667969,-0.9780884,0.18133545,-2.71875,0.6875,-0.625,158
159,1695772440671,-0.091796875,-0.9834595,0.19134521,1.390625,0.140625,0.671875,159
160,1695772440711,-0.0793457,-0.9834595,0.1876831,0.71875,0.09375,-0.578125,160
161,1695772440751,-0.072509766,-0.987854,0.1618042,-1.78125,-0.828125,-2.875,161
162,1695772440791,-0.10498047,-0.9771118,0.1942749,-1.140625,-2.625,-3.8125,162
163,1695772440831,-0.11401367,-1.0044556,0.19720459,1.84375,-0.65625,-1.515625,163
164,1695772440871,-0.14086914,-0.9800415,0.18670654,-3.65625,-0.359375,0.375,164
165,1695772440911,-0.119140625,-0.9829712,0.18353271,-1.15625,1.984375,0.09375,165
166,1695772440951,-0.11010742,-0.98638916,0.18670654,0.171875,1.078125,1.5,166
167,1695772440991,-0.087402344,-0.98150635,0.20159912,-1.09375,0.125,-1.03125,167
168,1695772441031,-0.103515625,-0.99591064,0.18035889,-4.421875,-1.171875,-2.140625,168
169,1695772441071,-0.10083008,-0.9644165,0.18939209,-2.9375,-0.265625,-1.75,169
170,1695772441111,-0.119628906,-0.9976196,0.17938232,0.25,0.390625,0.5625,170
171,1695772441151,-0.11352539,-0.9949341,0.18011475,-2.890625,0.90625,1.46875,171
172,1695772441191,-0.111572266,-0.97540283,0.22113037,0.984375,0.703125,1.78125,172
173,1695772441231,-0.1105957,-0.9920044,0.20892334,2.265625,4.390625,0.53125,173
174,1695772441271,-0.10961914,-0.9937134,0.184021,-2.234375,2.703125,-0.125,174
175,1695772441311,-0.1105957,-0.9505005,0.19036865,-0.953125,2.171875,1.046875,175
176,1695772441351,-0.095214844,-0.9846802,0.17254639,0.0625,2.921875,2.28125,176
177,1695772441391,-0.072021484,-1.0081177,0.19940186,1.09375,2.296875,3.21875,177
178,1695772441431,-0.07885742,-0.9993286,0.20892334,0.8125,2.59375,1.859375,178
179,1695772441471,-0.079589844,-0.9805298,0.1828003,2.78125,2.46875,-1.03125,179
180,1695772441511,-0.083496094,-0.956604,0.17547607,1.328125,-0.0625,0.953125,180
181,1695772441551,-0.0715332,-0.9920044,0.18060303,0.921875,-0.21875,-0.484375,181
182,1695772441591,-0.057373047,-0.99346924,0.15545654,-4.359375,-2.203125,-1.984375,182
183,1695772441631,-0.08251953,-1.0137329,0.20013428,0.0,-2.359375,-0.828125,183
184,1695772441671,-0.10083008,-0.9854126,0.16497803,-0.140625,-2.9375,0.859375,184
185,1695772441711,-0.1159668,-0.9529419,0.17230225,-3.171875,-1.359375,-4.21875,185
186,1695772441751,-0.1015625,-0.98931885,0.18670654,1.125,-1.671875,-3.84375,186
187,1695772441791,-0.09741211,-0.9841919,0.19573975,-2.515625,-1.625,-2.078125,187
188,1695772441831,-0.10913086,-0.98638916,0.1942749,-4.140625,-1.046875,-1.734375,188
189,1695772441871,-0.078125,-1.0308228,0.2411499,2.59375,0.8125,0.359375,189
190,1695772441911,-0.125,-0.9824829,0.18475342,-5.5,-4.828125,1.703125,190
191,1695772441951,-0.11694336,-0.9390259,0.20428467,-2.359375,-5.09375,-4.609375,191
192,1695772441991,-0.071777344,-1.0425415,0.15447998,-2.65625,-1.5,-2.609375,192
193,1695772442031,-0.091552734,-0.9312134,0.19329834,1.109375,-1.90625,0.71875,193
194,1695772442071,-0.13745117,-1.0374146,0.18890381,4.5,-2.796875,-1.75,194
195,1695772442111,-0.1303711,-0.973938,0.19451904,2.265625,1.765625,2.359375,195
196,1695772442151,-0.11767578,-0.9800415,0.17156982,1.15625,0.03125,1.0,196
197,1695772442191,-0.100097656,-0.9312134,0.14593506,1.84375,1.609375,0.25,197
198,1695772442231,-0.087890625,-0.98394775,0.16351318,1.703125,-1.8125,-4.09375,198
199,1695772442271,-0.111328125,-1.024231,0.17962646,-1.703125,-2.90625,-3.1875,199
200,1695772442311,-0.115234375,-1.008606,0.18328857,-3.0,1.046875,-0.71875,200
201,1695772442351,-0.10961914,-1.0025024,0.18353271,2.109375,1.953125,0.359375,201
202,1695772442391,-0.13720703,-0.95758057,0.17572021,-1.984375,1.0,-0.734375,202
203,1695772442431,-0.11254883,-0.9807739,0.16375732,-0.96875,1.0625,-2.40625,203
204,1695772442471,-0.11621094,-0.9961548,0.18353271,-0.4375,2.328125,-1.6875,204
205,1695772442511,-0.12646484,-0.989563,0.1786499,-0.46875,1.546875,-1.859375,205
206,1695772442551,-0.13305664,-1.0015259,0.17059326,-0.9375,1.328125,0.09375,206
207,1695772442591,-0.1315918,-0.9624634,0.1708374,-0.609375,1.5625,0.84375,207
208,1695772442631,-0.115478516,-0.989563,0.16473389,0.3125,0.359375,-1.1875,208
209,1695772442671,-0.12890625,-0.9956665,0.18914795,2.09375,0.09375,1.34375,209
210,1695772442711,-0.13256836,-1.0203247,0.16009521,-2.21875,1.25,-0.078125,210
211,1695772442751,-0.12402344,-0.9524536,0.17230225,-1.0625,2.5,0.21875,211
212,1695772442791,-0.14331055,-1.0149536,0.17327881,1.0625,3.34375,3.484375,212
213,1695772442831,-0.111328125,-0.9741821,0.16644287,0.90625,2.0,3.5,213
214,1695772442871,-0.07543945,-1.0025024,0.16619873,-1.390625,2.34375,-0.234375,214
215,1695772442911,-0.10083008,-0.99102783,0.18133545,-0.84375,1.84375,1.046875,215
216,1695772442951,-0.092041016,-0.9812622,0.1539917,-2.890625,-0.5625,-1.84375,216
217,1695772442991,-0.09741211,-0.98223877,0.17303467,-1.109375,-1.90625,-0.90625,217
218,1695772443031,-0.10546875,-1.0039673,0.17254639,-1.25,-1.5,-0.40625,218
219,1695772443071,-0.11303711,-0.9976196,0.1852417,-0.328125,-1.359375,0.234375,219
220,1695772443111,-0.11401367,-0.9937134,0.1786499,0.25,1.0625,-0.25,220
221,1695772443151,-0.099121094,-0.9741821,0.1798706,-4.375,-1.46875,-1.609375,221
222,1695772443191,-0.1171875,-0.95684814,0.16497803,-5.53125,-1.75,-3.71875,222
223,1695772443231,-0.122558594,-1.0127563,0.18231201,1.484375,-1.28125,-1.28125,223
224,1695772443271,-0.11645508,-1.019104,0.2008667,-1.921875,0.46875,0.859375,224
225,1695772443311,-0.12231445,-0.9859009,0.17327881,-4.96875,-1.078125,1.5,225
226,1695772443351,-0.12402344,-0.9639282,0.19793701,-0.71875,0.359375,0.5,226
227,1695772443391,-0.087890625,-0.9829712,0.18817139,-2.546875,-0.078125,-1.265625,227
228,1695772443431,-0.08935547,-0.9717407,0.18572998,-3.1875,-2.484375,-1.703125,228
229,1695772443471,-0.12548828,-0.99786377,0.18792725,-0.578125,-0.90625,0.8125,229
230,1695772443511,-0.13012695,-0.9751587,0.18548584,-0.015625,1.09375,2.421875,230
231,1695772443551,-0.111083984,-0.98272705,0.1876831,-1.03125,1.203125,1.078125,231
232,1695772443591,-0.10253906,-0.99224854,0.20770264,-0.578125,0.34375,-0.53125,232
233,1695772443631,-0.10058594,-1.0056763,0.16693115,-2.34375,0.453125,-1.421875,233
234,1695772443671,-0.0847168,-0.94976807,0.18157959,-3.359375,-0.09375,-2.15625,234
235,1695772443711,-0.1159668,-0.9776001,0.22113037,0.46875,-0.78125,-0.703125,235
236,1695772443751,-0.10546875,-1.0125122,0.2189331,2.453125,1.421875,-2.765625,236
237,1695772443791,-0.12939453,-1.0234985,0.17254639,-8.046875,-1.328125,-2.171875,237
238,1695772443831,-0.11791992,-0.96221924,0.21087646,3.53125,-2.53125,-4.375,238
239,1695772443871,-0.1459961,-0.97198486,0.19476318,-1.875,-1.0625,-3.65625,239
240,1695772443911,-0.13623047,-0.9356079,0.19573975,0.65625,1.125,-1.125,240
241,1695772443951,-0.110839844,-1.0474243,0.21331787,6.6875,3.078125,-2.984375,241
242,1695772443991,-0.15112305,-1.0144653,0.215271,2.328125,5.828125,3.546875,242
243,1695772444031,-0.15405273,-0.9561157,0.1954956,7.890625,4.09375,2.71875,243
244,1695772444071,-0.13891602,-0.94976807,0.16766357,0.46875,4.234375,-2.59375,244
245,1695772444111,-0.099121094,-1.0046997,0.14813232,2.4375,2.453125,2.28125,245
246,1695772444151,-0.110839844,-0.97076416,0.17230225,4.578125,0.625,3.125,246
247,1695772444191,-0.13867188,-0.97052,0.14324951,1.71875,1.03125,0.71875,247
248,1695772444231,-0.11328125,-0.9619751,0.15472412,3.71875,0.640625,0.796875,248
249,1695772444271,-0.09277344,-0.9968872,0.1281128,0.28125,0.25,-0.03125,249
250,1695772444311,-0.11328125,-1.003479,0.1515503,1.46875,0.453125,2.265625,250
251,1695772444351,-0.107910156,-0.99224854,0.16131592,-0.390625,-0.375,-0.4375,251
252,1695772444391,-0.10595703,-1.015686,0.15814209,-0.890625,1.765625,0.109375,252
253,1695772444431,-0.11816406,-0.97198486,0.137146,1.609375,0.671875,1.1875,253
254,1695772444471,-0.11035156,-0.9663696,0.1395874,0.734375,1.828125,-0.71875,254
255,1695772444511,-0.10888672,-1.0059204,0.14276123,0.34375,0.78125,-2.53125,255
256,1695772444551,-0.10620117,-0.99005127,0.15911865,-2.0625,-0.078125,-1.390625,256
257,1695772444591,-0.12841797,-1.0061646,0.13616943,-1.203125,-2.140625,0.75,257
258,1695772444631,-0.1105957,-0.9819946,0.12298584,-1.828125,-0.921875,-0.4375,258
259,1695772444671,-0.09033203,-1.0037231,0.15570068,0.515625,-0.09375,0.609375,259
260,1695772444711,-0.12817383,-0.9837036,0.13348389,-1.28125,-2.515625,1.578125,260
261,1695772444751,-0.1328125,-0.9819946,0.13885498,-3.5,-3.625,-1.4375,261
262,1695772444791,-0.12133789,-1.0159302,0.14007568,-1.84375,0.453125,-1.84375,262
263,1695772444831,-0.11279297,-0.98150635,0.14886475,-2.171875,0.421875,1.140625,263
264,1695772444871,-0.111572266,-0.9837036,0.1293335,-2.859375,-1.359375,0.125,264
265,1695772444911,-0.11230469,-0.98809814,0.15863037,-5.1875,0.265625,-0.421875,265
266,1695772444951,-0.09814453,-0.9927368,0.17547607,-1.546875,-1.625,0.75,266
267,1695772444991,-0.103759766,-1.0061646,0.16375732,-2.453125,-0.578125,2.6875,267
268,1695772445031,-0.10229492,-0.99542236,0.13934326,-4.375,-2.984375,1.78125,268
269,1695772445071,-0.10205078,-0.9717407,0.17181396,-4.0,-0.828125,1.53125,269
270,1695772445111,-0.11352539,-0.99053955,0.17352295,-0.796875,-1.609375,3.234375,270
271,1695772445151,-0.10986328,-0.98883057,0.17596436,-3.578125,-2.140625,0.0,271
272,1695772445191,-0.09667969,-0.99224854,0.1828003,-2.4375,-0.21875,-2.984375,272
273,1695772445231,-0.09692383,-0.9990845,0.1671753,-4.21875,0.265625,-0.75,273
274,1695772445271,-0.095458984,-0.95928955,0.18499756,-0.265625,1.5,2.328125,274
275,1695772445311,-0.09863281,-0.9783325,0.199646,-2.296875,-0.3125,-0.5,275
276,1695772445351,-0.080078125,-1.0210571,0.1930542,-3.5,0.640625,-1.0625,276
277,1695772445391,-0.08300781,-0.9812622,0.1930542,-1.703125,0.84375,0.0,277
278,1695772445431,-0.09008789,-0.9612427,0.19085693,-3.75,0.359375,-0.6875,278
279,1695772445471,-0.10107422,-0.98565674,0.19036865,0.515625,-0.609375,-0.09375,279
280,1695772445511,-0.107666016,-0.9800415,0.20184326,-3.578125,0.875,-1.671875,280
281,1695772445551,-0.10839844,-0.9956665,0.2008667,-0.75,-0.5625,-1.578125,281
282,1695772445591,-0.114746094,-0.98223877,0.22991943,1.96875,1.15625,-1.203125,282
283,1695772445631,-0.10571289,-1.0039673,0.18157959,4.484375,2.859375,-1.796875,283
284,1695772445671,-0.10595703,-0.96466064,0.16888428,-9.671875,1.171875,-0.265625,284
285,1695772445711,-0.11791992,-0.94244385,0.16790771,-3.578125,-0.59375,-5.765625,285
286,1695772445751,-0.10180664,-1.0078735,0.20721436,-0.484375,1.25,0.34375,286
287,1695772445791,-0.09350586,-1.0361938,0.2741089,3.546875,3.203125,0.78125,287
288,1695772445831,-0.119140625,-0.9990845,0.21478271,-3.546875,0.484375,3.3125,288
289,1695772445871,-0.0925293,-0.92803955,0.17352295,-0.71875,-1.453125,-5.40625,289
290,1695772445911,-0.11328125,-0.95513916,0.19915771,-2.59375,0.296875,-0.46875,290
291,1695772445951,-0.114990234,-1.02594,0.22918701,4.9375,-1.203125,-1.859375,291
292,1695772445991,-0.13549805,-1.005188,0.21551514,-5.765625,-4.6875,-4.0,292
293,1695772446031,-0.10449219,-0.99176025,0.2230835,7.515625,0.0,-4.6875,293
294,1695772446071,-0.14257812,-0.9920044,0.16864014,-1.296875,-0.421875,1.375,294
295,1695772446111,-0.12719727,-0.90875244,0.15032959,8.265625,0.9375,1.234375,295
296,1695772446151,-0.10205078,-1.0230103,0.19793701,5.25,3.046875,-2.53125,296
297,1695772446191,-0.13867188,-1.0383911,0.18328857,3.9375,1.484375,-0.359375,297
298,1695772446231,-0.14819336,-0.9295044,0.16033936,0.3125,1.296875,1.34375,298
299,1695772446271,-0.1328125,-0.96954346,0.137146,1.5,-0.359375,-1.421875,299
300,1695772446311,-0.09838867,-1.0032349,0.15008545,-0.03125,1.65625,-1.203125,300
301,1695772446351,-0.10473633,-1.0149536,0.17791748,1.703125,0.25,1.171875,301
302,1695772446391,-0.12719727,-0.9717407,0.1605835,0.21875,0.109375,-1.65625,302
303,1695772446431,-0.13061523,-0.9841919,0.1630249,-0.046875,-1.34375,-2.96875,303
304,1695772446471,-0.13598633,-1.000061,0.15838623,-1.609375,-1.59375,-0.203125,304
305,1695772446511,-0.12988281,-0.97906494,0.1461792,-0.890625,0.484375,0.28125,305
306,1695772446551,-0.12719727,-0.99468994,0.17376709,0.203125,1.015625,0.8125,306
307,1695772446591,-0.12768555,-0.98150635,0.17352295,0.59375,-0.59375,0.0625,307
308,1695772446631,-0.12207031,-0.9883423,0.15960693,-2.359375,-0.9375,-2.828125,308
309,1695772446671,-0.13891602,-0.9776001,0.16351318,-0.765625,1.21875,-0.34375,309
310,1695772446711,-0.14428711,-0.99005127,0.16473389,-1.6875,-0.375,0.90625,310
311,1695772446751,-0.1694336,-1.0127563,0.15960693,-3.15625,1.171875,1.9375,311
312,1695772446791,-0.1472168,-0.9558716,0.16204834,-2.296875,4.140625,1.109375,312
313,1695772446831,-0.11425781,-0.99176025,0.17596436,-0.515625,3.703125,0.171875,313
314,1695772446871,-0.08544922,-0.9727173,0.16009521,-1.65625,2.65625,-1.546875,314
315,1695772446911,-0.11352539,-1.0083618,0.16278076,-2.625,1.171875,0.203125,315
316,1695772446951,-0.12817383,-0.97784424,0.16107178,-0.453125,-0.609375,1.921875,316
317,1695772446991,-0.111083984,-0.9829712,0.18719482,-0.25,-0.546875,-0.65625,317
318,1695772447031,-0.12939453,-0.9985962,0.17718506,-2.53125,-2.09375,-0.234375,318
319,1695772447071,-0.114746094,-0.9680786,0.18060303,-1.40625,-1.109375,-1.296875,319
320,1695772447111,-0.122558594,-0.99664307,0.1762085,-2.75,-1.9375,-2.53125,320
321,1695772447151,-0.14404297,-0.9920044,0.1876831,-1.734375,-1.34375,0.28125,321
322,1695772447191,-0.11694336,-0.9819946,0.17108154,-1.359375,0.265625,-0.5625,322
323,1695772447231,-0.1430664,-0.9924927,0.18499756,-4.234375,-1.0,1.578125,323
324,1695772447271,-0.1303711,-0.96221924,0.19256592,-1.71875,-1.625,0.328125,324
325,1695772447311,-0.1328125,-1.0308228,0.19940186,-4.609375,-0.515625,-0.40625,325
326,1695772447351,-0.15478516,-1.0134888,0.20599365,-7.71875,-1.03125,3.171875,326
327,1695772447391,-0.12915039,-0.98687744,0.19012451,-2.203125,-0.1875,3.046875,327
328,1695772447431,-0.1340332,-0.9741821,0.19818115,-3.65625,1.140625,2.9375,328
329,1695772447471,-0.09838867,-0.9385376,0.18963623,-0.109375,-2.78125,3.0625,329
330,1695772447511,-0.07861328,-0.9944458,0.21014404,1.015625,-0.1875,-0.9375,330
331,1695772447551,-0.08544922,-0.98565674,0.20111084,-1.328125,-1.109375,-2.921875,331
332,1695772447591,-0.11767578,-0.9746704,0.18988037,-3.1875,-2.796875,-0.6875,332
333,1695772447631,-0.10473633,-0.96173096,0.19866943,2.078125,-1.671875,-1.515625,333
334,1695772447671,-0.09790039,-1.0022583,0.21722412,1.046875,1.640625,-3.59375,334
335,1695772447711,-0.10473633,-1.0007935,0.19598389,-1.125,0.890625,-1.84375,335
336,1695772447751,-0.10253906,-0.98443604,0.21600342,1.84375,-0.0625,-2.078125,336
337,1695772447791,-0.13476562,-0.97979736,0.21258545,1.0625,-0.46875,-2.65625,337
338,1695772447831,-0.15039062,-0.975647,0.18499756,-1.53125,-0.609375,-0.59375,338
339,1695772447871,-0.13793945,-0.96588135,0.19622803,0.421875,0.75,-1.828125,339
340,1695772447911,-0.12988281,-0.9849243,0.18865967,0.15625,1.578125,-2.65625,340
341,1695772447951,-0.13452148,-0.97857666,0.18572998,-0.21875,-0.375,-1.046875,341
342,1695772447991,-0.13500977,-1.0007935,0.20892334,3.40625,0.09375,-1.5625,342
343,1695772448031,-0.15917969,-1.0110474,0.17523193,-4.734375,-0.46875,-1.265625,343
344,1695772448071,-0.14746094,-0.9458618,0.18939209,-1.921875,1.171875,-0.25,344
345,1695772448111,-0.14233398,-0.9937134,0.20941162,2.703125,1.015625,0.671875,345
346,1695772448151,-0.1574707,-1.0178833,0.18695068,-1.84375,-0.25,0.890625,346
347,1695772448191,-0.11352539,-0.96710205,0.19085693,-1.15625,1.296875,-2.390625,347
348,1695772448231,-0.12817383,-0.9932251,0.1749878,0.9375,1.609375,0.015625,348
349,1695772448271,-0.12963867,-0.9690552,0.18817139,-0.265625,1.015625,1.875,349
350,1695772448311,-0.1430664,-0.9866333,0.20843506,0.421875,0.3125,0.578125,350
351,1695772448351,-0.14428711,-1.0122681,0.19403076,-2.296875,1.046875,1.796875,351
352,1695772448391,-0.12646484,-0.96295166,0.20037842,-1.796875,2.359375,0.375,352
353,1695772448431,-0.13549805,-0.986145,0.19085693,-0.53125,1.078125,1.546875,353
354,1695772448471,-0.1184082,-0.9837036,0.18621826,-2.609375,1.375,1.921875,354
355,1695772448511,-0.13867188,-0.9973755,0.19573975,-1.078125,1.5,5.046875,355
356,1695772448551,-0.10668945,-0.9480591,0.20379639,-1.03125,1.703125,2.109375,356
357,1695772448591,-0.10498047,-1.0134888,0.19476318,-0.125,2.140625,2.65625,357
358,1695772448631,-0.11328125,-0.9678345,0.1906128,-1.828125,1.984375,2.890625,358
359,1695772448671,-0.092285156,-0.9871216,0.20574951,-3.4375,0.625,1.09375,359
360,1695772448711,-0.099853516,-1.0327759,0.20599365,-3.21875,-0.390625,4.984375,360
361,1695772448751,-0.08544922,-0.942688,0.2218628,-2.421875,1.40625,2.109375,361
362,1695772448791,-0.064697266,-1.000061,0.19012451,-1.78125,3.421875,-1.046875,362
363,1695772448831,-0.083496094,-0.96343994,0.22210693,-0.171875,0.421875,2.796875,363
364,1695772448871,-0.064453125,-0.95440674,0.20843506,-3.484375,-1.046875,-0.71875,364
365,1695772448911,-0.068603516,-1.008606,0.21722412,-2.109375,-2.390625,-0.375,365
366,1695772448951,-0.10473633,-1.0042114,0.24700928,0.015625,-0.53125,1.1875,366
367,1695772448991,-0.09716797,-0.9697876,0.21746826,-2.71875,-0.265625,0.078125,367
368,1695772449031,-0.10839844,-0.960022,0.22161865,-1.21875,-0.734375,-0.90625,368
369,1695772449071,-0.092041016,-0.9961548,0.22015381,-1.15625,1.53125,-2.96875,369
370,1695772449111,-0.09448242,-0.96295166,0.2111206,-1.78125,-1.625,-2.421875,370
371,1695772449151,-0.087402344,-1.0090942,0.2321167,2.015625,1.015625,-2.3125,371
372,1695772449191,-0.08862305,-0.9939575,0.22747803,-0.375,-0.453125,-0.765625,372
373,1695772449231,-0.10107422,-0.958313,0.21746826,-3.09375,-0.671875,-1.296875,373
374,1695772449271,-0.09716797,-0.987854,0.21356201,0.359375,-0.921875,-2.109375,374
375,1695772449311,-0.107910156,-0.97540283,0.23944092,-0.0625,-0.5,-1.078125,375
376,1695772449351,-0.08203125,-0.98883057,0.22137451,-1.328125,-0.09375,-4.765625,376
377,1695772449391,-0.07446289,-0.9873657,0.20599365,0.4375,-1.046875,-5.875,377
378,1695772449431,-0.115478516,-0.97906494,0.22601318,0.15625,-1.328125,-3.34375,378
379,1695772449471,-0.1328125,-0.991272,0.20941162,1.328125,-0.921875,-2.890625,379
380,1695772449511,-0.13623047,-0.9619751,0.2514038,1.203125,-0.453125,-4.921875,380
381,1695772449551,-0.12084961,-1.0134888,0.17816162,-4.59375,-0.015625,-9.359375,381
382,1695772449591,-0.1262207,-0.96759033,0.26727295,4.234375,1.625,-4.3125,382
383,1695772449631,-0.17919922,-1.0164185,0.22723389,0.28125,-0.484375,-5.984375,383
384,1695772449671,-0.21801758,-0.9348755,0.2008667,-2.453125,-1.25,0.515625,384
385,1695772449711,-0.15942383,-0.95562744,0.19281006,5.765625,-0.53125,-3.140625,385
386,1695772449751,-0.1809082,-1.0408325,0.20159912,8.71875,3.40625,5.546875,386
387,1695772449791,-0.17089844,-0.91607666,0.17279053,4.109375,3.6875,0.8125,387
388,1695772449831,-0.16870117,-0.97906494,0.12957764,0.953125,1.921875,-2.484375,388
389,1695772449871,-0.13354492,-0.9456177,0.18450928,2.375,1.765625,-0.65625,389
390,1695772449911,-0.14379883,-1.0540161,0.17816162,-1.625,-1.890625,1.96875,390
391,1695772449951,-0.14916992,-0.9710083,0.1864624,4.203125,2.3125,1.8125,391
392,1695772449991,-0.16699219,-1.0142212,0.18133545,-1.671875,1.609375,1.171875,392
393,1695772450031,-0.1652832,-0.94781494,0.1642456,-0.328125,0.515625,3.140625,393
394,1695772450071,-0.11987305,-1.0100708,0.15985107,-1.25,-0.71875,-0.5,394
395,1695772450111,-0.12573242,-0.99835205,0.18841553,0.09375,2.9375,2.578125,395
396,1695772450151,-0.14038086,-1.0022583,0.17401123,-1.453125,2.5625,3.421875,396
397,1695772450191,-0.13842773,-0.95318604,0.16790771,-1.03125,2.0,2.15625,397
398,1695772450231,-0.10595703,-0.96588135,0.16693115,-0.46875,3.109375,-0.484375,398
399,1695772450271,-0.12133789,-1.0071411,0.1864624,-0.15625,2.3125,2.625,399
400,1695772450311,-0.13671875,-1.0007935,0.1828003,-0.890625,0.484375,3.359375,400
401,1695772450351,-0.13305664,-0.9758911,0.15765381,-3.359375,1.75,-0.25,401
402,1695772450391,-0.092041016,-0.99224854,0.18206787,-0.078125,3.578125,0.171875,402
403,1695772450431,-0.1159668,-0.99298096,0.16644287,-0.6875,2.03125,2.4375,403
404,1695772450471,-0.12207031,-0.98272705,0.17474365,-5.71875,2.09375,2.1875,404
405,1695772450511,-0.12060547,-1.0039673,0.1954956,-1.109375,1.171875,2.5625,405
406,1695772450551,-0.09863281,-0.9956665,0.1942749,-1.6875,2.265625,1.359375,406
407,1695772450591,-0.084472656,-0.97857666,0.19940186,-0.59375,0.953125,0.453125,407
408,1695772450631,-0.1027832,-0.9981079,0.19207764,-2.6875,-1.53125,-0.375,408
409,1695772450671,-0.09301758,-0.9595337,0.19207764,-3.875,-3.3125,1.0,409
410,1695772450711,-0.084228516,-1.0015259,0.20306396,-5.859375,-4.765625,1.03125,410
411,1695772450751,-0.08935547,-0.9795532,0.2033081,-4.234375,-4.46875,0.03125,411
412,1695772450791,-0.11425781,-0.9944458,0.22235107,-5.03125,-3.171875,0.09375,412
413,1695772450831,-0.11669922,-0.95147705,0.20892334,-3.890625,-1.3125,1.03125,413
414,1695772450871,-0.110839844,-0.96221924,0.21185303,-1.40625,-2.140625,0.984375,414
415,1695772450911,-0.11987305,-0.9578247,0.21942139,-3.625,-1.40625,-0.40625,415
416,1695772450951,-0.099365234,-1.0032349,0.21746826,-3.34375,-0.5,-1.796875,416
417,1695772450991,-0.09765625,-1.0149536,0.2453003,-0.125,0.453125,0.578125,417
418,1695772451031,-0.08325195,-0.9846802,0.22454834,-1.765625,1.6875,1.125,418
419,1695772451071,-0.0871582,-0.9480591,0.2230835,-3.40625,0.359375,-2.09375,419
420,1695772451111,-0.11743164,-0.987854,0.24017334,-1.328125,-0.78125,-1.078125,420
421,1695772451151,-0.092041016,-0.9763794,0.24041748,-1.265625,-0.6875,-1.796875,421
422,1695772451191,-0.07373047,-0.98101807,0.24749756,0.5625,0.140625,-1.703125,422
423,1695772451231,-0.0703125,-0.9727173,0.25213623,2.90625,-2.0,-2.65625,423
424,1695772451271,-0.11352539,-0.9602661,0.21722412,1.046875,-1.828125,-4.265625,424
425,1695772451311,-0.11035156,-0.9956665,0.21429443,2.890625,-2.75,-4.828125,425
426,1695772451351,-0.14941406,-0.99420166,0.25238037,3.6875,0.578125,-1.453125,426
427,1695772451391,-0.1430664,-1.0042114,0.2255249,3.640625,1.421875,-1.125,427
428,1695772451431,-0.16064453,-0.958313,0.21307373,2.34375,2.46875,-2.390625,428
429,1695772451471,-0.13085938,-0.9702759,0.19403076,4.15625,4.90625,-4.15625,429
430,1695772451511,-0.14624023,-0.9602661,0.18914795,2.921875,1.828125,-1.578125,430
431,1695772451551,-0.12719727,-1.0090942,0.1828003,3.859375,2.234375,-2.1875,431
432,1695772451591,-0.14111328,-0.98272705,0.18865967,3.03125,1.40625,0.765625,432
433,1695772451631,-0.12792969,-0.9944458,0.17034912,3.21875,1.03125,-0.28125,433
434,1695772451671,-0.13500977,-1.0073853,0.16546631,1.15625,-0.703125,1.453125,434
435,1695772451711,-0.13378906,-0.97540283,0.17523193,-0.953125,-0.75,-1.421875,435
436,1695772451751,-0.13598633,-1.0127563,0.16082764,0.21875,-0.265625,-1.015625,436
437,1695772451791,-0.13012695,-0.98321533,0.16937256,1.765625,-0.578125,-0.09375,437
438,1695772451831,-0.14916992,-0.989563,0.16448975,-0.96875,-0.0625,-0.4375,438
439,1695772451871,-0.15112305,-0.9553833,0.16204834,1.125,-0.015625,-1.0,439
440,1695772451911,-0.1171875,-1.0195923,0.16790771,0.140625,1.515625,-3.40625,440
441,1695772451951,-0.14526367,-0.9690552,0.17327881,-2.984375,0.859375,-1.46875,441
442,1695772451991,-0.1484375,-0.9776001,0.17547607,-1.640625,3.078125,-3.03125,442
443,1695772452031,-0.13549805,-0.9800415,0.18060303,0.765625,3.34375,-0.640625,443
444,1695772452071,-0.1352539,-0.96588135,0.1786499,0.671875,2.125,-0.90625,444
445,1695772452111,-0.17382812,-1.0271606,0.18157959,0.21875,0.734375,0.03125,445
446,1695772452151,-0.1665039,-1.0027466,0.18231201,-0.28125,1.296875,-1.03125,446
447,1695772452191,-0.17822266,-0.9890747,0.16595459,-2.515625,3.015625,-2.0625,447
448,1695772452231,-0.123535156,-0.95391846,0.1564331,0.71875,3.203125,-0.390625,448
449,1695772452271,-0.13916016,-0.9846802,0.15887451,-1.203125,1.25,-0.546875,449
450,1695772452311,-0.13598633,-0.97979736,0.17034912,-0.890625,2.421875,1.796875,450
451,1695772452351,-0.16601562,-0.9873657,0.17938232,2.015625,2.46875,3.984375,451
452,1695772452391,-0.16186523,-0.98272705,0.1630249,-1.21875,2.703125,-1.140625,452
453,1695772452431,-0.13378906,-0.9834595,0.1708374,-0.421875,3.78125,-0.75,453
454,1695772452471,-0.115234375,-0.9866333,0.17767334,3.75,2.171875,0.578125,454
455,1695772452511,-0.13305664,-0.98931885,0.18133545,-0.1875,1.0625,0.28125,455
456,1695772452551,-0.16235352,-0.9902954,0.15350342,-3.359375,-1.328125,1.859375,456
457,1695772452591,-0.14135742,-0.973938,0.16033936,0.125,-0.0625,-0.34375,457
458,1695772452631,-0.13793945,-1.0007935,0.17376709,1.984375,3.015625,1.421875,458
459,1695772452671,-0.12036133,-0.9973755,0.14544678,0.046875,1.875,2.203125,459
460,1695772452711,-0.118652344,-0.9949341,0.16375732,-0.703125,1.515625,-0.21875,460
461,1695772452751,-0.12426758,-0.9961548,0.14593506,1.328125,0.515625,1.453125,461
462,1695772452791,-0.12768555,-0.96759033,0.15545654,1.4375,1.875,-0.4375,462
463,1695772452831,-0.1105957,-1.0059204,0.16033936,0.40625,0.296875,-2.484375,463
464,1695772452871,-0.1274414,-0.9976196,0.15814209,-0.359375,-0.859375,0.140625,464
465,1695772452911,-0.14550781,-0.98638916,0.17327881,0.265625,-0.328125,1.40625,465
466,1695772452951,-0.13964844,-0.987854,0.16253662,-1.546875,1.109375,-0.015625,466
467,1695772452991,-0.15405273,-0.972229,0.15740967,-2.484375,1.25,-1.75,467
468,1695772453031,-0.12426758,-0.99298096,0.152771,-0.71875,0.0,-2.890625,468
469,1695772453071,-0.11376953,-1.0108032,0.15423584,-0.828125,-1.3125,-1.09375,469
470,1695772453111,-0.1352539,-0.9780884,0.17523193,2.921875,-0.5,1.265625,470
471,1695772453151,-0.1472168,-0.98272705,0.13812256,-4.46875,-1.515625,-1.578125,471
472,1695772453191,-0.14233398,-0.96881104,0.16497803,0.75,-0.859375,-0.140625,472
473,1695772453231,-0.1508789,-1.0020142,0.16522217,-1.015625,1.203125,1.59375,473
474,1695772453271,-0.12963867,-0.9873657,0.16937256,-1.71875,-0.03125,1.421875,474
475,1695772453311,-0.1340332,-0.9883423,0.1449585,-2.875,1.078125,-1.0,475
476,1695772453351,-0.14013672,-0.9907837,0.15106201,-2.0625,-0.34375,0.375,476
477,1695772453391,-0.12646484,-0.99005127,0.1708374,-0.640625,1.859375,4.125,477
478,1695772453431,-0.111328125,-0.99053955,0.17279053,-1.84375,0.828125,3.5,478
479,1695772453471,-0.13500977,-1.0154419,0.17254639,-1.546875,-0.421875,4.59375,479
480,1695772453511,-0.114746094,-0.9546509,0.16522217,-0.53125,1.671875,2.921875,480
481,1695772453551,-0.09033203,-0.9800415,0.16741943,-4.453125,-0.21875,1.46875,481
482,1695772453591,-0.087646484,-0.98516846,0.1774292,-2.671875,-0.953125,2.234375,482
483,1695772453631,-0.068847656,-0.9812622,0.17889404,-0.765625,-1.328125,0.484375,483
484,1695772453671,-0.099609375,-1.0147095,0.19891357,-4.171875,-5.296875,-3.96875,484
485,1695772453711,-0.07861328,-0.9807739,0.18255615,-3.09375,-5.78125,-5.875,485
486,1695772453751,-0.104003906,-0.99713135,0.17474365,-5.0,-4.3125,-5.1875,486
487,1695772453791,-0.12988281,-0.9639282,0.21673584,2.5625,-5.859375,-0.828125,487
488,1695772453831,-0.125,-0.9614868,0.19866943,-1.203125,-4.296875,-6.4375,488
489,1695772453871,-0.13598633,-1.0012817,0.18157959,-0.15625,-3.921875,-4.015625,489
490,1695772453911,-0.15551758,-0.9697876,0.19525146,1.796875,-3.375,-3.515625,490
491,1695772453951,-0.18432617,-0.99835205,0.18597412,-0.984375,-0.734375,-1.3125,491
492,1695772453991,-0.14892578,-0.9505005,0.19696045,2.75,1.59375,-2.828125,492
493,1695772454031,-0.15649414,-1.0205688,0.18255615,1.125,1.578125,-3.71875,493
494,1695772454071,-0.1743164,-0.9619751,0.16571045,-0.375,-0.578125,-1.015625,494
495,1695772454111,-0.1953125,-0.97979736,0.16351318,-1.578125,1.046875,0.421875,495
496,1695772454151,-0.17358398,-0.98687744,0.1564331,2.125,2.625,1.921875,496
497,1695772454191,-0.16357422,-1.0042114,0.16619873,-2.078125,2.03125,-0.609375,497
498,1695772454231,-0.15063477,-0.9956665,0.16741943,-1.640625,3.78125,3.5,498
499,1695772454271,-0.15771484,-0.9524536,0.16351318,-4.5625,1.484375,3.28125,499
500,1695772454311,-0.14257812,-0.97784424,0.15740967,-5.328125,3.90625,3.546875,500
501,1695772454351,-0.15942383,-1.038147,0.19940186,0.625,1.703125,10.015625,501
502,1695772454391,-0.14135742,-1.0117798,0.20648193,-4.640625,3.703125,8.0,502
503,1695772454431,-0.09716797,-0.98565674,0.1864624,-3.9375,3.0,4.84375,503
504,1695772454471,-0.05908203,-0.954895,0.19281006,-3.84375,2.453125,4.328125,504
505,1695772454511,-0.092041016,-0.9612427,0.20379639,-1.578125,-0.078125,6.40625,505
506,1695772454551,-0.048339844,-0.95977783,0.20916748,-2.640625,-1.140625,2.890625,506
507,1695772454591,-0.03540039,-0.9976196,0.19940186,-3.46875,-3.390625,4.515625,507
508,1695772454631,-0.07421875,-0.94976807,0.22479248,-3.0625,-6.296875,4.25,508
509,1695772454671,-0.05810547,-0.96466064,0.23895264,-0.59375,-0.828125,2.4375,509
510,1695772454711,-0.08520508,-0.94610596,0.25335693,3.296875,-1.515625,1.765625,510
511,1695772454751,-0.005126953,-1.0808716,0.27679443,-4.828125,-0.015625,-7.4375,511
512,1695772454791,-0.07495117,-1.0396118,0.26287842,-7.1875,-2.484375,0.6875,512
513,1695772454831,-0.078125,-0.9678345,0.19769287,1.09375,-0.78125,-6.96875,513
514,1695772454871,-0.087402344,-0.90509033,0.22113037,6.90625,-5.359375,-3.921875,514
515,1695772454911,-0.10839844,-1.0615845,0.24432373,3.328125,-1.671875,-2.765625,515
516,1695772454951,-0.10668945,-0.92144775,0.17181396,3.546875,-1.21875,1.125,516
517,1695772454991,-0.103515625,-0.9356079,0.1395874,5.15625,3.015625,-9.171875,517
518,1695772455031,-0.11254883,-0.97784424,0.19696045,9.703125,3.015625,-5.609375,518
519,1695772455071,-0.095947266,-1.0559692,0.20233154,7.203125,2.703125,0.859375,519
520,1695772455111,-0.14233398,-0.9812622,0.14056396,-4.3125,1.375,0.5625,520
521,1695772455151,-0.095458984,-0.9668579,0.17230225,3.296875,4.859375,-9.125,521
522,1695772455191,-0.11352539,-1.050354,0.16571045,1.515625,3.40625,-1.21875,522
523,1695772455231,-0.13842773,-0.9338989,0.1449585,2.09375,2.171875,-1.0625,523
524,1695772455271,-0.17626953,-0.9859009,0.14569092,-1.53125,1.53125,-3.84375,524
525,1695772455311,-0.13989258,-1.0244751,0.15179443,-1.53125,2.859375,-1.578125,525
526,1695772455351,-0.15014648,-1.0444946,0.1642456,-1.671875,2.453125,3.640625,526
527,1695772455391,-0.14135742,-0.97369385,0.1473999,-1.34375,4.96875,6.421875,527
528,1695772455431,-0.11352539,-1.013977,0.1593628,-4.328125,3.953125,4.875,528
529,1695772455471,-0.064208984,-1.0095825,0.16644287,-4.203125,4.390625,5.328125,529
530,1695772455511,-0.09082031,-0.99591064,0.17010498,-6.171875,0.328125,4.421875,530
531,1695772455551,-0.075927734,-0.98028564,0.18011475,-3.5,-1.09375,2.015625,531
532,1695772455591,-0.0703125,-0.9397583,0.20013428,-3.359375,-2.359375,1.15625,532
533,1695772455631,-0.06616211,-0.9727173,0.20697021,-1.34375,-2.046875,5.0625,533
534,1695772455671,-0.061035156,-0.9356079,0.19647217,-2.140625,-6.34375,-0.078125,534
535,1695772455711,-0.08227539,-0.98760986,0.18450928,-4.4375,-6.703125,-2.34375,535
536,1695772455751,-0.08862305,-1.0149536,0.2296753,-3.359375,-5.859375,-2.890625,536
537,1695772455791,-0.09375,-1.0147095,0.22210693,0.765625,-3.046875,-1.09375,537
538,1695772455831,-0.08300781,-0.944397,0.20281982,-0.25,-0.671875,-5.21875,538
539,1695772455871,-0.12402344,-0.9631958,0.18963623,-2.59375,0.078125,-2.53125,539
540,1695772455911,-0.1328125,-0.9507446,0.20428467,3.625,1.8125,2.0625,540
541,1695772455951,-0.07763672,-0.98565674,0.22479248,1.75,4.375,-3.984375,541
542,1695772455991,-0.06713867,-1.0505981,0.2020874,0.75,-0.03125,-4.09375,542
543,1695772456031,-0.109375,-0.95977783,0.18719482,-0.84375,0.140625,-0.609375,543
544,1695772456071,-0.107666016,-0.9834595,0.17547607,0.90625,-1.109375,-0.640625,544
545,1695772456111,-0.11694336,-0.956604,0.20184326,2.015625,1.140625,0.21875,545
546,1695772456151,-0.13208008,-1.0247192,0.19622803,1.234375,1.9375,-3.203125,546
547,1695772456191,-0.118896484,-0.9819946,0.16668701,-1.015625,1.640625,-4.890625,547
548,1695772456231,-0.1430664,-0.9661255,0.19940186,2.796875,2.34375,-0.9375,548
549,1695772456271,-0.1003418,-1.0393677,0.18719482,6.71875,0.09375,-1.578125,549
550,1695772456311,-0.15405273,-0.9758911,0.14569092,-6.5625,-4.5,1.515625,550
551,1695772456351,-0.10424805,-0.9534302,0.14886475,4.359375,-0.296875,-1.75,551
552,1695772456391,-0.09741211,-0.9859009,0.16986084,0.015625,2.46875,-0.203125,552
553,1695772456431,-0.11010742,-0.9819946,0.15887451,0.765625,-0.6875,-0.234375,553
554,1695772456471,-0.13769531,-0.9780884,0.17449951,-0.53125,-3.796875,-4.046875,554
555,1695772456511,-0.1352539,-1.0110474,0.15423584,-3.625,2.234375,-3.203125,555
556,1695772456551,-0.13183594,-1.0315552,0.19866943,1.28125,4.5625,4.984375,556
557,1695772456591,-0.15991211,-0.9834595,0.14031982,-5.5,4.3125,5.65625,557
558,1695772456631,-0.111572266,-0.9619751,0.1383667,-3.640625,4.609375,-0.390625,558
559,1695772456671,-0.049560547,-0.99591064,0.1930542,-0.953125,3.734375,-4.046875,559
560,1695772456711,-0.037841797,-0.9812622,0.18621826,-3.234375,-2.34375,-5.09375,560
561,1695772456751,-0.12695312,-0.9951782,0.18743896,-3.40625,-5.34375,0.34375,561
562,1695772456791,-0.1940918,-0.9741821,0.20941162,-2.28125,-4.40625,5.3125,562
563,1695772456831,-0.15283203,-0.9768677,0.21063232,-3.53125,1.296875,1.859375,563
564,1695772456871,-0.12548828,-0.9866333,0.20794678,-1.890625,0.234375,0.734375,564
565,1695772456911,-0.103515625,-0.98931885,0.20111084,-3.359375,2.65625,-4.65625,565
566,1695772456951,-0.09814453,-0.9871216,0.19281006,-1.390625,1.59375,-0.203125,566
567,1695772456991,-0.079833984,-0.9763794,0.17694092,-4.234375,-0.59375,-0.84375,567
568,1695772457031,-0.11791992,-0.9837036,0.20770264,-1.6875,-2.1875,3.671875,568
569,1695772457071,-0.12231445,-0.93170166,0.2321167,-1.953125,-2.171875,1.609375,569
570,1695772457111,-0.11376953,-0.98516846,0.19281006,-7.234375,-5.453125,-3.734375,570
571,1695772457151,-0.12231445,-1.0159302,0.22601318,0.03125,-6.921875,-3.03125,571
572,1695772457191,-0.109375,-1.0029907,0.23626709,-2.859375,-3.671875,-3.015625,572
573,1695772457231,-0.12988281,-1.0007935,0.21380615,-1.078125,-5.0,2.46875,573
574,1695772457271,-0.15722656,-0.94366455,0.23040771,0.34375,-4.859375,3.3125,574
575,1695772457311,-0.12475586,-0.956604,0.20062256,-2.96875,-0.375,-2.046875,575
576,1695772457351,-0.09863281,-0.9927368,0.21209717,0.515625,-1.84375,-2.109375,576
577,1695772457391,-0.1315918,-1.0042114,0.24456787,0.359375,-1.609375,-1.1875,577
578,1695772457431,-0.13964844,-0.9937134,0.2164917,-2.40625,-0.84375,-0.5,578
579,1695772457471,-0.1159668,-0.96832275,0.21063232,0.203125,1.15625,-2.0,579
580,1695772457511,-0.12548828,-0.9727173,0.21282959,0.140625,0.578125,-0.578125,580
581,1695772457551,-0.13305664,-0.95806885,0.21673584,0.734375,0.671875,-0.28125,581
582,1695772457591,-0.1171875,-0.97906494,0.21380615,1.828125,2.375,-1.921875,582
583,1695772457631,-0.10595703,-1.0117798,0.20721436,-1.421875,0.265625,-1.1875,583
584,1695772457671,-0.12084961,-1.0066528,0.20941162,0.515625,1.671875,1.5,584
585,1695772457711,-0.13012695,-0.9768677,0.21551514,0.53125,0.890625,-0.140625,585
586,1695772457751,-0.15649414,-0.9834595,0.19793701,-0.875,0.25,-3.34375,586
587,1695772457791,-0.13305664,-0.9768677,0.21160889,-1.546875,2.4375,-4.84375,587
588,1695772457831,-0.11816406,-0.98272705,0.20916748,2.390625,1.5625,-2.28125,588
589,1695772457871,-0.14868164,-0.9768677,0.20501709,0.234375,2.25,-0.5,589
590,1695772457911,-0.15283203,-0.9859009,0.2020874,-0.25,1.765625,-0.484375,590
591,1695772457951,-0.1394043,-0.99835205,0.21575928,1.15625,2.765625,-0.4375,591
592,1695772457991,-0.14160156,-0.97247314,0.20111084,-0.40625,1.90625,-0.09375,592
593,1695772458031,-0.13745117,-0.98565674,0.17010498,-5.140625,-0.421875,-3.421875,593
594,1695772458071,-0.13427734,-1.0198364,0.26507568,8.40625,4.359375,0.140625,594
595,1695772458111,-0.16210938,-1.045227,0.20526123,2.078125,2.03125,4.1875,595
596,1695772458151,-0.17749023,-0.8945923,0.17889404,0.515625,-1.75,0.65625,596
597,1695772458191,-0.10498047,-0.940979,0.17059326,3.59375,-0.640625,-1.953125,597
598,1695772458231,-0.123046875,-1.0025024,0.184021,-3.953125,0.25,-3.25,598
599,1695772458271,-0.14501953,-0.97076416,0.18182373,-1.609375,-3.90625,-0.796875,599
600,1695772458311,-0.15820312,-0.9939575,0.21185303,-1.1875,-2.03125,-3.078125,600
601,1695772458351,-0.13598633,-1.0032349,0.19647217,-0.734375,0.6875,-1.46875,601
602,1695772458391,-0.1472168,-0.9553833,0.17230225,-3.015625,-0.75,1.0,602
603,1695772458431,-0.16455078,-0.9746704,0.19891357,-0.015625,-2.015625,0.875,603
604,1695772458471,-0.17260742,-0.9819946,0.21038818,-2.828125,-1.46875,-2.453125,604
605,1695772458511,-0.15942383,-1.0054321,0.20721436,-0.3125,2.1875,-2.1875,605
606,1695772458551,-0.1496582,-0.9873657,0.19818115,-0.8125,1.125,0.5625,606
607,1695772458591,-0.15307617,-0.96173096,0.19012451,-0.625,0.09375,1.203125,607
608,1695772458631,-0.15063477,-0.9783325,0.18988037,-1.484375,-0.125,-0.84375,608
609,1695772458671,-0.14868164,-0.9990845,0.20379639,-0.375,-0.046875,-0.09375,609
610,1695772458711,-0.12548828,-0.9927368,0.19769287,-1.3125,-0.078125,-1.765625,610
611,1695772458751,-0.15454102,-0.989563,0.20404053,-0.234375,-0.25,0.984375,611
612,1695772458791,-0.15625,-0.95269775,0.19451904,-0.09375,0.203125,1.328125,612
613,1695772458831,-0.15307617,-0.97076416,0.19085693,-2.34375,-0.1875,-1.421875,613
614,1695772458871,-0.14355469,-0.9932251,0.19744873,0.53125,-0.125,-0.828125,614
615,1695772458911,-0.13574219,-0.99005127,0.21209717,0.71875,-0.09375,-1.125,615
616,1695772458951,-0.14575195,-0.9817505,0.19720459,0.53125,0.140625,-0.96875,616
617,1695772458991,-0.1484375,-0.9434204,0.19329834,-1.078125,-0.359375,-3.3125,617
618,1695772459031,-0.140625,-0.9780884,0.19647217,2.65625,-0.875,-2.296875,618
619,1695772459071,-0.18334961,-1.0020142,0.18377686,0.359375,-1.265625,0.78125,619
620,1695772459111,-0.18017578,-0.99713135,0.19378662,-0.734375,0.078125,-1.828125,620
621,1695772459151,-0.16992188,-0.97491455,0.19085693,1.984375,2.34375,-2.28125,621
622,1695772459191,-0.1887207,-0.98760986,0.18035889,2.953125,1.390625,-0.328125,622
623,1695772459231,-0.18896484,-0.97369385,0.16888428,0.734375,4.125,0.625,623
624,1695772459271,-0.16772461,-0.99884033,0.15325928,-3.234375,2.859375,-0.046875,624
625,1695772459311,-0.16577148,-1.008606,0.18060303,0.875,3.75,4.78125,625
626,1695772459351,-0.14892578,-0.9849243,0.17645264,-2.28125,2.21875,2.140625,626
627,1695772459391,-0.12963867,-0.960022,0.1942749,0.265625,2.359375,0.296875,627
628,1695772459431,-0.1550293,-1.0320435,0.18890381,-1.265625,2.953125,5.1875,628
629,1695772459471,-0.19750977,-0.94488525,0.19915771,-0.703125,-1.015625,7.765625,629
630,1695772459511,-0.11230469,-0.989563,0.18743896,2.0625,3.671875,0.015625,630
631,1695772459551,-0.08300781,-1.0071411,0.18597412,1.21875,4.609375,2.390625,631
632,1695772459591,-0.11621094,-0.940979,0.1852417,-3.328125,1.6875,0.828125,632
633,1695772459631,-0.11401367,-0.9793091,0.17327881,-1.5625,-2.125,-0.171875,633
634,1695772459671,-0.11376953,-1.013977,0.19256592,-2.015625,-1.078125,2.140625,634
635,1695772459711,-0.110839844,-1.0022583,0.1918335,-2.671875,-2.828125,0.90625,635
636,1695772459751,-0.10668945,-0.98931885,0.18255615,-2.578125,-0.890625,-2.75,636
637,1695772459791,-0.14428711,-0.9746704,0.18817139,-1.1875,-1.1875,-0.515625,637
638,1695772459831,-0.14453125,-0.95391846,0.18548584,-0.328125,-1.4375,0.90625,638
639,1695772459871,-0.11450195,-0.98443604,0.20697021,2.40625,1.171875,-1.1875,639
640,1695772459911,-0.115234375,-1.0054321,0.20159912,1.734375,0.421875,-0.015625,640
641,1695772459951,-0.100097656,-0.97857666,0.17376709,-3.125,-1.265625,-4.296875,641
642,1695772459991,-0.1484375,-0.9807739,0.18548584,-2.9375,-1.015625,-3.171875,642
643,1695772460031,-0.12939453,-1.003479,0.20892334,2.328125,0.09375,-0.78125,643
644,1695772460071,-0.12207031,-0.9788208,0.18817139,0.28125,1.421875,0.28125,644
645,1695772460111,-0.12451172,-0.9898071,0.16278076,0.640625,-0.625,-1.75,645
646,1695772460151,-0.1652832,-0.98272705,0.20501709,-0.109375,0.734375,-0.890625,646
647,1695772460191,-0.16430664,-0.96466064,0.17352295,-0.25,3.28125,-0.46875,647
648,1695772460231,-0.13085938,-0.9866333,0.1696167,1.328125,1.890625,-2.640625,648
649,1695772460271,-0.122558594,-1.0071411,0.19647217,3.46875,3.546875,0.3125,649
650,1695772460311,-0.14282227,-0.9973755,0.18109131,0.578125,1.53125,-0.390625,650
651,1695772460351,-0.14819336,-0.96466064,0.16522217,-0.34375,2.53125,-2.359375,651
652,1695772460391,-0.14013672,-0.95977783,0.16912842,2.875,2.609375,-1.15625,652
653,1695772460431,-0.12060547,-1.0161743,0.17767334,0.65625,1.359375,0.703125,653
654,1695772460471,-0.15283203,-1.0117798,0.17181396,-1.359375,1.828125,2.5625,654
655,1695772460511,-0.15722656,-0.96954346,0.17303467,0.046875,2.921875,0.8125,655
656,1695772460551,-0.1352539,-0.975647,0.15008545,-2.53125,2.40625,-1.6875,656
657,1695772460591,-0.14404297,-0.98931885,0.16009521,-0.78125,0.328125,1.640625,657
658,1695772460631,-0.13354492,-0.9817505,0.1720581,-3.09375,0.84375,-0.109375,658
659,1695772460671,-0.13720703,-1.0056763,0.16864014,-3.046875,0.171875,0.46875,659
660,1695772460711,-0.14404297,-0.97613525,0.1876831,0.921875,1.671875,1.796875,660
661,1695772460751,-0.13720703,-0.9846802,0.17010498,-2.078125,1.015625,-0.53125,661
662,1695772460791,-0.12475586,-0.97662354,0.1618042,-1.890625,0.15625,1.0,662
663,1695772460831,-0.11279297,-0.98394775,0.17425537,-3.703125,0.546875,-0.390625,663
664,1695772460871,-0.14331055,-1.0061646,0.20037842,-1.609375,-0.78125,3.53125,664
665,1695772460911,-0.14477539,-0.9859009,0.19940186,-4.296875,-0.640625,2.734375,665
666,1695772460951,-0.099609375,-0.97442627,0.17694092,-7.28125,-0.6875,-1.40625,666
667,1695772460991,-0.10205078,-0.9751587,0.22821045,-0.34375,-0.0625,-2.296875,667
668,1695772461031,-0.099609375,-1.0337524,0.21380615,0.609375,-0.703125,1.015625,668
669,1695772461071,-0.17211914,-0.93707275,0.17645264,-4.171875,-7.09375,1.875,669
670,1695772461111,-0.10913086,-0.9951782,0.21185303,2.625,-2.25,-3.640625,670
671,1695772461151,-0.111816406,-1.0064087,0.20892334,1.734375,1.375,0.765625,671
672,1695772461191,-0.13232422,-0.95318604,0.17401123,-0.625,-0.03125,2.296875,672
673,1695772461231,-0.1550293,-0.92388916,0.1749878,-3.59375,-0.546875,-0.65625,673
674,1695772461271,-0.091796875,-0.9841919,0.17327881,-0.34375,-1.296875,-5.09375,674
675,1695772461311,-0.0871582,-1.0249634,0.21795654,-0.765625,-2.34375,-1.921875,675
676,1695772461351,-0.15209961,-1.0337524,0.22454834,-1.328125,-1.265625,2.03125,676
677,1695772461391,-0.15844727,-0.96295166,0.18865967,-1.03125,-0.890625,0.96875,677
678,1695772461431,-0.11743164,-0.93951416,0.17401123,-1.4375,1.125,-4.5,678
679,1695772461471,-0.10620117,-0.9902954,0.20111084,-0.1875,-0.015625,-4.140625,679
680,1695772461511,-0.12573242,-0.9639282,0.21331787,2.609375,-1.03125,-2.15625,680
681,1695772461551,-0.15454102,-0.9885864,0.19207764,-0.984375,0.109375,-3.5,681
682,1695772461591,-0.1496582,-0.9907837,0.18060303,-1.703125,-0.171875,-0.953125,682
683,1695772461631,-0.15307617,-0.97613525,0.19622803,1.859375,1.28125,0.390625,683
684,1695772461671,-0.16015625,-0.98760986,0.18157959,0.015625,1.515625,-3.46875,684
685,1695772461711,-0.14477539,-1.0286255,0.2020874,-0.796875,2.515625,-3.140625,685
686,1695772461751,-0.1772461,-0.98101807,0.20111084,0.59375,2.421875,1.125,686
687,1695772461791,-0.17749023,-0.954895,0.16693115,2.03125,0.359375,1.140625,687
688,1695772461831,-0.14526367,-0.94854736,0.18353271,2.921875,2.796875,-0.53125,688
689,1695772461871,-0.12792969,-0.9993286,0.16204834,-3.75,0.15625,-1.59375,689
690,1695772461911,-0.15576172,-0.98101807,0.1918335,-1.15625,-2.109375,-1.4375,690
691,1695772461951,-0.1628418,-0.99835205,0.18231201,-0.359375,-1.5,0.125,691
692,1695772461991,-0.15722656,-0.99957275,0.19500732,-1.890625,0.671875,0.25,692
693,1695772462031,-0.15673828,-0.9956665,0.19354248,-1.125,2.5,2.515625,693
694,1695772462071,-0.15625,-0.944397,0.17401123,-1.875,0.5,1.765625,694
695,1695772462111,-0.14404297,-0.99102783,0.21136475,0.015625,-0.75,0.0625,695
696,1695772462151,-0.14794922,-0.99786377,0.20477295,-2.953125,-1.140625,-1.1875,696
697,1695772462191,-0.14477539,-0.9800415,0.18450928,-4.265625,0.078125,-1.265625,697
698,1695772462231,-0.14501953,-0.956604,0.18353271,0.71875,0.015625,2.125,698
699,1695772462271,-0.14331055,-0.99224854,0.20428467,1.234375,-0.5,2.484375,699
700,1695772462311,-0.140625,-0.989563,0.20306396,-3.34375,0.375,0.828125,700
701,1695772462351,-0.14648438,-0.98565674,0.20037842,-2.703125,0.890625,0.671875,701
702,1695772462391,-0.1459961,-0.9824829,0.20013428,0.015625,1.34375,2.84375,702
703,1695772462431,-0.13574219,-0.97540283,0.20111084,-2.1875,0.375,3.171875,703
704,1695772462471,-0.14111328,-0.98883057,0.21160889,-1.609375,-0.078125,2.484375,704
705,1695772462511,-0.12573242,-0.9817505,0.18841553,-4.59375,0.0625,1.1875,705
706,1695772462551,-0.12695312,-0.954895,0.20111084,-1.078125,-0.484375,2.875,706
707,1695772462591,-0.11669922,-1.0090942,0.20770264,-0.015625,0.359375,0.484375,707
708,1695772462631,-0.10839844,-0.9751587,0.23040771,-2.484375,0.015625,0.3125,708
709,1695772462671,-0.09790039,-0.9795532,0.20892334,-2.984375,1.015625,-1.875,709
710,1695772462711,-0.09106445,-0.9651489,0.19378662,-2.734375,1.03125,-2.953125,710
711,1695772462751,-0.09838867,-1.0383911,0.25946045,5.28125,-0.28125,-0.03125,711
712,1695772462791,-0.15966797,-0.9512329,0.23016357,-4.453125,-4.890625,-1.4375,712
713,1695772462831,-0.11816406,-0.98150635,0.184021,-0.046875,-2.375,-3.703125,713
714,1695772462871,-0.12719727,-0.9507446,0.20550537,8.1875,2.125,2.46875,714
715,1695772462911,-0.095947266,-0.98883057,0.19158936,4.03125,2.296875,-0.328125,715
716,1695772462951,-0.13476562,-0.96954346,0.18060303,-1.5625,-2.234375,-3.015625,716
717,1695772462991,-0.1340332,-0.9751587,0.19256592,-2.0625,-2.109375,-5.921875,717
718,1695772463031,-0.11303711,-1.020813,0.21209717,1.90625,-0.9375,-8.171875,718
719,1695772463071,-0.15185547,-0.9873657,0.18914795,-0.1875,-0.4375,-2.78125,719
720,1695772463111,-0.19897461,-0.97857666,0.19378662,-1.390625,-0.359375,-2.984375,720
721,1695772463151,-0.17529297,-0.9673462,0.19622803,1.546875,2.65625,-1.453125,721
722,1695772463191,-0.1538086,-0.98272705,0.1762085,-0.109375,1.40625,-1.34375,722
723,1695772463231,-0.15551758,-0.95880127,0.18231201,2.140625,1.546875,0.5,723
724,1695772463271,-0.171875,-0.9944458,0.16815186,-1.1875,0.03125,-0.984375,724
725,1695772463311,-0.17749023,-0.9981079,0.18011475,-1.734375,0.453125,1.28125,725
726,1695772463351,-0.18286133,-1.0066528,0.2111206,-1.296875,-1.1875,1.3125,726
727,1695772463391,-0.18408203,-0.9973755,0.20037842,-3.40625,2.140625,3.1875,727
728,1695772463431,-0.15698242,-0.9429321,0.17132568,-2.78125,1.828125,2.8125,728
729,1695772463471,-0.12597656,-0.9746704,0.19696045,1.015625,3.546875,1.421875,729
730,1695772463511,-0.12133789,-0.9817505,0.18695068,-0.109375,0.90625,1.515625,730
731,1695772463551,-0.14477539,-0.9951782,0.19158936,-1.0,-0.703125,4.9375,731
732,1695772463591,-0.12060547,-0.99420166,0.2033081,0.296875,1.03125,5.078125,732
733,1695772463631,-0.107421875,-0.9849243,0.19354248,-0.140625,0.515625,4.1875,733
734,1695772463671,-0.1315918,-0.98883057,0.18133545,-1.765625,-0.28125,4.734375,734
735,1695772463711,-0.1105957,-0.9483032,0.18719482,0.25,-1.21875,1.046875,735
736,1695772463751,-0.11328125,-0.9812622,0.19769287,-1.046875,-0.8125,0.78125,736
737,1695772463791,-0.099365234,-0.99224854,0.20648193,1.609375,-0.703125,1.03125,737
738,1695772463831,-0.10888672,-1.0015259,0.19769287,-0.640625,-1.375,0.09375,738
739,1695772463871,-0.09448242,-0.97662354,0.19573975,1.328125,0.640625,-1.5625,739
740,1695772463911,-0.08276367,-0.97076416,0.20404053,1.078125,-0.390625,-2.890625,740
741,1695772463951,-0.10986328,-0.9824829,0.20013428,-1.203125,0.015625,-4.421875,741
742,1695772463991,-0.11010742,-0.9976196,0.18328857,1.921875,-0.890625,-2.046875,742
743,1695772464031,-0.115722656,-0.99176025,0.1930542,1.65625,0.234375,-3.4375,743
744,1695772464071,-0.13574219,-1.0220337,0.17645264,-0.203125,0.328125,-1.125,744
745,1695772464111,-0.15258789,-0.9324341,0.18939209,0.4375,0.953125,-0.515625,745
746,1695772464151,-0.16796875,-0.9768677,0.17596436,0.78125,1.515625,-3.65625,746
747,1695772464191,-0.13061523,-1.0029907,0.15472412,-1.484375,0.09375,-2.09375,747
748,1695772464231,-0.13012695,-0.99786377,0.17816162,1.53125,2.015625,0.40625,748
749,1695772464271,-0.13696289,-0.9898071,0.17279053,-0.296875,-0.40625,-0.53125,749
750,1695772464311,-0.13330078,-0.98272705,0.18963623,-2.15625,-1.265625,-2.28125,750
751,1695772464351,-0.15917969,-1.0112915,0.2020874,-0.609375,1.65625,-0.484375,751
752,1695772464391,-0.1315918,-1.0437622,0.19256592,0.375,3.140625,1.203125,752
753,1695772464431,-0.15551758,-0.8989868,0.15130615,-3.390625,-0.328125,1.203125,753
754,1695772464471,-0.11010742,-0.98443604,0.17669678,7.734375,-0.515625,0.59375,754
755,1695772464511,-0.11035156,-0.98687744,0.17791748,6.6875,1.90625,2.03125,755
756,1695772464551,-0.12695312,-0.9939575,0.14105225,-3.359375,-0.6875,-3.09375,756
757,1695772464591,-0.13452148,-0.98638916,0.16766357,-2.328125,-0.9375,-3.359375,757
758,1695772464631,-0.13867188,-0.9981079,0.15228271,0.265625,-0.484375,-3.28125,758
759,1695772464671,-0.13842773,-0.99542236,0.17303467,-0.109375,0.078125,-1.671875,759
