,timestamp,accel_x,accel_y,accel_z,gyro_x,gyro_y,gyro_z,ind
0,1695741346299,-0.026367188,-0.9927368,0.06707764,-2.375,0.46875,-0.65625,0
1,1695741346339,-0.040283203,-0.9990845,0.06536865,-3.46875,0.609375,-1.65625,1
2,1695741346379,-0.045654297,-0.99102783,0.07879639,-0.84375,0.234375,-0.3125,2
3,1695741346419,-0.025390625,-0.99420166,0.078063965,-2.234375,0.5625,-0.421875,3
4,1695741346459,-0.030517578,-0.9976196,0.06732178,-1.015625,-1.0625,-0.640625,4
5,1695741346499,-0.036132812,-0.99298096,0.07513428,-1.375,-0.421875,-0.484375,5
6,1695741346539,-0.032226562,-0.9985962,0.07952881,-1.90625,0.640625,-0.546875,6
7,1695741346579,-0.03125,-0.99053955,0.074645996,-0.953125,-0.3125,-0.21875,7
8,1695741346619,-0.03881836,-0.9944458,0.062438965,-1.078125,-0.40625,-0.265625,8
9,1695741346659,-0.03466797,-0.99835205,0.08465576,-0.984375,0.453125,-0.5625,9
10,1695741346699,-0.034423828,-0.99957275,0.07562256,-1.25,-0.578125,-0.46875,10
11,1695741346739,-0.03930664,-0.9920044,0.08514404,-1.1875,-0.015625,-0.046875,11
12,1695741346779,-0.03955078,-0.9973755,0.07611084,-1.40625,0.171875,-0.5625,12
13,1695741346819,-0.0390625,-0.9944458,0.07098389,-0.734375,-1.265625,-0.234375,13
14,1695741346859,-0.03125,-0.986145,0.078552246,-3.203125,-0.203125,-1.28125,14
15,1695741346899,-0.037841797,-0.9998169,0.09295654,-0.5625,0.515625,-0.1875,15
16,1695741346939,-0.039794922,-0.9951782,0.08465576,-0.21875,-0.46875,-0.21875,16
17,1695741346979,-0.04296875,-0.99664307,0.0692749,-1.171875,-0.71875,-0.59375,17
18,1695741347019,-0.03930664,-0.99224854,0.093688965,-1.03125,0.515625,-0.46875,18
19,1695741347059,-0.03515625,-0.9939575,0.093933105,-0.734375,-0.0625,-0.59375,19
20,1695741347099,-0.04663086,-0.99005127,0.078552246,-1.125,-0.640625,-0.734375,20
21,1695741347139,-0.043701172,-0.99884033,0.08270264,-1.21875,0.046875,-0.640625,21
22,1695741347179,-0.03881836,-0.99884033,0.08758545,-1.515625,0.09375,-0.625,22
23,1695741347219,-0.041992188,-1.000061,0.0836792,-1.296875,-0.5,-1.09375,23
24,1695741347259,-0.042236328,-0.99053955,0.090270996,-1.484375,1.359375,-0.71875,24
25,1695741347299,-0.040527344,-0.99176025,0.08807373,-0.390625,0.109375,-0.6875,25
26,1695741347339,-0.052734375,-0.9963989,0.08416748,-0.65625,-0.3125,-0.484375,26
27,1695741347379,-0.029541016,-0.9924927,0.09197998,-1.578125,0.046875,-0.8125,27
28,1695741347419,-0.051757812,-1.0010376,0.08880615,-1.6875,-0.265625,-0.921875,28
29,1695741347459,-0.041259766,-1.0064087,0.10076904,0.171875,-0.5,-0.4375,29
30,1695741347499,-0.044921875,-0.9968872,0.0848999,-1.71875,0.71875,-0.6875,30
31,1695741347539,-0.04638672,-0.9890747,0.09173584,-0.875,-0.078125,-0.546875,31
32,1695741347579,-0.03564453,-0.9981079,0.09442139,-0.828125,0.25,-0.625,32
33,1695741347619,-0.0546875,-0.99468994,0.093688965,-0.875,0.09375,-0.578125,33
34,1695741347659,-0.045410156,-0.99224854,0.08905029,-0.8125,-0.109375,-0.21875,34
35,1695741347699,-0.043945312,-0.9985962,0.09515381,-0.75,-0.15625,-0.546875,35
36,1695741347739,-0.046142578,-0.991272,0.097839355,-0.40625,-0.40625,-0.375,36
37,1695741347779,-0.053710938,-0.99468994,0.08782959,-1.3125,0.21875,-0.46875,37
38,1695741347819,-0.047607422,-0.9990845,0.09466553,-0.828125,-0.09375,-0.25,38
39,1695741347859,-0.048339844,-0.9949341,0.098083496,-0.765625,0.1875,-0.546875,39
40,1695741347899,-0.04296875,-0.9932251,0.09246826,-0.875,-0.46875,0.078125,40
41,1695741347939,-0.045898438,-0.99053955,0.09051514,-2.015625,0.0,-0.671875,41
42,1695741347979,-0.057861328,-0.99884033,0.105163574,0.09375,0.046875,-0.28125,42
43,1695741348019,-0.051757812,-0.9981079,0.090026855,-0.8125,0.0625,-0.296875,43
44,1695741348059,-0.04638672,-0.991272,0.089538574,-0.640625,0.078125,-0.25,44
45,1695741348099,-0.043945312,-1.0005493,0.10687256,-0.859375,0.203125,-0.234375,45
46,1695741348139,-0.047607422,-1.0005493,0.0914917,-0.75,0.140625,-0.34375,46
47,1695741348179,-0.055419922,-0.99957275,0.09539795,-0.5,0.265625,-0.078125,47
48,1695741348219,-0.052246094,-1.0005493,0.08831787,-0.5,-0.34375,0.03125,48
49,1695741348259,-0.04736328,-0.99468994,0.09613037,-0.4375,-0.046875,-0.375,49
50,1695741348299,-0.044189453,-0.9985962,0.093933105,0.375,-0.203125,-0.296875,50
51,1695741348339,-0.048095703,-0.9993286,0.09710693,-0.15625,-0.234375,0.109375,51
52,1695741348379,-0.042236328,-0.9920044,0.0914917,0.015625,0.546875,-0.3125,52
53,1695741348419,-0.053955078,-0.98394775,0.08026123,1.546875,-0.15625,0.1875,53
54,1695741348459,-0.047851562,-0.99542236,0.090026855,-1.359375,0.609375,-0.453125,54
55,1695741348499,-0.055419922,-0.98931885,0.08782959,-0.046875,0.359375,-0.140625,55
56,1695741348539,-0.04248047,-0.99102783,0.09197998,0.34375,0.15625,0.0,56
57,1695741348579,-0.045654297,-0.9949341,0.08050537,-1.015625,1.28125,-0.46875,57
58,1695741348619,-0.048583984,-0.99957275,0.093688965,-0.796875,0.546875,-0.265625,58
59,1695741348659,-0.041015625,-0.9985962,0.097839355,-1.15625,0.28125,-0.28125,59
60,1695741348699,-0.036865234,-0.9937134,0.086364746,-0.109375,0.171875,-0.109375,60
61,1695741348739,-0.045654297,-0.99053955,0.086120605,-0.421875,0.765625,0.0,61
62,1695741348779,-0.050048828,-0.9939575,0.08270264,-0.546875,0.171875,-0.25,62
63,1695741348819,-0.04638672,-0.9993286,0.08758545,-0.546875,-0.375,-0.125,63
64,1695741348859,-0.037353516,-0.99053955,0.085876465,-0.5,0.515625,-0.15625,64
65,1695741348899,-0.041992188,-0.99664307,0.09197998,0.40625,-0.109375,-0.03125,65
66,1695741348939,-0.04321289,-0.9920044,0.085876465,0.125,0.09375,0.421875,66
67,1695741348979,-0.030517578,-0.9920044,0.08123779,-0.1875,0.015625,0.109375,67
68,1695741349019,-0.045898438,-0.9902954,0.06976318,-0.375,-0.328125,-0.03125,68
69,1695741349059,-0.0390625,-0.99298096,0.09710693,1.234375,0.34375,0.34375,69
70,1695741349099,-0.039794922,-1.003479,0.07171631,-0.109375,0.078125,-0.125,70
71,1695741349139,-0.04638672,-1.000061,0.07562256,0.46875,-0.25,0.015625,71
72,1695741349179,-0.033203125,-0.9976196,0.08514404,-0.09375,0.421875,-0.015625,72
73,1695741349219,-0.044921875,-0.9924927,0.07928467,0.859375,0.625,-0.34375,73
74,1695741349259,-0.04736328,-0.9963989,0.078063965,0.859375,0.171875,-0.046875,74
75,1695741349299,-0.03930664,-1.0007935,0.062194824,-0.484375,-0.09375,-0.28125,75
76,1695741349339,-0.037597656,-0.99542236,0.08099365,0.8125,1.046875,-0.03125,76
77,1695741349379,-0.038085938,-0.9873657,0.06463623,0.234375,0.109375,-0.296875,77
78,1695741349419,-0.041748047,-0.9939575,0.06903076,0.8125,0.140625,-0.265625,78
79,1695741349459,-0.041015625,-0.9944458,0.07098389,0.265625,1.390625,-0.15625,79
80,1695741349499,-0.032958984,-0.9907837,0.059020996,-0.5,0.15625,-0.1875,80
81,1695741349539,-0.04272461,-0.9956665,0.054870605,0.078125,0.625,-0.53125,81
82,1695741349579,-0.040039062,-0.99591064,0.07928467,0.9375,0.9375,0.0625,82
83,1695741349619,-0.03857422,-0.99957275,0.05218506,0.5625,0.625,-0.421875,83
84,1695741349659,-0.0390625,-0.99713135,0.066833496,0.265625,1.234375,-0.078125,84
85,1695741349699,-0.046875,-0.99224854,0.05657959,0.4375,0.3125,-0.1875,85
86,1695741349739,-0.04321289,-0.99468994,0.061950684,0.390625,0.625,-0.5,86
87,1695741349779,-0.052246094,-0.9973755,0.061950684,0.609375,1.21875,-0.140625,87
88,1695741349819,-0.040527344,-0.9902954,0.053894043,0.171875,0.375,-0.484375,88
89,1695741349859,-0.047607422,-0.99224854,0.050720215,0.25,0.5625,-0.421875,89
90,1695741349899,-0.044433594,-0.991272,0.057800293,0.609375,1.3125,-0.390625,90
91,1695741349939,-0.048339844,-0.99835205,0.043151855,0.578125,-0.5625,-0.46875,91
92,1695741349979,-0.04638672,-0.99468994,0.051940918,-0.015625,1.0625,-0.5,92
93,1695741350019,-0.03881836,-0.9951782,0.04876709,-0.859375,0.203125,-0.3125,93
94,1695741350059,-0.03857422,-0.9976196,0.04144287,0.015625,0.078125,-0.515625,94
95,1695741350099,-0.049316406,-0.9902954,0.058288574,0.984375,0.453125,-0.34375,95
96,1695741350139,-0.048583984,-0.9898071,0.02923584,-0.40625,-0.09375,-0.640625,96
97,1695741350179,-0.049560547,-0.9927368,0.049743652,0.078125,0.1875,-0.34375,97
98,1695741350219,-0.049804688,-0.9985962,0.046081543,0.25,-0.546875,-0.28125,98
99,1695741350259,-0.041259766,-0.99542236,0.038757324,-0.25,-0.265625,-0.546875,99
100,1695741350299,-0.043945312,-0.9956665,0.042907715,-0.03125,0.421875,-0.09375,100
101,1695741350339,-0.044677734,-0.9932251,0.040222168,-0.71875,-0.46875,-0.234375,101
102,1695741350379,-0.041503906,-0.99884033,0.042419434,0.171875,-0.046875,-0.28125,102
103,1695741350419,-0.045166016,-0.9920044,0.045837402,-0.828125,-0.421875,-0.34375,103
104,1695741350459,-0.049560547,-0.9973755,0.04486084,0.984375,-0.265625,-0.1875,104
105,1695741350499,-0.051513672,-1.0012817,0.039733887,-0.125,0.40625,0.03125,105
106,1695741350539,-0.038330078,-0.991272,0.0368042,-1.3125,0.21875,-0.03125,106
107,1695741350579,-0.04248047,-1.000061,0.039245605,0.265625,-0.046875,0.140625,107
108,1695741350619,-0.036621094,-0.9898071,0.03753662,0.609375,-0.546875,0.234375,108
109,1695741350659,-0.041992188,-0.98883057,0.026550293,-0.84375,-0.03125,-0.078125,109
110,1695741350699,-0.042236328,-1.0010376,0.036071777,-0.140625,0.140625,-0.09375,110
111,1695741350739,-0.036132812,-0.99346924,0.035339355,-0.234375,-0.703125,-0.140625,111
112,1695741350779,-0.035888672,-0.99835205,0.04046631,-0.328125,0.109375,-0.234375,112
113,1695741350819,-0.041259766,-0.99346924,0.034606934,-0.625,0.0625,-0.125,113
114,1695741350859,-0.03930664,-0.9993286,0.035339355,-0.921875,-0.453125,-0.28125,114
115,1695741350899,-0.031982422,-0.9973755,0.031433105,-1.0625,0.21875,-0.40625,115
116,1695741350939,-0.037353516,-0.9937134,0.036315918,-0.796875,0.234375,-0.234375,116
117,1695741350979,-0.044433594,-0.9985962,0.030212402,0.15625,0.125,-0.265625,117
118,1695741351019,-0.040771484,-0.9883423,0.034118652,-0.8125,-0.296875,-0.125,118
119,1695741351059,-0.031982422,-0.9963989,0.04046631,-1.5625,0.46875,-0.34375,119
120,1695741351099,-0.041503906,-0.9993286,0.04071045,0.1875,0.328125,-0.1875,120
121,1695741351139,-0.046875,-0.98760986,0.03338623,-0.890625,0.046875,-0.484375,121
122,1695741351179,-0.05029297,-0.99713135,0.043884277,-0.6875,0.84375,-0.328125,122
123,1695741351219,-0.046875,-1.0027466,0.027526855,-0.40625,-0.4375,-0.546875,123
124,1695741351259,-0.036132812,-0.99835205,0.04071045,-1.140625,0.09375,-0.46875,124
125,1695741351299,-0.04272461,-0.99224854,0.029968262,-0.0625,0.53125,-0.265625,125
126,1695741351339,-0.04638672,-0.987854,0.03778076,-0.84375,0.171875,-0.296875,126
127,1695741351379,-0.043945312,-0.991272,0.038513184,-1.0625,0.328125,-0.484375,127
128,1695741351419,-0.03857422,-0.9961548,0.03656006,-0.71875,-0.140625,-0.4375,128
129,1695741351459,-0.040283203,-0.99176025,0.036315918,-1.359375,-0.046875,-0.1875,129
130,1695741351499,-0.04296875,-0.9944458,0.035095215,0.40625,-0.03125,-0.125,130
131,1695741351539,-0.04345703,-0.99224854,0.03338623,-1.265625,0.265625,-0.125,131
132,1695741351579,-0.026855469,-0.9976196,0.035095215,-1.484375,0.15625,-0.28125,132
133,1695741351619,-0.034423828,-0.9956665,0.04534912,-0.546875,-0.0625,-0.078125,133
134,1695741351659,-0.041748047,-0.99005127,0.0368042,-0.640625,0.03125,-0.171875,134
135,1695741351699,-0.037109375,-0.9973755,0.032409668,-1.140625,0.1875,-0.21875,135
136,1695741351739,-0.04321289,-1.0066528,0.04168701,-0.875,-0.453125,-0.21875,136
137,1695741351779,-0.045410156,-0.9976196,0.043640137,-0.703125,-0.09375,-0.3125,137
138,1695741351819,-0.035888672,-0.9981079,0.043884277,-1.109375,0.015625,-0.234375,138
139,1695741351859,-0.045654297,-0.9985962,0.042907715,-0.984375,0.40625,-0.21875,139
140,1695741351899,-0.046875,-0.99664307,0.039978027,-0.84375,-0.375,-0.359375,140
141,1695741351939,-0.037841797,-0.99053955,0.034851074,-1.078125,0.140625,-0.515625,141
142,1695741351979,-0.040527344,-0.991272,0.04168701,-0.265625,0.171875,-0.40625,142
143,1695741352019,-0.03930664,-0.99224854,0.040222168,-1.40625,-0.203125,-0.28125,143
144,1695741352059,-0.048583984,-0.9956665,0.045837402,-0.671875,-0.125,-0.21875,144
145,1695741352099,-0.036132812,-0.9976196,0.039001465,-1.765625,0.578125,-0.25,145
146,1695741352139,-0.037353516,-0.99591064,0.05340576,-1.421875,-0.140625,-0.375,146
147,1695741352179,-0.046142578,-0.99786377,0.048034668,-2.0625,0.453125,-0.65625,147
148,1695741352219,-0.04248047,-0.99176025,0.054382324,-0.234375,-0.234375,-0.46875,148
149,1695741352259,-0.032470703,-0.99176025,0.04510498,-2.46875,0.234375,-0.53125,149
150,1695741352299,-0.042236328,-0.98931885,0.047546387,-1.421875,0.15625,-0.390625,150
151,1695741352339,-0.04248047,-0.9993286,0.053894043,-0.875,0.265625,-0.390625,151
152,1695741352379,-0.03930664,-0.9944458,0.0524292,-1.5625,0.0625,-0.5625,152
153,1695741352419,-0.044677734,-0.9961548,0.04559326,-1.875,0.078125,-0.578125,153
154,1695741352459,-0.03857422,-0.99957275,0.04901123,-1.0625,-0.3125,-0.40625,154
155,1695741352499,-0.041748047,-0.9993286,0.054138184,-1.125,-0.046875,-0.375,155
156,1695741352539,-0.05078125,-0.9944458,0.04827881,-1.0,0.40625,-0.421875,156
157,1695741352579,-0.04296875,-0.98931885,0.05731201,-0.96875,0.234375,-0.328125,157
158,1695741352619,-0.038330078,-0.9949341,0.057800293,-1.203125,-0.125,0.03125,158
159,1695741352659,-0.036865234,-0.99786377,0.058776855,-0.546875,-0.015625,-0.296875,159
160,1695741352699,-0.04296875,-0.99224854,0.059509277,-1.234375,0.625,-0.171875,160
161,1695741352739,-0.048095703,-0.99468994,0.0602417,-1.640625,0.09375,-0.578125,161
162,1695741352779,-0.040039062,-0.9968872,0.062683105,-0.8125,0.40625,-0.359375,162
163,1695741352819,-0.032226562,-0.9963989,0.059265137,-1.015625,-0.984375,-0.234375,163
164,1695741352859,-0.04663086,-0.99102783,0.05609131,-1.5625,-0.015625,-0.671875,164
165,1695741352899,-0.051757812,-1.0020142,0.06732178,-0.1875,0.15625,-0.015625,165
166,1695741352939,-0.04272461,-1.0020142,0.061462402,-1.734375,0.25,-0.328125,166
167,1695741352979,-0.041992188,-0.99713135,0.049987793,-2.15625,-0.78125,-0.5625,167
168,1695741353019,-0.053222656,-0.9990845,0.050720215,-1.953125,-0.09375,-1.03125,168
169,1695741353059,-0.046875,-1.000061,0.08343506,-0.53125,-0.125,0.03125,169
170,1695741353099,-0.04711914,-0.9898071,0.055114746,-2.25,0.25,-0.328125,170
171,1695741353139,-0.041748047,-0.9883423,0.06121826,-1.546875,-0.125,-0.71875,171
172,1695741353179,-0.044921875,-0.9939575,0.07147217,-1.421875,0.203125,-0.421875,172
173,1695741353219,-0.05029297,-0.9990845,0.06951904,-0.921875,-0.125,-0.34375,173
174,1695741353259,-0.048095703,-0.99298096,0.062683105,-2.125,0.203125,-0.46875,174
175,1695741353299,-0.047607422,-1.0005493,0.074645996,-1.609375,-0.125,-0.484375,175
176,1695741353339,-0.04272461,-0.9968872,0.07269287,-1.328125,-0.40625,-0.1875,176
177,1695741353379,-0.045654297,-0.9961548,0.066589355,-1.578125,0.203125,-0.25,177
178,1695741353419,-0.040283203,-0.9854126,0.07611084,-1.390625,0.171875,-0.390625,178
179,1695741353459,-0.045166016,-0.99224854,0.07928467,-1.375,-0.125,-0.421875,179
180,1695741353499,-0.04248047,-1.0005493,0.07513428,-1.375,-0.640625,-0.609375,180
181,1695741353539,-0.037597656,-0.99176025,0.07342529,-1.84375,0.046875,-0.53125,181
182,1695741353579,-0.046142578,-0.9920044,0.08514404,-1.0,0.703125,-0.484375,182
183,1695741353619,-0.052734375,-0.99224854,0.08270264,-1.015625,-0.3125,-0.390625,183
184,1695741353659,-0.05053711,-0.991272,0.08123779,-1.484375,-0.4375,-0.390625,184
185,1695741353699,-0.04345703,-0.9981079,0.0836792,-1.359375,-0.1875,-0.359375,185
186,1695741353739,-0.049804688,-0.9932251,0.08001709,-1.640625,-0.390625,-0.65625,186
187,1695741353779,-0.052978516,-0.99884033,0.08123779,-1.046875,-0.171875,-0.390625,187
188,1695741353819,-0.044921875,-0.99664307,0.09173584,-1.546875,0.0,-0.484375,188
189,1695741353859,-0.048828125,-0.99420166,0.0770874,-1.265625,-0.59375,-0.5,189
190,1695741353899,-0.052978516,-0.991272,0.08831787,-3.1875,0.765625,-1.421875,190
191,1695741353939,-0.059814453,-0.9915161,0.10076904,-0.234375,-0.046875,-0.359375,191
192,1695741353979,-0.05859375,-0.99468994,0.09490967,-1.21875,-0.421875,-0.34375,192
193,1695741354019,-0.05102539,-1.0078735,0.074401855,-0.90625,-1.125,-0.4375,193
194,1695741354059,-0.045654297,-0.9998169,0.0927124,-1.546875,-0.515625,-0.4375,194
195,1695741354099,-0.04663086,-0.99053955,0.094177246,-0.265625,0.390625,-0.15625,195
196,1695741354139,-0.050048828,-0.9951782,0.09051514,-1.34375,0.203125,-0.578125,196
197,1695741354179,-0.05517578,-0.99591064,0.093933105,-1.859375,0.046875,-0.640625,197
198,1695741354219,-0.05810547,-0.9944458,0.09881592,-0.796875,-0.375,-0.34375,198
199,1695741354259,-0.05859375,-0.9990845,0.09490967,-0.984375,-0.484375,-0.546875,199
200,1695741354299,-0.056396484,-0.99786377,0.08709717,-1.125,0.25,-0.390625,200
201,1695741354339,-0.04736328,-0.99542236,0.10369873,-1.0625,-0.140625,-0.046875,201
202,1695741354379,-0.049560547,-0.9939575,0.09442139,-1.171875,0.015625,-0.59375,202
203,1695741354419,-0.05883789,-0.9944458,0.097839355,-0.734375,0.03125,-0.125,203
204,1695741354459,-0.051757812,-0.9961548,0.10614014,-1.375,0.0,-0.5,204
205,1695741354499,-0.05859375,-0.9871216,0.09979248,-0.984375,0.03125,-0.1875,205
206,1695741354539,-0.05883789,-0.9915161,0.085632324,-1.125,-0.375,-0.28125,206
207,1695741354579,-0.052001953,-0.9973755,0.09613037,-1.15625,0.859375,-0.25,207
208,1695741354619,-0.053222656,-0.9915161,0.09906006,-0.390625,0.171875,-0.015625,208
209,1695741354659,-0.05859375,-0.9883423,0.10491943,-1.4375,0.28125,-0.3125,209
210,1695741354699,-0.055419922,-0.9951782,0.10272217,-0.15625,0.484375,-0.21875,210
211,1695741354739,-0.056884766,-0.9915161,0.10296631,0.171875,-0.1875,0.296875,211
212,1695741354779,-0.0390625,-0.98760986,0.09564209,-1.796875,0.171875,-0.015625,212
213,1695741354819,-0.060302734,-0.9968872,0.10443115,-1.140625,0.390625,-0.328125,213
214,1695741354859,-0.059570312,-0.9976196,0.10614014,0.484375,-0.5625,0.078125,214
215,1695741354899,-0.05126953,-0.9990845,0.09613037,-1.421875,0.5625,-0.234375,215
216,1695741354939,-0.050048828,-0.9924927,0.09295654,-1.03125,-0.234375,-0.265625,216
217,1695741354979,-0.05126953,-0.9949341,0.10247803,-0.15625,0.203125,-0.015625,217
218,1695741355019,-0.057128906,-0.99713135,0.101257324,-0.359375,-0.25,-0.15625,218
219,1695741355059,-0.052246094,-0.9949341,0.10003662,-1.328125,-0.15625,-0.328125,219
220,1695741355099,-0.056640625,-0.99298096,0.109558105,-0.4375,0.046875,-0.203125,220
221,1695741355139,-0.053955078,-0.99591064,0.101745605,-0.3125,-0.3125,-0.3125,221
222,1695741355179,-0.048583984,-0.99835205,0.093688965,-0.890625,0.265625,-0.328125,222
223,1695741355219,-0.057128906,-0.99420166,0.10272217,-0.125,0.234375,-0.3125,223
224,1695741355259,-0.047607422,-0.9920044,0.09564209,-0.671875,-0.109375,-0.421875,224
225,1695741355299,-0.057128906,-0.9976196,0.10028076,-0.765625,0.609375,-0.421875,225
226,1695741355339,-0.061523438,-0.9998169,0.09906006,-0.515625,0.140625,-0.171875,226
227,1695741355379,-0.05102539,-0.99420166,0.101257324,-0.40625,0.125,0.078125,227
228,1695741355419,-0.052246094,-0.99664307,0.09710693,-0.09375,0.421875,-0.078125,228
229,1695741355459,-0.05810547,-0.98883057,0.090026855,-0.6875,0.03125,-0.34375,229
230,1695741355499,-0.05102539,-0.9998169,0.105651855,0.078125,0.390625,0.125,230
231,1695741355539,-0.044189453,-1.0046997,0.09906006,-0.390625,0.078125,0.171875,231
232,1695741355579,-0.046142578,-0.9961548,0.0927124,-1.796875,-0.171875,-0.3125,232
233,1695741355619,-0.060302734,-0.9939575,0.09539795,-2.0,1.203125,-0.59375,233
234,1695741355659,-0.06225586,-0.99176025,0.098083496,-0.03125,0.5,0.078125,234
235,1695741355699,-0.05126953,-1.0005493,0.09539795,-1.15625,0.3125,-0.375,235
236,1695741355739,-0.05029297,-0.9981079,0.089538574,-1.21875,0.03125,-0.484375,236
237,1695741355779,-0.04663086,-0.99713135,0.10491943,-0.828125,0.765625,-0.3125,237
238,1695741355819,-0.047851562,-0.99298096,0.0993042,-0.265625,0.375,-0.1875,238
239,1695741355859,-0.052490234,-0.99591064,0.097351074,-1.25,0.46875,-0.484375,239
240,1695741355899,-0.055419922,-0.9968872,0.112976074,-0.40625,0.546875,-0.03125,240
241,1695741355939,-0.047851562,-0.9981079,0.097595215,-0.53125,-0.234375,-0.078125,241
242,1695741355979,-0.051513672,-0.99224854,0.09906006,-0.765625,0.28125,-0.21875,242
243,1695741356019,-0.05810547,-1.000061,0.097839355,-0.640625,0.078125,-0.140625,243
244,1695741356059,-0.048828125,-0.9961548,0.101257324,-0.609375,0.109375,0.0625,244
245,1695741356099,-0.044677734,-0.9924927,0.10223389,-0.65625,0.71875,0.046875,245
246,1695741356139,-0.056152344,-0.9968872,0.10296631,-0.359375,0.09375,-0.171875,246
247,1695741356179,-0.053466797,-0.9949341,0.09857178,-0.78125,0.515625,-0.125,247
248,1695741356219,-0.047851562,-0.9985962,0.10882568,-0.234375,0.359375,-0.09375,248
249,1695741356259,-0.048095703,-0.9907837,0.10296631,0.4375,0.234375,0.265625,249
250,1695741356299,-0.041992188,-0.9956665,0.097351074,-1.9375,0.359375,-0.46875,250
251,1695741356339,-0.053222656,-0.98931885,0.101745605,-0.71875,0.234375,-0.109375,251
252,1695741356379,-0.046875,-0.9937134,0.10662842,-0.046875,-0.203125,0.328125,252
253,1695741356419,-0.048095703,-1.0054321,0.093688965,-0.625,0.0,-0.328125,253
254,1695741356459,-0.04711914,-0.99664307,0.09613037,-0.734375,-0.375,-0.6875,254
255,1695741356499,-0.053710938,-1.0007935,0.10491943,-0.5625,0.953125,-0.453125,255
256,1695741356539,-0.04638672,-0.99420166,0.10321045,-0.34375,-0.34375,-0.390625,256
257,1695741356579,-0.05126953,-0.99176025,0.09320068,-0.890625,0.28125,-0.625,257
258,1695741356619,-0.052246094,-0.98883057,0.09661865,-0.109375,0.296875,-0.390625,258
259,1695741356659,-0.044189453,-0.99786377,0.097839355,-0.265625,-0.21875,-0.34375,259
260,1695741356699,-0.048339844,-0.9873657,0.10784912,0.203125,0.4375,-0.1875,260
261,1695741356739,-0.05126953,-0.9951782,0.09100342,-0.125,0.046875,-0.21875,261
262,1695741356779,-0.060302734,-0.99420166,0.1005249,0.171875,1.40625,-0.1875,262
263,1695741356819,-0.05102539,-0.9973755,0.09710693,0.4375,0.421875,0.125,263
264,1695741356859,-0.052734375,-1.000061,0.090026855,0.03125,0.515625,-0.15625,264
265,1695741356899,-0.052001953,-0.9915161,0.09124756,0.484375,0.640625,0.0625,265
266,1695741356939,-0.046142578,-0.99664307,0.09246826,1.359375,0.765625,0.171875,266
267,1695741356979,-0.05078125,-0.99713135,0.09100342,1.0625,0.15625,0.140625,267
268,1695741357019,-0.041748047,-0.9961548,0.08001709,-0.84375,0.8125,-0.265625,268
269,1695741357059,-0.053466797,-0.99542236,0.09124756,1.078125,0.71875,0.0,269
270,1695741357099,-0.049804688,-0.989563,0.078063965,1.734375,0.1875,-0.046875,270
271,1695741357139,-0.045654297,-0.9963989,0.074157715,0.359375,1.46875,-0.015625,271
272,1695741357179,-0.049316406,-0.9990845,0.070495605,0.96875,0.890625,-0.328125,272
273,1695741357219,-0.04345703,-0.9885864,0.08099365,1.3125,0.71875,-0.15625,273
274,1695741357259,-0.037353516,-0.9944458,0.06854248,0.578125,0.6875,-0.59375,274
275,1695741357299,-0.053955078,-0.99542236,0.06707764,0.375,0.453125,-0.578125,275
276,1695741357339,-0.044921875,-0.99468994,0.06976318,0.40625,0.421875,-0.1875,276
277,1695741357379,-0.045166016,-1.0007935,0.06463623,-0.296875,0.5,-0.390625,277
278,1695741357419,-0.041259766,-0.9990845,0.06317139,0.53125,0.640625,-0.421875,278
279,1695741357459,-0.046875,-0.9885864,0.066101074,0.46875,-0.0625,-0.171875,279
280,1695741357499,-0.040771484,-0.9927368,0.070739746,0.171875,1.25,-0.125,280
281,1695741357539,-0.04248047,-0.99298096,0.058532715,1.0,-0.15625,-0.125,281
282,1695741357579,-0.044921875,-0.9949341,0.06439209,0.0625,0.125,-0.15625,282
283,1695741357619,-0.047851562,-0.9961548,0.06536865,0.859375,0.390625,0.203125,283
284,1695741357659,-0.045410156,-0.99957275,0.05657959,0.015625,0.171875,-0.28125,284
285,1695741357699,-0.045166016,-0.9951782,0.06048584,-0.9375,0.53125,-0.296875,285
286,1695741357739,-0.055419922,-1.000061,0.057800293,-0.53125,-0.0625,-0.296875,286
287,1695741357779,-0.04638672,-0.99664307,0.06951904,0.671875,0.65625,0.171875,287
288,1695741357819,-0.04638672,-0.9927368,0.0524292,-0.015625,0.296875,-0.21875,288
289,1695741357859,-0.049072266,-0.9956665,0.054870605,0.078125,0.015625,-0.078125,289
290,1695741357899,-0.046875,-1.0003052,0.059265137,0.28125,0.234375,-0.0625,290
291,1695741357939,-0.036132812,-0.9907837,0.049987793,-0.390625,-0.03125,-0.375,291
292,1695741357979,-0.049316406,-0.9990845,0.050476074,0.203125,0.359375,-0.15625,292
293,1695741358019,-0.04638672,-0.99005127,0.046081543,-0.234375,0.21875,-0.25,293
294,1695741358059,-0.044921875,-0.99786377,0.05218506,-0.15625,0.25,-0.3125,294
295,1695741358099,-0.043945312,-0.9902954,0.05218506,-0.1875,0.234375,0.0625,295
296,1695741358139,-0.044677734,-0.9981079,0.048034668,0.09375,0.0625,-0.109375,296
297,1695741358179,-0.04321289,-0.9927368,0.047790527,0.015625,0.390625,0.203125,297
298,1695741358219,-0.042236328,-0.9920044,0.043884277,-1.0,0.109375,-0.21875,298
299,1695741358259,-0.040283203,-0.9937134,0.051208496,0.3125,0.96875,-0.328125,299
300,1695741358299,-0.048583984,-0.9949341,0.042663574,0.15625,-0.078125,-0.28125,300
301,1695741358339,-0.032958984,-0.98687744,0.044128418,-2.171875,0.0625,-0.421875,301
302,1695741358379,-0.044921875,-1.0056763,0.0524292,0.28125,0.796875,-0.140625,302
303,1695741358419,-0.04711914,-0.9939575,0.043640137,-0.765625,-0.28125,-0.484375,303
304,1695741358459,-0.048339844,-0.989563,0.04168701,-0.96875,0.328125,-0.734375,304
305,1695741358499,-0.045654297,-1.00177,0.050231934,-0.890625,-0.28125,-0.578125,305
306,1695741358539,-0.043701172,-0.99346924,0.054382324,-0.625,0.078125,-0.625,306
307,1695741358579,-0.048828125,-0.9937134,0.051208496,-1.1875,0.171875,-0.671875,307
308,1695741358619,-0.052001953,-0.9963989,0.054138184,-1.3125,0.078125,-0.625,308
309,1695741358659,-0.044433594,-0.9963989,0.047302246,-0.921875,-0.46875,-0.421875,309
310,1695741358699,-0.04321289,-0.9949341,0.04827881,-1.125,0.25,-0.453125,310
311,1695741358739,-0.052490234,-0.9949341,0.051208496,-1.09375,-0.015625,-0.4375,311
312,1695741358779,-0.049560547,-0.98760986,0.057800293,-1.328125,-0.046875,-0.34375,312
313,1695741358819,-0.048828125,-0.9956665,0.05316162,-1.890625,0.390625,-0.421875,313
314,1695741358859,-0.05444336,-1.003479,0.06341553,-0.640625,0.203125,-0.21875,314
315,1695741358899,-0.048095703,-1.0012817,0.054138184,-1.484375,0.390625,-0.328125,315
316,1695741358939,-0.04663086,-0.98809814,0.05316162,-1.984375,-0.03125,-0.390625,316
317,1695741358979,-0.049804688,-0.99591064,0.06072998,-1.765625,0.03125,-0.484375,317
318,1695741359019,-0.049072266,-0.99591064,0.066833496,-0.46875,-0.28125,-0.140625,318
319,1695741359059,-0.03955078,-0.99298096,0.06414795,-2.203125,0.375,-0.625,319
320,1695741359099,-0.052978516,-0.99591064,0.047302246,-0.921875,0.15625,-0.3125,320
321,1695741359139,-0.045410156,-0.9949341,0.0602417,-0.96875,-0.390625,-0.3125,321
322,1695741359179,-0.041259766,-0.9907837,0.058532715,-1.328125,-0.03125,-0.578125,322
323,1695741359219,-0.053222656,-0.9927368,0.058776855,-1.0625,0.390625,-0.59375,323
324,1695741359259,-0.052246094,-0.9990845,0.07733154,-0.890625,0.140625,-0.359375,324
325,1695741359299,-0.051757812,-0.9956665,0.061950684,-1.8125,-0.5625,-0.46875,325
326,1695741359339,-0.049072266,-0.99005127,0.06512451,-1.515625,-0.03125,-0.5625,326
327,1695741359379,-0.051513672,-0.9985962,0.07171631,-1.34375,-0.15625,-0.5,327
328,1695741359419,-0.052001953,-0.9902954,0.062927246,-1.203125,-0.625,-0.265625,328
329,1695741359459,-0.045410156,-0.99298096,0.0770874,-2.390625,0.046875,-0.4375,329
330,1695741359499,-0.060791016,-0.99346924,0.07562256,-0.59375,0.421875,-0.453125,330
331,1695741359539,-0.057373047,-0.9973755,0.070251465,-2.140625,0.09375,-0.53125,331
332,1695741359579,-0.043701172,-0.9924927,0.06561279,-2.296875,-0.8125,-0.578125,332
333,1695741359619,-0.05029297,-0.987854,0.07952881,-2.5,1.1875,-0.625,333
334,1695741359659,-0.057128906,-0.9998169,0.08929443,0.015625,-0.078125,0.03125,334
335,1695741359699,-0.05102539,-0.99713135,0.07196045,-1.921875,-0.15625,-0.453125,335
336,1695741359739,-0.04711914,-0.9976196,0.082214355,-1.28125,0.65625,-0.453125,336
337,1695741359779,-0.049804688,-0.99053955,0.078063965,-0.921875,-0.125,-0.5,337
338,1695741359819,-0.056884766,-0.9981079,0.082214355,-1.265625,0.109375,-0.375,338
339,1695741359859,-0.056396484,-0.99053955,0.08074951,-1.71875,0.390625,-0.40625,339
340,1695741359899,-0.052978516,-0.9915161,0.08148193,-0.6875,-0.53125,-0.4375,340
341,1695741359939,-0.05053711,-0.99884033,0.086364746,-1.328125,-0.328125,-0.140625,341
342,1695741359979,-0.053710938,-0.99957275,0.07904053,-1.3125,-0.203125,-0.609375,342
343,1695741360019,-0.052978516,-0.9951782,0.08001709,-1.640625,-0.046875,-0.46875,343
344,1695741360059,-0.053466797,-1.0007935,0.08660889,-1.5625,0.1875,-0.546875,344
345,1695741360099,-0.061279297,-0.9890747,0.0836792,-1.078125,0.515625,-0.421875,345
346,1695741360139,-0.0625,-0.99542236,0.0848999,-1.1875,0.15625,-0.140625,346
347,1695741360179,-0.049316406,-0.98931885,0.093688965,-1.296875,0.3125,-0.28125,347
348,1695741360219,-0.060302734,-0.9951782,0.08660889,-1.15625,0.046875,-0.328125,348
349,1695741360259,-0.057373047,-0.99298096,0.08514404,-0.9375,0.671875,-0.25,349
350,1695741360299,-0.057373047,-0.99468994,0.08538818,-1.640625,0.5625,-0.53125,350
351,1695741360339,-0.055419922,-1.000061,0.085632324,0.03125,0.0,-0.046875,351
352,1695741360379,-0.055419922,-0.99713135,0.09588623,-1.640625,1.390625,-0.203125,352
353,1695741360419,-0.044677734,-0.9920044,0.08758545,-2.3125,-0.3125,-0.71875,353
354,1695741360459,-0.05883789,-0.99713135,0.08514404,-3.375,0.734375,-1.140625,354
355,1695741360499,-0.05810547,-0.9998169,0.10467529,0.421875,0.109375,0.203125,355
356,1695741360539,-0.053222656,-0.9949341,0.0914917,-1.765625,0.078125,-0.140625,356
357,1695741360579,-0.05517578,-0.99542236,0.0914917,-0.8125,0.265625,-0.375,357
358,1695741360619,-0.064208984,-0.9939575,0.10076904,-1.09375,0.140625,-0.5625,358
359,1695741360659,-0.052490234,-0.99053955,0.09661865,-0.984375,-0.1875,-0.234375,359
360,1695741360699,-0.05834961,-0.991272,0.09100342,-1.453125,-0.1875,-0.484375,360
361,1695741360739,-0.05834961,-0.99713135,0.10028076,-1.171875,0.0625,-0.34375,361
362,1695741360779,-0.057373047,-0.9907837,0.09539795,-0.703125,-0.1875,-0.15625,362
363,1695741360819,-0.049072266,-0.9927368,0.09564209,-0.890625,0.171875,-0.484375,363
364,1695741360859,-0.059570312,-0.99005127,0.101745605,-1.09375,-0.203125,-0.421875,364
365,1695741360899,-0.059570312,-0.9993286,0.10345459,-1.21875,0.140625,-0.328125,365
366,1695741360939,-0.052246094,-0.9944458,0.11004639,-0.953125,-0.140625,-0.3125,366
367,1695741360979,-0.05883789,-0.99224854,0.09710693,-1.09375,0.375,-0.4375,367
368,1695741361019,-0.056152344,-0.9920044,0.10272217,-1.078125,1.015625,-0.5625,368
369,1695741361059,-0.055664062,-0.9981079,0.10272217,-1.21875,0.109375,-0.421875,369
370,1695741361099,-0.057617188,-0.9961548,0.1071167,-1.15625,0.28125,-0.765625,370
371,1695741361139,-0.0546875,-0.9924927,0.10418701,-0.59375,-0.09375,-0.375,371
372,1695741361179,-0.056152344,-0.99224854,0.0993042,-0.953125,0.765625,-0.46875,372
373,1695741361219,-0.060546875,-0.9949341,0.11273193,-0.484375,0.171875,-0.1875,373
374,1695741361259,-0.0625,-1.0012817,0.10076904,-0.8125,0.703125,-0.5,374
375,1695741361299,-0.05493164,-1.0003052,0.105895996,-0.703125,-1.171875,-0.265625,375
376,1695741361339,-0.061035156,-0.9866333,0.105163574,-2.78125,0.171875,-1.25,376
377,1695741361379,-0.06689453,-0.9902954,0.11663818,-0.640625,0.25,-0.203125,377
378,1695741361419,-0.059326172,-1.0049438,0.10247803,-1.0,-0.28125,-0.453125,378
379,1695741361459,-0.0625,-0.9973755,0.105407715,-0.578125,0.109375,-0.390625,379
380,1695741361499,-0.06518555,-0.99542236,0.11639404,-1.078125,0.359375,-0.5625,380
381,1695741361539,-0.06567383,-0.9985962,0.10736084,-0.59375,0.0625,-0.078125,381
382,1695741361579,-0.064697266,-0.9976196,0.10784912,-0.59375,-0.65625,-0.15625,382
383,1695741361619,-0.05493164,-0.99224854,0.11248779,-1.03125,1.375,-0.171875,383
384,1695741361659,-0.06518555,-1.0007935,0.10687256,-0.28125,-0.171875,-0.484375,384
385,1695741361699,-0.061767578,-0.98687744,0.1083374,-0.71875,0.390625,-0.25,385
386,1695741361739,-0.055664062,-0.9932251,0.10662842,-0.9375,0.625,-0.140625,386
387,1695741361779,-0.06567383,-0.9968872,0.113708496,-0.796875,0.265625,-0.21875,387
388,1695741361819,-0.06689453,-0.9902954,0.10809326,-0.96875,0.46875,-0.421875,388
389,1695741361859,-0.060546875,-0.9907837,0.109313965,-0.8125,0.328125,-0.28125,389
390,1695741361899,-0.061523438,-0.9937134,0.109802246,-0.578125,0.109375,-0.203125,390
391,1695741361939,-0.061767578,-0.9902954,0.10858154,-0.6875,0.40625,-0.453125,391
392,1695741361979,-0.057128906,-0.9949341,0.117126465,-0.703125,0.234375,-0.171875,392
393,1695741362019,-0.05859375,-0.99664307,0.10247803,-0.90625,0.203125,-0.171875,393
394,1695741362059,-0.059570312,-0.99420166,0.109802246,-0.78125,0.234375,-0.140625,394
395,1695741362099,-0.06347656,-0.9956665,0.116882324,-0.03125,0.359375,-0.234375,395
396,1695741362139,-0.064208984,-0.99298096,0.10736084,-0.34375,0.046875,0.140625,396
397,1695741362179,-0.048339844,-0.99542236,0.10394287,-2.25,-0.09375,-0.640625,397
398,1695741362219,-0.07080078,-0.99420166,0.117614746,-1.25,0.859375,-0.453125,398
399,1695741362259,-0.061279297,-0.9993286,0.11541748,0.15625,-0.25,0.0625,399
400,1695741362299,-0.060546875,-0.9907837,0.1071167,-1.40625,0.828125,-0.375,400
401,1695741362339,-0.059570312,-0.9990845,0.10296631,-0.5,0.15625,-0.25,401
402,1695741362379,-0.0637207,-0.99786377,0.11151123,-0.84375,0.234375,-0.28125,402
403,1695741362419,-0.060791016,-0.98883057,0.10882568,-0.359375,0.28125,-0.15625,403
404,1695741362459,-0.06225586,-0.9932251,0.11224365,-0.703125,1.3125,-0.0625,404
405,1695741362499,-0.06274414,-0.99884033,0.109558105,0.296875,-0.953125,0.03125,405
406,1695741362539,-0.061035156,-0.99176025,0.113464355,-0.5,1.09375,0.0,406
407,1695741362579,-0.06201172,-0.9993286,0.11468506,0.5625,0.234375,0.140625,407
408,1695741362619,-0.05444336,-0.9973755,0.0993042,-0.15625,-0.828125,0.078125,408
409,1695741362659,-0.05517578,-0.9932251,0.11029053,0.40625,1.6875,0.140625,409
410,1695741362699,-0.061523438,-0.9924927,0.10491943,0.3125,0.921875,0.296875,410
411,1695741362739,-0.055908203,-0.991272,0.101257324,0.46875,-0.109375,0.21875,411
412,1695741362779,-0.055419922,-1.0003052,0.10491943,0.703125,0.671875,0.1875,412
413,1695741362819,-0.057617188,-1.000061,0.09954834,0.640625,0.203125,0.421875,413
414,1695741362859,-0.051513672,-0.9883423,0.08929443,0.96875,0.140625,0.296875,414
415,1695741362899,-0.052246094,-0.9937134,0.10491943,2.03125,1.3125,0.53125,415
416,1695741362939,-0.05517578,-0.99542236,0.098083496,1.671875,0.234375,0.328125,416
417,1695741362979,-0.056396484,-0.99346924,0.08148193,-0.765625,-0.15625,-0.109375,417
418,1695741363019,-0.056396484,-0.9937134,0.08270264,1.109375,0.546875,0.1875,418
419,1695741363059,-0.044189453,-0.9915161,0.09661865,1.9375,-0.375,0.5,419
420,1695741363099,-0.045166016,-0.99542236,0.0770874,0.15625,1.078125,-0.078125,420
421,1695741363139,-0.053710938,-0.9963989,0.07562256,0.515625,0.046875,-0.125,421
422,1695741363179,-0.052490234,-0.9956665,0.08709717,0.203125,0.296875,0.0625,422
423,1695741363219,-0.042236328,-0.98687744,0.08001709,0.578125,0.0625,-0.265625,423
424,1695741363259,-0.055908203,-1.003479,0.07171631,0.9375,0.296875,0.171875,424
425,1695741363299,-0.04321289,-0.9993286,0.07684326,0.734375,-0.234375,0.265625,425
426,1695741363339,-0.04638672,-0.99224854,0.07513428,-0.09375,-0.5,0.0,426
427,1695741363379,-0.05029297,-0.9961548,0.06878662,0.46875,0.328125,-0.28125,427
428,1695741363419,-0.04736328,-1.0010376,0.070739746,0.03125,0.125,-0.09375,428
429,1695741363459,-0.050048828,-0.9963989,0.06829834,0.5625,0.1875,0.109375,429
430,1695741363499,-0.044921875,-1.0003052,0.06854248,0.546875,0.265625,-0.046875,430
431,1695741363539,-0.047851562,-0.9963989,0.058288574,-0.015625,0.09375,-0.296875,431
432,1695741363579,-0.05493164,-0.9924927,0.07342529,0.140625,0.3125,-0.078125,432
433,1695741363619,-0.048095703,-0.9939575,0.06072998,0.59375,1.078125,-0.21875,433
434,1695741363659,-0.050048828,-0.9924927,0.05316162,-0.46875,-1.265625,-0.28125,434
435,1695741363699,-0.040527344,-0.9944458,0.06781006,-1.65625,0.78125,-0.609375,435
436,1695741363739,-0.053955078,-1.0012817,0.06732178,0.609375,0.203125,-0.15625,436
437,1695741363779,-0.05126953,-0.99298096,0.062683105,-0.21875,-0.296875,-0.453125,437
438,1695741363819,-0.040039062,-0.9956665,0.054626465,-0.96875,0.578125,-0.359375,438
439,1695741363859,-0.041748047,-0.99664307,0.058532715,-0.515625,0.078125,-0.484375,439
440,1695741363899,-0.046875,-0.9920044,0.05682373,-0.15625,-0.453125,-0.15625,440
441,1695741363939,-0.048828125,-0.9890747,0.06097412,-0.328125,0.4375,-0.34375,441
442,1695741363979,-0.051513672,-1.0003052,0.059753418,-0.5,0.390625,-0.375,442
443,1695741364019,-0.046875,-0.9968872,0.06121826,-0.75,0.0625,-0.21875,443
444,1695741364059,-0.044921875,-0.9944458,0.05999756,0.078125,0.21875,-0.15625,444
445,1695741364099,-0.044677734,-0.9981079,0.05633545,-0.734375,-0.546875,-0.359375,445
446,1695741364139,-0.048339844,-0.991272,0.062927246,-0.296875,0.609375,-0.171875,446
447,1695741364179,-0.048828125,-0.9920044,0.058776855,-0.75,0.234375,-0.234375,447
448,1695741364219,-0.05810547,-0.9973755,0.062438965,-0.6875,0.328125,-0.484375,448
449,1695741364259,-0.048583984,-1.0005493,0.06561279,-0.5,0.5625,-0.609375,449
450,1695741364299,-0.049072266,-1.0027466,0.054870605,-0.328125,-0.328125,-0.140625,450
451,1695741364339,-0.03857422,-0.9963989,0.059020996,-1.5,0.625,-0.421875,451
452,1695741364379,-0.052001953,-0.9920044,0.066345215,-0.1875,0.46875,-0.296875,452
453,1695741364419,-0.049316406,-0.9932251,0.054382324,-0.734375,-0.046875,-0.421875,453
454,1695741364459,-0.050048828,-0.99786377,0.05267334,-1.390625,-0.21875,-0.578125,454
455,1695741364499,-0.043701172,-0.9902954,0.059265137,-1.0,0.40625,-0.609375,455
456,1695741364539,-0.05053711,-0.9963989,0.062683105,-0.5,0.234375,-0.390625,456
457,1695741364579,-0.056152344,-0.99713135,0.05633545,-1.375,-0.4375,-0.578125,457
458,1695741364619,-0.041992188,-0.99176025,0.06854248,-1.296875,0.3125,-0.0625,458
459,1695741364659,-0.047607422,-0.9951782,0.06390381,-1.6875,0.03125,-0.390625,459
460,1695741364699,-0.05834961,-0.99298096,0.06072998,-1.484375,0.375,-0.65625,460
461,1695741364739,-0.055908203,-1.0005493,0.06390381,-2.125,-0.234375,-0.640625,461
462,1695741364779,-0.046142578,-1.0003052,0.07269287,-2.0625,-0.140625,-0.34375,462
463,1695741364819,-0.052734375,-0.9924927,0.07537842,-1.765625,0.0625,-0.40625,463
464,1695741364859,-0.05419922,-0.9939575,0.074645996,-1.859375,0.5,-0.59375,464
465,1695741364899,-0.05834961,-0.9985962,0.08001709,-1.734375,0.140625,-0.125,465
466,1695741364939,-0.049804688,-0.9944458,0.070007324,-3.453125,-0.078125,-0.734375,466
467,1695741364979,-0.05883789,-0.99224854,0.07318115,-1.921875,0.1875,-0.390625,467
468,1695741365019,-0.047851562,-0.9985962,0.085632324,-0.96875,0.296875,0.046875,468
469,1695741365059,-0.043945312,-1.0027466,0.07318115,-2.015625,1.296875,-0.34375,469
470,1695741365099,-0.05493164,-0.99420166,0.081726074,-0.9375,0.25,-0.375,470
471,1695741365139,-0.04638672,-0.9944458,0.08392334,-1.171875,0.09375,-0.265625,471
472,1695741365179,-0.051757812,-0.9944458,0.082458496,-1.296875,0.09375,-0.609375,472
473,1695741365219,-0.052978516,-1.0044556,0.07757568,-1.140625,0.40625,-0.734375,473
474,1695741365259,-0.052734375,-0.9968872,0.07952881,-0.9375,0.078125,-0.28125,474
475,1695741365299,-0.050048828,-0.9956665,0.08441162,-2.09375,0.0625,-0.8125,475
476,1695741365339,-0.05102539,-0.99005127,0.08782959,-1.703125,1.046875,-0.796875,476
477,1695741365379,-0.06738281,-0.9976196,0.090270996,-1.234375,0.53125,-0.75,477
478,1695741365419,-0.055908203,-0.9859009,0.090026855,-1.75,0.328125,-0.71875,478
479,1695741365459,-0.045410156,-0.9937134,0.0914917,-1.03125,0.53125,-0.5,479
480,1695741365499,-0.056152344,-0.9998169,0.08831787,-1.515625,0.609375,-0.484375,480
481,1695741365539,-0.044189453,-0.99176025,0.08685303,-1.828125,-0.390625,-0.921875,481
482,1695741365579,-0.060791016,-0.99298096,0.090270996,-3.21875,1.515625,-1.46875,482
483,1695741365619,-0.06201172,-0.9956665,0.10638428,-0.4375,0.765625,-0.234375,483
484,1695741365659,-0.04638672,-0.9963989,0.09246826,-1.421875,0.8125,-0.328125,484
485,1695741365699,-0.047607422,-0.9920044,0.09197998,-1.078125,1.21875,-0.53125,485
486,1695741365739,-0.05883789,-0.9976196,0.10296631,-0.96875,0.6875,-0.5,486
487,1695741365779,-0.0625,-0.98638916,0.1071167,-1.484375,0.28125,-0.5625,487
488,1695741365819,-0.06323242,-0.9976196,0.0993042,-1.203125,0.390625,-0.515625,488
489,1695741365859,-0.05834961,-0.9927368,0.10394287,-0.890625,-0.640625,-0.09375,489
490,1695741365899,-0.05419922,-0.9871216,0.09832764,-1.5,-0.484375,-0.375,490
491,1695741365939,-0.061279297,-0.99664307,0.10003662,-0.875,0.015625,-0.28125,491
492,1695741365979,-0.061035156,-0.9949341,0.10028076,-0.796875,-0.59375,-0.125,492
493,1695741366019,-0.05126953,-0.9907837,0.101989746,-0.953125,-0.15625,-0.0625,493
494,1695741366059,-0.061279297,-0.9937134,0.101257324,-1.03125,0.125,-0.296875,494
495,1695741366099,-0.05517578,-0.99420166,0.101257324,-0.421875,0.078125,-0.203125,495
496,1695741366139,-0.05859375,-0.99053955,0.1083374,-1.359375,0.703125,0.03125,496
497,1695741366179,-0.049804688,-0.9866333,0.098083496,-1.390625,-0.90625,-0.234375,497
498,1695741366219,-0.064941406,-0.99884033,0.11077881,-2.03125,1.1875,-0.703125,498
499,1695741366259,-0.061523438,-1.0010376,0.11077881,0.375,0.203125,0.015625,499
500,1695741366299,-0.05908203,-1.0007935,0.10369873,-1.640625,1.03125,-0.296875,500
501,1695741366339,-0.056396484,-0.987854,0.09857178,-0.390625,-0.046875,-0.34375,501
502,1695741366379,-0.057861328,-1.0020142,0.10491943,-0.5625,0.46875,-0.25,502
503,1695741366419,-0.053222656,-0.99102783,0.10809326,-0.96875,0.203125,-0.25,503
504,1695741366459,-0.06591797,-0.9944458,0.10882568,-0.875,0.875,-0.5,504
505,1695741366499,-0.05517578,-1.00177,0.11199951,-0.171875,0.234375,-0.1875,505
506,1695741366539,-0.059570312,-0.99005127,0.11053467,-0.734375,0.109375,-0.453125,506
507,1695741366579,-0.061035156,-0.99664307,0.10321045,-0.109375,0.359375,-0.328125,507
508,1695741366619,-0.06201172,-0.989563,0.10296631,-0.15625,-0.21875,-0.15625,508
509,1695741366659,-0.052001953,-0.99298096,0.10687256,-0.25,0.671875,-0.125,509
510,1695741366699,-0.06201172,-0.9907837,0.10247803,0.25,0.109375,-0.28125,510
511,1695741366739,-0.068115234,-0.989563,0.1005249,-0.484375,0.015625,-0.40625,511
512,1695741366779,-0.061035156,-0.9932251,0.10614014,-0.078125,-0.09375,-0.125,512
513,1695741366819,-0.059570312,-1.0005493,0.10418701,0.75,0.703125,-0.3125,513
514,1695741366859,-0.06567383,-0.99102783,0.10272217,0.25,-0.734375,0.1875,514
515,1695741366899,-0.059326172,-1.0007935,0.093444824,-1.875,0.40625,-0.828125,515
516,1695741366939,-0.072021484,-0.99102783,0.10736084,1.0625,-0.125,0.15625,516
517,1695741366979,-0.056152344,-0.9939575,0.09564209,0.25,-0.296875,-0.1875,517
518,1695741367019,-0.068847656,-0.99664307,0.089538574,-0.453125,-0.171875,-0.578125,518
519,1695741367059,-0.06518555,-0.9963989,0.09539795,-0.296875,0.109375,-0.21875,519
520,1695741367099,-0.0546875,-0.9939575,0.10296631,-0.765625,-0.671875,-0.296875,520
521,1695741367139,-0.061279297,-0.9898071,0.09832764,-0.5,-0.296875,-0.390625,521
522,1695741367179,-0.072753906,-0.99713135,0.09222412,-0.546875,0.625,-0.265625,522
523,1695741367219,-0.06225586,-0.99542236,0.09197998,-0.671875,-0.96875,-0.375,523
524,1695741367259,-0.05029297,-0.9985962,0.09197998,-1.0625,0.125,-0.625,524
525,1695741367299,-0.06201172,-0.9993286,0.09466553,-0.640625,0.234375,-0.25,525
526,1695741367339,-0.06323242,-0.99420166,0.09637451,-0.578125,-0.140625,0.0625,526
527,1695741367379,-0.060302734,-0.9902954,0.09637451,-0.890625,-0.078125,-0.375,527
528,1695741367419,-0.059570312,-0.9944458,0.10076904,-0.765625,0.40625,-0.328125,528
529,1695741367459,-0.061279297,-0.9956665,0.1005249,-0.90625,-0.125,-0.328125,529
530,1695741367499,-0.055908203,-0.9956665,0.10028076,-0.90625,0.34375,-0.3125,530
531,1695741367539,-0.06738281,-0.9951782,0.1005249,-0.03125,0.3125,-0.046875,531
532,1695741367579,-0.0690918,-0.9937134,0.089538574,-0.828125,0.109375,0.03125,532
533,1695741367619,-0.049804688,-0.99591064,0.09246826,-1.8125,-0.5625,-0.421875,533
534,1695741367659,-0.06665039,-0.99542236,0.105407715,-1.46875,0.484375,-0.484375,534
535,1695741367699,-0.059814453,-0.9956665,0.10784912,0.03125,0.234375,0.03125,535
536,1695741367739,-0.057617188,-1.0037231,0.09710693,-1.4375,0.671875,-0.28125,536
537,1695741367779,-0.0546875,-0.9968872,0.09686279,-0.703125,0.046875,-0.34375,537
538,1695741367819,-0.061767578,-0.99664307,0.11004639,-0.265625,0.578125,-0.296875,538
539,1695741367859,-0.055908203,-0.9924927,0.10614014,-0.625,0.265625,-0.375,539
540,1695741367899,-0.067871094,-0.987854,0.08758545,-0.625,0.84375,-0.203125,540
541,1695741367939,-0.06225586,-0.9939575,0.10028076,-0.140625,0.5625,0.015625,541
542,1695741367979,-0.053955078,-0.9949341,0.09295654,-0.46875,0.46875,-0.1875,542
543,1695741368019,-0.057617188,-0.9915161,0.09857178,0.375,0.8125,0.03125,543
544,1695741368059,-0.05908203,-0.9973755,0.09613037,0.203125,0.640625,-0.03125,544
545,1695741368099,-0.059570312,-0.9924927,0.09466553,-0.0625,-0.109375,0.0625,545
546,1695741368139,-0.061767578,-0.9993286,0.08880615,0.078125,0.234375,-0.21875,546
547,1695741368179,-0.052246094,-0.991272,0.09686279,-0.75,1.0,-0.140625,547
548,1695741368219,-0.064941406,-0.9932251,0.09564209,-0.8125,0.5625,-0.21875,548
549,1695741368259,-0.05419922,-0.9968872,0.101745605,-0.1875,0.1875,-0.15625,549
550,1695741368299,-0.059570312,-0.9932251,0.09173584,-0.75,-0.34375,-0.28125,550
551,1695741368339,-0.04711914,-0.99102783,0.082214355,-1.890625,0.453125,-0.984375,551
552,1695741368379,-0.07128906,-0.99005127,0.09710693,-1.828125,1.515625,-0.71875,552
553,1695741368419,-0.060302734,-0.99664307,0.10296631,0.078125,0.03125,-0.1875,553
554,1695741368459,-0.05419922,-0.9963989,0.09222412,-1.703125,0.796875,-0.46875,554
555,1695741368499,-0.055908203,-1.000061,0.09295654,-0.96875,0.703125,-0.453125,555
556,1695741368539,-0.06347656,-0.98638916,0.09588623,-0.765625,-0.578125,-0.171875,556
557,1695741368579,-0.05883789,-0.9976196,0.09515381,-1.015625,0.90625,-0.296875,557
558,1695741368619,-0.06762695,-0.9937134,0.09100342,-0.15625,0.28125,-0.03125,558
559,1695741368659,-0.052246094,-0.9927368,0.101989746,-0.375,-0.296875,0.078125,559
560,1695741368699,-0.061035156,-0.99224854,0.09466553,-0.90625,-0.046875,-0.34375,560
561,1695741368739,-0.05834961,-0.98687744,0.09295654,-0.6875,-0.03125,-0.140625,561
562,1695741368779,-0.06298828,-0.9932251,0.09857178,-0.75,0.109375,-0.359375,562
563,1695741368819,-0.068359375,-0.9976196,0.09222412,-1.34375,-0.171875,-0.15625,563
564,1695741368859,-0.055908203,-0.9924927,0.09857178,-1.28125,-0.046875,-0.234375,564
565,1695741368899,-0.057128906,-0.9985962,0.0993042,-1.109375,0.15625,-0.34375,565
566,1695741368939,-0.060058594,-0.9873657,0.105407715,-0.625,0.265625,-0.390625,566
567,1695741368979,-0.057861328,-0.9907837,0.101989746,-0.34375,-0.140625,0.203125,567
568,1695741369019,-0.052001953,-0.99957275,0.093444824,-2.171875,-0.046875,-0.71875,568
569,1695741369059,-0.07446289,-0.9915161,0.10223389,-0.921875,0.796875,-0.203125,569
570,1695741369099,-0.05517578,-0.99884033,0.105651855,-0.015625,-0.421875,0.0,570
571,1695741369139,-0.05053711,-0.9951782,0.097595215,-1.328125,0.515625,-0.078125,571
572,1695741369179,-0.06616211,-0.9937134,0.0993042,0.171875,0.21875,-0.015625,572
573,1695741369219,-0.06225586,-1.0010376,0.10321045,0.015625,0.359375,0.15625,573
574,1695741369259,-0.049804688,-0.9890747,0.093688965,-0.03125,-0.046875,-0.046875,574
575,1695741369299,-0.06225586,-0.9985962,0.09979248,0.296875,1.75,-0.046875,575
576,1695741369339,-0.051757812,-0.99420166,0.09295654,1.15625,-1.125,0.109375,576
577,1695741369379,-0.05029297,-0.9927368,0.09295654,-0.203125,1.4375,0.03125,577
578,1695741369419,-0.053955078,-0.9961548,0.09222412,0.625,0.9375,-0.09375,578
579,1695741369459,-0.060058594,-0.9973755,0.08905029,0.40625,-0.40625,-0.328125,579
580,1695741369499,-0.056396484,-0.99298096,0.09661865,1.125,1.34375,-0.0625,580
581,1695741369539,-0.052001953,-0.9976196,0.08099365,0.59375,-0.640625,-0.53125,581
582,1695741369579,-0.06274414,-0.9932251,0.08758545,1.46875,1.359375,-0.21875,582
583,1695741369619,-0.05810547,-0.9951782,0.08294678,1.609375,0.90625,0.015625,583
584,1695741369659,-0.052490234,-0.99664307,0.07147217,0.3125,-0.9375,-0.4375,584
585,1695741369699,-0.049316406,-0.99053955,0.08270264,0.234375,1.3125,-0.671875,585
586,1695741369739,-0.06665039,-1.0032349,0.078308105,1.484375,0.78125,-0.15625,586
587,1695741369779,-0.05517578,-0.99468994,0.07171631,0.6875,0.296875,-0.375,587
588,1695741369819,-0.053466797,-0.99298096,0.07513428,0.21875,0.25,-0.234375,588
589,1695741369859,-0.05834961,-0.99224854,0.06512451,0.515625,0.171875,-0.265625,589
590,1695741369899,-0.043945312,-0.99102783,0.078308105,-0.15625,0.25,-0.390625,590
591,1695741369939,-0.055908203,-0.9993286,0.06488037,0.609375,0.375,-0.1875,591
592,1695741369979,-0.05126953,-0.99468994,0.0692749,-0.0625,-0.46875,-0.1875,592
593,1695741370019,-0.051757812,-1.0049438,0.066101074,-0.4375,-0.296875,-0.25,593
594,1695741370059,-0.05493164,-0.9915161,0.06951904,0.265625,-0.484375,-0.375,594
595,1695741370099,-0.051513672,-1.0046997,0.06585693,0.25,-0.6875,-0.234375,595
596,1695741370139,-0.05419922,-0.99786377,0.062683105,-0.265625,-0.125,-0.140625,596
597,1695741370179,-0.05883789,-0.9951782,0.06317139,-0.25,-0.015625,-0.171875,597
598,1695741370219,-0.051757812,-0.9937134,0.059020996,-0.109375,-0.296875,-0.296875,598
599,1695741370259,-0.05419922,-0.99224854,0.062194824,-0.546875,-0.859375,0.09375,599
600,1695741370299,-0.048583984,-0.9944458,0.05706787,-2.0625,0.578125,-0.65625,600
601,1695741370339,-0.0703125,-0.9976196,0.06463623,-0.1875,0.5625,-0.21875,601
602,1695741370379,-0.05908203,-0.99713135,0.062683105,-1.078125,-0.140625,-0.21875,602
603,1695741370419,-0.053955078,-0.9939575,0.062194824,-1.65625,1.140625,-0.515625,603
604,1695741370459,-0.060302734,-0.9973755,0.0692749,-0.859375,0.625,-0.59375,604
605,1695741370499,-0.060546875,-0.9951782,0.06488037,-1.015625,-0.0625,-0.21875,605
606,1695741370539,-0.048583984,-0.989563,0.06097412,-0.671875,0.765625,-0.421875,606
607,1695741370579,-0.061523438,-0.9951782,0.07318115,-0.921875,1.03125,-0.1875,607
608,1695741370619,-0.05029297,-0.9883423,0.062438965,-1.484375,-0.25,-0.5625,608
609,1695741370659,-0.055419922,-0.9939575,0.07171631,-0.890625,0.421875,-0.375,609
610,1695741370699,-0.051757812,-0.9932251,0.07147217,-0.765625,0.234375,-0.328125,610
611,1695741370739,-0.06225586,-0.9924927,0.07147217,-0.984375,0.421875,-0.296875,611
612,1695741370779,-0.052490234,-0.9907837,0.06561279,-1.078125,0.171875,-0.234375,612
613,1695741370819,-0.049560547,-0.99786377,0.066345215,-0.71875,-0.078125,-0.203125,613
614,1695741370859,-0.06542969,-0.9883423,0.070251465,-0.796875,-0.109375,-0.3125,614
615,1695741370899,-0.049316406,-0.99542236,0.06854248,-2.609375,0.1875,-0.6875,615
616,1695741370939,-0.06982422,-1.0046997,0.07366943,-1.171875,-0.25,-0.40625,616
617,1695741370979,-0.05444336,-0.9961548,0.081726074,-0.796875,-0.46875,-0.28125,617
618,1695741371019,-0.051513672,-0.9961548,0.06341553,-1.40625,0.546875,-0.40625,618
619,1695741371059,-0.059326172,-1.0003052,0.07342529,-0.984375,0.046875,-0.3125,619
620,1695741371099,-0.055664062,-0.99468994,0.077819824,-1.109375,-0.078125,-0.4375,620
621,1695741371139,-0.05908203,-0.99468994,0.0758667,-1.078125,0.046875,-0.546875,621
622,1695741371179,-0.06201172,-0.99591064,0.066101074,-1.15625,0.484375,-0.625,622
623,1695741371219,-0.06323242,-0.98760986,0.07952881,-1.1875,-0.0625,-0.390625,623
624,1695741371259,-0.05444336,-0.9990845,0.082214355,-1.546875,0.515625,-0.484375,624
625,1695741371299,-0.059326172,-0.99224854,0.07537842,-0.734375,0.25,-0.359375,625
626,1695741371339,-0.05883789,-0.99786377,0.0758667,-1.28125,0.578125,-0.359375,626
627,1695741371379,-0.052978516,-0.99884033,0.08709717,-1.28125,0.703125,-0.578125,627
628,1695741371419,-0.0637207,-0.98931885,0.08001709,-0.84375,0.515625,-0.46875,628
629,1695741371459,-0.06298828,-0.9898071,0.081970215,-1.171875,0.546875,-0.203125,629
630,1695741371499,-0.0546875,-0.99664307,0.082214355,-2.359375,0.046875,-1.140625,630
631,1695741371539,-0.072021484,-0.9846802,0.09320068,-2.125,1.0625,-0.84375,631
632,1695741371579,-0.057128906,-0.99835205,0.09490967,-0.234375,-0.796875,0.015625,632
633,1695741371619,-0.056640625,-0.99591064,0.08416748,-1.65625,0.34375,-0.59375,633
634,1695741371659,-0.05810547,-0.99542236,0.086120605,-0.84375,0.9375,-0.5,634
635,1695741371699,-0.06640625,-0.99664307,0.08880615,-0.75,-0.21875,-0.515625,635
636,1695741371739,-0.06298828,-0.9981079,0.08929443,-1.203125,-0.09375,-0.59375,636
637,1695741371779,-0.07299805,-0.9915161,0.08294678,-0.765625,0.8125,-0.390625,637
638,1695741371819,-0.06567383,-1.005188,0.09320068,-0.953125,-0.0625,-0.25,638
639,1695741371859,-0.06347656,-0.9956665,0.09222412,-0.953125,0.296875,-0.46875,639
640,1695741371899,-0.06616211,-0.9944458,0.089538574,-0.765625,0.78125,-0.390625,640
641,1695741371939,-0.06933594,-0.99713135,0.08685303,-0.796875,0.0625,-0.28125,641
642,1695741371979,-0.064453125,-0.9956665,0.089538574,-1.296875,0.453125,-0.40625,642
643,1695741372019,-0.059570312,-1.003479,0.093688965,-0.65625,0.3125,-0.125,643
644,1695741372059,-0.0690918,-0.9924927,0.094177246,-0.859375,0.703125,-0.40625,644
645,1695741372099,-0.064941406,-0.99468994,0.0914917,-0.890625,-0.515625,-0.21875,645
646,1695741372139,-0.06347656,-0.9949341,0.0914917,-2.578125,0.671875,-0.796875,646
647,1695741372179,-0.06640625,-0.9963989,0.10467529,-0.078125,0.203125,0.0625,647
648,1695741372219,-0.064941406,-1.0032349,0.085632324,-0.609375,-0.03125,-0.34375,648
649,1695741372259,-0.055419922,-0.9907837,0.08929443,-1.140625,1.0625,-0.265625,649
650,1695741372299,-0.06933594,-0.9985962,0.097351074,-0.671875,0.03125,-0.328125,650
651,1695741372339,-0.068359375,-0.99835205,0.093444824,-0.78125,0.015625,-0.046875,651
652,1695741372379,-0.06542969,-0.9976196,0.097351074,-0.921875,0.515625,-0.171875,652
653,1695741372419,-0.06567383,-0.9949341,0.093933105,-0.296875,0.390625,0.21875,653
654,1695741372459,-0.05517578,-0.99542236,0.09490967,-1.140625,0.015625,-0.265625,654
655,1695741372499,-0.06762695,-0.987854,0.09295654,-0.515625,0.4375,-0.21875,655
656,1695741372539,-0.061523438,-0.9993286,0.09222412,-0.390625,0.265625,-0.125,656
657,1695741372579,-0.06542969,-0.99591064,0.09197998,-0.4375,-0.140625,-0.140625,657
658,1695741372619,-0.07080078,-0.9920044,0.09442139,-0.75,0.84375,-0.03125,658
659,1695741372659,-0.05908203,-0.99786377,0.09100342,0.140625,0.40625,0.015625,659
660,1695741372699,-0.06542969,-0.99591064,0.09906006,-0.40625,1.453125,0.296875,660
661,1695741372739,-0.057128906,-0.99005127,0.08026123,-1.140625,-0.9375,-0.53125,661
662,1695741372779,-0.080078125,-1.0012817,0.08880615,-1.125,1.59375,-0.421875,662
663,1695741372819,-0.0625,-0.99542236,0.09710693,0.8125,-0.625,0.3125,663
664,1695741372859,-0.059570312,-1.0027466,0.08929443,-1.125,0.71875,-0.4375,664
665,1695741372899,-0.059814453,-0.9981079,0.089538574,-0.015625,0.375,-0.25,665
666,1695741372939,-0.06323242,-1.0012817,0.08807373,-0.96875,0.296875,-0.25,666
667,1695741372979,-0.059814453,-0.9932251,0.093444824,-0.390625,0.296875,-0.5,667
668,1695741373019,-0.0637207,-0.9939575,0.094177246,-0.828125,1.390625,-0.4375,668
669,1695741373059,-0.0625,-0.99298096,0.0927124,-0.25,-0.765625,-0.265625,669
670,1695741373099,-0.060546875,-0.99102783,0.09320068,-1.296875,0.34375,-0.4375,670
671,1695741373139,-0.06274414,-0.99468994,0.090270996,-0.09375,0.796875,-0.484375,671
672,1695741373179,-0.06933594,-0.9902954,0.09490967,-0.515625,0.546875,-0.328125,672
673,1695741373219,-0.064453125,-0.99005127,0.08807373,-1.0,0.765625,-0.34375,673
674,1695741373259,-0.05883789,-0.99591064,0.090026855,-0.546875,0.140625,-0.078125,674
675,1695741373299,-0.056396484,-0.9985962,0.08782959,-0.25,1.03125,-0.5,675
676,1695741373339,-0.06665039,-0.9885864,0.09588623,-0.046875,0.484375,-0.09375,676
677,1695741373379,-0.060791016,-0.991272,0.085632324,-2.5,0.6875,-1.0625,677
678,1695741373419,-0.06665039,-0.98931885,0.1005249,-0.453125,0.484375,0.078125,678
679,1695741373459,-0.059326172,-0.9998169,0.090270996,0.296875,-0.59375,-0.046875,679
680,1695741373499,-0.057861328,-0.9898071,0.08685303,-1.3125,1.046875,-0.265625,680
681,1695741373539,-0.0690918,-0.99835205,0.093444824,0.140625,-0.046875,-0.28125,681
682,1695741373579,-0.061035156,-0.9985962,0.09173584,-1.140625,-0.03125,-0.296875,682
683,1695741373619,-0.060546875,-0.9883423,0.082214355,-0.3125,-0.46875,-0.296875,683
684,1695741373659,-0.06298828,-0.99102783,0.09197998,-0.765625,0.859375,-0.296875,684
685,1695741373699,-0.061523438,-0.99346924,0.089782715,-0.578125,-0.578125,-0.28125,685
686,1695741373739,-0.06542969,-0.99176025,0.08831787,-0.828125,0.0625,-0.53125,686
687,1695741373779,-0.06567383,-0.9939575,0.086364746,-0.40625,-0.03125,-0.296875,687
688,1695741373819,-0.064208984,-0.99468994,0.09637451,-1.078125,-0.03125,-0.3125,688
689,1695741373859,-0.055908203,-0.9998169,0.09222412,-0.65625,0.21875,-0.265625,689
690,1695741373899,-0.0703125,-0.99713135,0.085632324,-0.9375,0.28125,-0.390625,690
691,1695741373939,-0.0637207,-0.99346924,0.08929443,-0.484375,0.203125,-0.328125,691
692,1695741373979,-0.06201172,-0.99468994,0.09832764,-0.046875,0.3125,-0.015625,692
693,1695741374019,-0.055908203,-0.9944458,0.08929443,-2.359375,0.328125,-0.890625,693
694,1695741374059,-0.0769043,-0.9866333,0.0927124,-0.546875,0.4375,-0.34375,694
695,1695741374099,-0.06567383,-0.9985962,0.09613037,0.1875,-0.03125,-0.015625,695
696,1695741374139,-0.056640625,-0.99957275,0.08734131,-1.46875,0.65625,-0.390625,696
697,1695741374179,-0.068115234,-0.9932251,0.09613037,-0.109375,-0.5625,-0.40625,697
698,1695741374219,-0.06689453,-0.99591064,0.094177246,-1.375,0.34375,-0.328125,698
699,1695741374259,-0.07421875,-0.99224854,0.101501465,-0.3125,-0.03125,-0.359375,699
700,1695741374299,-0.0703125,-0.9927368,0.09466553,-0.703125,-0.328125,-0.296875,700
701,1695741374339,-0.0637207,-0.9993286,0.09490967,-0.296875,-0.578125,-0.25,701
702,1695741374379,-0.061035156,-0.9920044,0.09710693,-0.640625,-0.078125,-0.234375,702
703,1695741374419,-0.06323242,-1.0056763,0.09100342,-0.390625,-0.40625,-0.3125,703
704,1695741374459,-0.06689453,-0.99835205,0.09442139,-0.546875,0.03125,-0.203125,704
705,1695741374499,-0.06591797,-0.99298096,0.089538574,-0.578125,-0.09375,-0.171875,705
706,1695741374539,-0.0690918,-0.99591064,0.09490967,-0.421875,0.3125,-0.171875,706
707,1695741374579,-0.06958008,-0.9963989,0.0993042,-0.0625,0.359375,-0.328125,707
708,1695741374619,-0.06616211,-0.9949341,0.086120605,0.21875,-1.0625,0.078125,708
709,1695741374659,-0.05493164,-0.99102783,0.0848999,-1.9375,1.125,-0.75,709
710,1695741374699,-0.075683594,-0.98760986,0.09954834,0.453125,1.359375,-0.015625,710
711,1695741374739,-0.0690918,-1.0025024,0.085876465,-0.015625,-0.4375,-0.078125,711
712,1695741374779,-0.05908203,-0.99542236,0.08538818,-0.71875,0.5,-0.390625,712
713,1695741374819,-0.056884766,-0.9993286,0.09222412,0.21875,0.75,0.1875,713
714,1695741374859,-0.064453125,-0.9956665,0.08343506,-0.203125,-0.15625,-0.09375,714
715,1695741374899,-0.061279297,-0.99298096,0.074645996,-0.03125,-0.328125,-0.15625,715
716,1695741374939,-0.052978516,-0.98883057,0.09197998,-0.734375,0.921875,-0.015625,716
717,1695741374979,-0.060058594,-1.0003052,0.08929443,-0.4375,-1.0,-0.234375,717
718,1695741375019,-0.072021484,-0.99542236,0.08758545,-0.390625,0.125,-0.203125,718
719,1695741375059,-0.060302734,-1.0003052,0.08538818,0.21875,0.0,0.28125,719
720,1695741375099,-0.06518555,-1.0015259,0.086120605,0.53125,-0.015625,0.203125,720
721,1695741375139,-0.061279297,-0.99468994,0.08294678,0.359375,0.1875,0.140625,721
722,1695741375179,-0.052734375,-0.98809814,0.078552246,0.953125,-0.125,0.140625,722
723,1695741375219,-0.059326172,-1.0039673,0.07489014,0.625,0.140625,0.359375,723
724,1695741375259,-0.05078125,-0.9990845,0.074645996,-0.484375,0.078125,0.015625,724
725,1695741375299,-0.06958008,-0.9890747,0.07513428,0.28125,-0.078125,-0.046875,725
726,1695741375339,-0.060791016,-0.99835205,0.07611084,1.015625,0.21875,0.328125,726
727,1695741375379,-0.052978516,-0.99591064,0.06365967,-0.609375,0.484375,-0.3125,727
728,1695741375419,-0.052978516,-0.9939575,0.070007324,-0.015625,0.09375,-0.078125,728
729,1695741375459,-0.064941406,-1.0007935,0.07659912,-0.078125,-0.125,-0.0625,729
730,1695741375499,-0.057373047,-0.98760986,0.066589355,-0.515625,-0.046875,-0.265625,730
731,1695741375539,-0.061279297,-0.9944458,0.06903076,-0.796875,0.59375,-0.109375,731
732,1695741375579,-0.055419922,-0.9924927,0.070007324,-0.71875,-0.359375,-0.203125,732
733,1695741375619,-0.053466797,-0.99298096,0.07635498,-0.796875,0.25,-0.078125,733
734,1695741375659,-0.059814453,-1.0037231,0.06488037,-0.703125,-0.046875,-0.03125,734
735,1695741375699,-0.057617188,-0.99102783,0.06365967,-0.90625,-0.21875,0.078125,735
736,1695741375739,-0.057861328,-0.9902954,0.07098389,-0.984375,0.171875,-0.171875,736
737,1695741375779,-0.056884766,-1.003479,0.0692749,-0.234375,0.171875,-0.203125,737
738,1695741375819,-0.0625,-0.99884033,0.074645996,-0.546875,-0.109375,0.03125,738
739,1695741375859,-0.047851562,-0.9932251,0.06878662,-2.28125,0.125,-0.640625,739
740,1695741375899,-0.06542969,-0.989563,0.0692749,-0.0625,0.203125,-0.234375,740
741,1695741375939,-0.061279297,-0.99713135,0.073913574,-0.25,-0.03125,-0.015625,741
742,1695741375979,-0.051513672,-1.0005493,0.06341553,-1.65625,-0.0625,-0.40625,742
743,1695741376019,-0.05517578,-0.9907837,0.07318115,-0.984375,0.015625,-0.390625,743
744,1695741376059,-0.05908203,-0.99835205,0.07952881,-0.875,-0.109375,-0.296875,744
745,1695741376099,-0.05908203,-0.9976196,0.07342529,-0.53125,-0.03125,-0.453125,745
746,1695741376139,-0.063964844,-0.9949341,0.07293701,-1.4375,0.3125,-0.34375,746
747,1695741376179,-0.053710938,-0.9951782,0.07147217,-0.875,-0.421875,-0.390625,747
748,1695741376219,-0.053710938,-1.0003052,0.08026123,-1.5,0.625,-0.6875,748
749,1695741376259,-0.061035156,-0.9961548,0.07220459,-0.640625,0.296875,-0.578125,749
750,1695741376299,-0.06591797,-0.9990845,0.07684326,-1.484375,0.296875,-0.53125,750
751,1695741376339,-0.056152344,-0.9951782,0.07757568,-1.265625,0.140625,-0.359375,751
752,1695741376379,-0.056640625,-0.9937134,0.070495605,-0.71875,0.53125,-0.71875,752
753,1695741376419,-0.064697266,-0.9998169,0.08465576,-0.515625,0.46875,0.015625,753
754,1695741376459,-0.056396484,-0.9915161,0.070739746,-2.65625,0.578125,-1.09375,754
755,1695741376499,-0.07397461,-0.9963989,0.08123779,-0.5625,0.890625,-0.09375,755
756,1695741376539,-0.060058594,-1.0012817,0.08514404,-0.5,0.1875,-0.03125,756
757,1695741376579,-0.052978516,-1.000061,0.08294678,-1.625,1.0,-0.5625,757
758,1695741376619,-0.060058594,-1.00177,0.08026123,-0.875,-0.15625,-0.453125,758
759,1695741376659,-0.059814453,-0.9937134,0.08538818,-1.578125,0.234375,-0.203125,759
