,timestamp,accel_x,accel_y,accel_z,gyro_x,gyro_y,gyro_z
0,1696168056358,0.08666992,-1.1604614,0.12567139,16.703125,-13.921875,7.828125
1,1696168056397,0.36328125,-1.5549927,-0.030090332,9.15625,-27.734375,20.5625
2,1696168056437,0.26757812,-1.0408325,0.262146,-36.359375,-0.53125,3.6875
3,1696168056477,-0.24121094,-0.79644775,0.2658081,6.015625,12.015625,-17.984375
4,1696168056518,-0.13061523,-0.9788208,0.13226318,6.203125,-7.65625,-5.84375
5,1696168056558,0.27246094,-1.3076782,-0.08770752,13.09375,-18.21875,23.65625
6,1696168056598,0.15917969,-1.2251587,0.24334717,-12.984375,14.875,-12.21875
7,1696168056639,-0.15307617,-0.9534302,0.27679443,-10.796875,13.484375,-8.875
8,1696168056678,-0.048339844,-0.92681885,0.10394287,5.296875,-0.59375,4.28125
9,1696168056718,0.12158203,-0.95806885,0.13250732,0.296875,10.515625,1.671875
10,1696168056758,0.16552734,-0.894104,0.15081787,-6.9375,9.859375,1.671875
11,1696168056798,0.09301758,-0.83599854,0.19573975,-7.078125,-1.25,0.296875
12,1696168056819,0.021728516,-0.7971802,0.14813232,-3.359375,-6.28125,0.984375
13,1696168056858,0.017822266,-0.8364868,0.10003662,-4.96875,-11.03125,4.609375
14,1696168056898,0.072021484,-0.83380127,0.24359131,-13.359375,-11.46875,1.484375
15,1696168056938,-0.06542969,-0.80792236,0.2567749,-2.8125,-8.6875,-3.046875
16,1696168056979,-0.107666016,-1.0308228,0.16326904,1.625,-18.390625,1.734375
17,1696168057019,-0.057373047,-1.0776978,0.24432373,-16.171875,-12.875,8.59375
18,1696168057059,-0.020019531,-0.94903564,0.3270874,5.328125,4.890625,4.546875
19,1696168057099,-0.014160156,-1.0535278,0.28875732,-16.0,-5.890625,1.421875
20,1696168057140,-0.1171875,-0.8284302,0.26727295,5.421875,9.359375,0.515625
21,1696168057179,-0.10986328,-0.8430786,0.23309326,0.5,1.765625,3.828125
22,1696168057219,0.28588867,-1.3418579,0.17376709,7.46875,-15.140625,6.203125
23,1696168057259,0.3918457,-1.3181763,0.4088745,-13.109375,25.515625,-6.78125
24,1696168057298,0.36157227,-0.9517212,0.23944092,6.375,17.75,6.984375
25,1696168057340,0.36914062,-1.2866821,0.184021,-18.046875,-3.953125,-2.859375
26,1696168057379,0.16259766,-0.9326782,0.60272217,-4.140625,11.5625,-9.1875
27,1696168057419,0.037597656,-1.0166626,0.20526123,15.140625,3.90625,5.875
28,1696168057459,0.21362305,-0.9024048,0.15863037,-7.8125,-0.03125,0.765625
29,1696168057499,0.28442383,-0.78863525,0.35003662,-5.53125,10.125,2.40625
30,1696168057538,0.23095703,-0.74005127,0.37835693,4.296875,-10.203125,3.1875
31,1696168057579,0.106933594,-0.80792236,0.24822998,4.6875,-7.5,-2.75
32,1696168057624,-0.02758789,-0.8562622,0.2645874,1.484375,4.640625,-6.046875
33,1696168057660,-0.009765625,-0.74713135,0.34906006,-1.703125,0.8125,-4.875
34,1696168057701,0.0847168,-0.75616455,0.30145264,5.625,-1.234375,-13.234375
35,1696168057738,0.1274414,-0.8233032,0.30877686,6.328125,-3.9375,-12.34375
36,1696168057779,0.21826172,-0.95391846,0.385437,11.578125,-7.171875,4.09375
37,1696168057819,0.23950195,-1.2278442,0.3270874,-4.890625,-16.1875,-10.015625
38,1696168057859,-0.16186523,-0.8755493,0.24725342,-0.78125,14.34375,-7.578125
39,1696168057898,0.013183594,-0.93707275,0.2711792,8.734375,-1.328125,6.546875
40,1696168057938,0.2590332,-1.020813,0.46453857,-10.640625,-4.96875,-6.4375
41,1696168057979,0.12109375,-0.8682251,0.4130249,1.734375,-2.609375,1.9375
42,1696168058040,0.1328125,-0.93951416,0.18328857,4.078125,-12.4375,2.71875
43,1696168058047,0.0021972656,-1.302063,0.078552246,20.09375,-15.34375,4.375
44,1696168058079,0.37060547,-1.300354,0.27435303,-3.359375,-15.390625,13.546875
45,1696168058118,-0.111328125,-1.0610962,0.20379639,6.515625,12.296875,-5.03125
46,1696168058158,-0.011962891,-1.1050415,0.24578857,-4.203125,-12.203125,-2.671875
47,1696168058199,-0.04711914,-1.0264282,0.1762085,4.25,9.765625,-8.953125
48,1696168058239,0.052734375,-1.0916138,0.10321045,-0.078125,-1.640625,-1.171875
49,1696168058280,0.17919922,-0.8909302,0.02532959,-4.0625,8.984375,-0.265625
50,1696168058318,0.072753906,-0.8953247,0.21600342,8.296875,11.140625,-8.90625
51,1696168058358,0.021728516,-1.0984497,0.13543701,0.953125,1.5625,-2.765625
52,1696168058398,0.08203125,-0.9602661,0.12908936,-2.421875,-5.65625,1.96875
53,1696168058439,0.033203125,-0.86016846,0.19671631,-7.171875,10.640625,-8.5625
54,1696168058480,-0.008544922,-0.76812744,0.20159912,-4.875,1.875,-2.953125
55,1696168058518,-0.053710938,-0.78692627,0.18939209,2.1875,-1.578125,1.78125
56,1696168058559,0.020019531,-0.86138916,0.12200928,-10.46875,-14.921875,4.34375
57,1696168058598,0.0029296875,-0.78375244,0.20501709,-11.390625,-7.28125,0.890625
58,1696168058638,-0.055419922,-0.66192627,0.31195068,-12.6875,-5.515625,-7.828125
59,1696168058678,-0.2084961,-0.923645,0.31048584,6.75,-3.484375,0.34375
60,1696168058718,-0.12036133,-1.2249146,0.21502686,0.15625,-7.59375,13.375
61,1696168058758,0.029785156,-1.1431274,0.35028076,-20.65625,2.65625,-4.640625
62,1696168058798,-0.072753906,-0.8831177,0.39227295,-8.828125,15.109375,-5.625
63,1696168058838,-0.025878906,-1.0447388,0.16448975,6.0625,-6.125,7.21875
64,1696168058879,0.06225586,-1.3604126,0.26678467,18.484375,2.140625,5.875
65,1696168058918,0.25048828,-1.1043091,0.48919678,-19.46875,15.5,0.96875
66,1696168058958,0.21191406,-0.940979,0.078063965,10.6875,0.28125,8.09375
67,1696168058999,0.2553711,-1.0720825,0.04071045,3.1875,-14.59375,10.984375
68,1696168059038,0.35009766,-1.1157837,0.4623413,0.109375,-5.609375,5.796875
69,1696168059079,0.04663086,-1.0762329,0.3776245,-0.625,-9.71875,0.546875
70,1696168059119,-0.052734375,-1.0791626,0.047302246,10.015625,-4.296875,5.78125
71,1696168059158,0.111083984,-0.9224243,0.23822021,-13.484375,1.1875,6.953125
72,1696168059198,0.18359375,-0.8220825,0.32537842,11.515625,3.15625,8.609375
73,1696168059259,0.095214844,-0.7642212,0.22698975,-3.453125,7.34375,0.96875
74,1696168059278,0.040283203,-0.69659424,0.21282959,-0.5625,8.140625,-2.5625
75,1696168059298,0.00048828125,-0.7564087,0.24261475,-1.84375,5.609375,-6.328125
76,1696168059338,0.037353516,-0.6782837,0.3217163,-6.890625,13.15625,-9.296875
77,1696168059379,0.087402344,-0.77471924,0.27679443,0.25,9.453125,-10.953125
78,1696168059418,0.04638672,-1.1033325,0.29901123,11.390625,6.390625,-15.484375
79,1696168059459,0.119384766,-1.1863403,0.4076538,-5.8125,8.328125,-7.140625
80,1696168059499,0.20141602,-0.88897705,0.40838623,-7.140625,11.25,0.28125
81,1696168059540,0.17480469,-1.0374146,0.3287964,5.609375,2.125,-11.0625
82,1696168059579,0.088378906,-1.0396118,0.38201904,7.9375,3.421875,-0.046875
83,1696168059620,0.1472168,-1.2175903,0.26507568,-0.515625,-7.453125,-1.140625
84,1696168059659,0.13232422,-1.1008911,0.1906128,5.46875,-8.484375,5.28125
85,1696168059699,0.1743164,-1.0029907,0.21746826,-1.34375,2.171875,-0.28125
86,1696168059739,-0.24560547,-1.1533813,0.22283936,14.8125,10.265625,-13.453125
87,1696168059783,0.12011719,-1.1502075,0.042175293,-3.3125,-25.515625,6.4375
88,1696168059821,0.19946289,-0.90045166,0.124938965,9.375,18.65625,6.046875
89,1696168059859,-0.051757812,-0.81134033,0.3546753,-19.59375,6.78125,-14.875
90,1696168059905,-0.17700195,-1.1489868,0.1708374,7.296875,1.703125,-7.84375
91,1696168059938,0.010009766,-1.1170044,0.042175293,4.0625,-8.28125,10.0625
92,1696168059979,0.12231445,-0.96539307,0.15032959,-1.78125,18.90625,3.6875
93,1696168060020,0.07470703,-0.82159424,0.2526245,-16.03125,10.796875,-2.828125
94,1696168060061,0.05493164,-0.71051025,0.17645264,1.03125,-4.296875,5.375
95,1696168060099,0.0637207,-0.69195557,0.06707764,-9.734375,-13.5625,6.0625
96,1696168060139,-0.012939453,-0.91363525,0.10687256,-10.140625,-19.28125,4.640625
97,1696168060179,0.009033203,-0.8513794,0.27264404,-12.5,-10.015625,-0.09375
98,1696168060220,-0.21484375,-0.67974854,0.33099365,-11.546875,3.671875,1.609375
99,1696168060259,-0.15234375,-1.1060181,0.23797607,8.609375,-1.625,8.21875
100,1696168060298,0.18310547,-1.2693481,0.13787842,5.734375,-14.40625,10.6875
101,1696168060340,0.11401367,-1.0049438,0.52508545,-19.609375,12.03125,3.03125
102,1696168060381,-0.17651367,-1.017395,0.33270264,5.015625,10.71875,2.03125
103,1696168060419,-0.11352539,-1.0383911,0.23016357,-3.46875,-7.28125,-1.0
104,1696168060478,0.2705078,-0.9644165,0.27459717,5.125,-1.390625,5.9375
105,1696168060498,0.32104492,-1.2615356,0.29974365,4.140625,6.984375,1.59375
106,1696168060520,0.16845703,-0.677063,0.25360107,-10.5625,14.578125,1.5625
107,1696168060560,0.14013672,-1.2012329,0.09442139,15.328125,4.453125,2.78125
108,1696168060599,0.38842773,-1.1939087,0.3053589,-0.875,-6.59375,9.625
109,1696168060639,0.35839844,-1.0488892,0.35980225,-8.234375,1.34375,1.28125
110,1696168060679,-0.052490234,-1.0198364,0.21160889,3.78125,6.453125,-3.140625
111,1696168060719,0.052246094,-0.9151001,0.17181396,-3.75,7.703125,4.640625
112,1696168060760,0.21606445,-0.7984009,0.25408936,2.296875,-6.59375,3.34375
113,1696168060799,0.265625,-0.8623657,0.32318115,-2.09375,6.0,-2.328125
114,1696168060838,0.17114258,-0.86602783,0.23651123,-3.84375,8.71875,-4.25
115,1696168060879,0.03540039,-0.70391846,0.23724365,-9.65625,7.859375,-10.5
116,1696168060919,0.023925781,-0.60650635,0.2765503,-7.109375,2.96875,-8.6875
117,1696168060959,0.123535156,-0.8411255,0.31292725,0.96875,-0.84375,-14.0625
118,1696168060999,0.06591797,-0.8291626,0.4743042,10.609375,14.375,-8.125
119,1696168061040,0.18334961,-0.9663696,0.26068115,0.1875,-1.171875,-4.59375
120,1696168061079,0.09863281,-1.0064087,0.23187256,7.984375,-5.046875,-14.609375
121,1696168061119,0.13110352,-1.130188,0.45599365,6.1875,5.65625,-0.984375
122,1696168061160,0.045898438,-1.1121216,0.46868896,-14.09375,1.890625,-7.890625
123,1696168061199,-0.030029297,-0.9788208,0.30316162,1.3125,-2.765625,-11.671875
124,1696168061238,0.0637207,-0.90826416,0.33099365,-3.3125,1.203125,4.765625
125,1696168061281,0.30004883,-1.0918579,0.322937,9.3125,-10.140625,7.140625
126,1696168061320,0.2565918,-1.2966919,0.14129639,-13.734375,-11.34375,-9.28125
127,1696168061363,-0.171875,-0.7090454,0.06854248,11.734375,9.609375,-9.125
128,1696168061399,-0.45092773,-1.5274048,0.036071777,2.15625,10.671875,-1.671875
129,1696168061438,0.4350586,-0.8533325,0.14569092,1.875,-32.375,16.109375
130,1696168061478,0.15551758,-1.0012817,0.34197998,-22.1875,19.53125,-3.59375
131,1696168061519,-0.20776367,-0.82769775,0.31195068,26.703125,34.578125,-14.203125
132,1696168061559,-0.21777344,-1.5425415,-0.19024658,6.296875,-20.90625,1.21875
133,1696168061599,0.18481445,-0.98516846,0.16888428,-9.03125,11.4375,7.0
134,1696168061641,0.12548828,-0.80548096,0.36102295,-8.03125,22.21875,-4.890625
135,1696168061679,0.11035156,-0.67755127,0.277771,-12.296875,-6.078125,-0.421875
136,1696168061719,0.0871582,-0.5757446,0.15057373,0.09375,-16.15625,12.578125
137,1696168061739,-0.03857422,-0.7178345,0.08343506,8.375,-15.59375,8.359375
138,1696168061779,0.0107421875,-0.92022705,0.2904663,-0.828125,-22.15625,2.53125
139,1696168061819,-0.17504883,-1.1636353,0.2501831,7.390625,-17.875,3.515625
140,1696168061859,-0.15185547,-0.93414307,0.3529663,-15.0,-3.171875,3.015625
141,1696168061899,0.009277344,-0.9949341,0.3180542,-1.421875,-10.234375,2.484375
142,1696168061938,0.026367188,-1.0747681,0.3143921,-6.609375,-0.6875,0.515625
143,1696168061978,-0.13842773,-0.9854126,0.25213623,3.375,6.40625,4.453125
144,1696168062018,-0.20507812,-1.0899048,0.31072998,3.984375,7.21875,-6.484375
145,1696168062059,0.041259766,-0.8760376,0.36663818,6.53125,1.34375,-3.59375
146,1696168062100,0.36547852,-1.3630981,0.34051514,1.921875,-7.515625,0.5625
147,1696168062138,0.19116211,-1.0147095,0.16741943,-1.6875,17.171875,-3.21875
148,1696168062178,0.2578125,-0.9102173,0.12054443,-0.4375,-4.15625,2.328125
149,1696168062220,0.26660156,-0.9751587,0.25701904,22.4375,-9.96875,6.828125
150,1696168062260,0.091308594,-1.1135864,0.21063232,-2.25,-4.96875,4.234375
151,1696168062304,0.09765625,-0.881897,0.20770264,1.59375,-5.109375,5.65625
152,1696168062339,0.19018555,-1.0217896,0.20721436,9.265625,-7.171875,6.8125
153,1696168062379,0.18115234,-0.9612427,0.2555542,3.921875,-0.125,4.65625
154,1696168062419,0.080566406,-0.72857666,0.20111084,-1.3125,4.359375,3.828125
155,1696168062459,-0.025878906,-0.69415283,0.14642334,10.953125,2.15625,-1.421875
156,1696168062500,0.008056641,-0.74224854,0.23675537,-2.125,7.171875,-6.59375
157,1696168062540,0.087646484,-0.86016846,0.28582764,-3.640625,5.625,-11.328125
158,1696168062579,0.038085938,-0.85357666,0.2868042,-2.296875,14.703125,-8.125
159,1696168062620,0.12573242,-0.83477783,0.2658081,0.765625,8.3125,-1.171875
160,1696168062659,0.18017578,-1.1221313,0.26531982,12.203125,3.09375,-10.90625
161,1696168062699,0.23730469,-1.2754517,0.40008545,6.546875,0.109375,-5.109375
162,1696168062739,0.06274414,-0.9319458,0.37664795,-28.015625,3.59375,1.609375
163,1696168062778,0.19897461,-0.9985962,0.28753662,3.953125,-7.421875,-5.75
164,1696168062819,-0.03149414,-1.1904907,0.1954956,-8.734375,-7.5625,2.15625
165,1696168062860,0.19970703,-1.1055298,0.12249756,-2.9375,-10.984375,5.421875
166,1696168062898,0.24609375,-1.4199829,0.02166748,12.421875,-24.109375,5.03125
167,1696168062939,0.06640625,-0.98516846,0.21453857,-22.453125,2.859375,-8.375
168,1696168062959,-0.22045898,-0.61383057,0.277771,-11.203125,0.40625,-6.125
169,1696168062998,-0.049316406,-1.31427,-0.1687622,30.75,-10.46875,-0.671875
170,1696168063038,0.19702148,-1.2732544,0.10418701,6.65625,-13.015625,8.96875
171,1696168063079,0.049560547,-0.9805298,0.3283081,-28.1875,10.78125,-11.421875
172,1696168063123,-0.28344727,-0.91656494,0.28875732,4.5,8.453125,-13.046875
173,1696168063159,-0.11376953,-0.97198486,0.05731201,3.09375,-1.78125,2.734375
174,1696168063198,0.08276367,-0.8591919,0.078308105,-11.625,4.828125,4.078125
175,1696168063238,0.12158203,-0.73565674,0.21990967,-8.203125,5.15625,-1.46875
176,1696168063279,-0.033447266,-0.7527466,0.21185303,-2.4375,-5.25,0.671875
177,1696168063318,-0.10522461,-0.6668091,0.168396,-5.53125,-5.046875,-4.796875
178,1696168063361,-0.20043945,-0.9053345,0.14642334,1.171875,4.328125,-2.328125
179,1696168063399,-0.08911133,-1.1521606,0.23480225,-23.765625,-5.71875,4.546875
180,1696168063441,0.041748047,-0.9248657,0.3991089,-7.75,2.953125,-0.078125
181,1696168063479,0.09472656,-0.940979,0.4862671,-8.8125,2.015625,-1.234375
182,1696168063519,-0.05810547,-1.0750122,0.32757568,-0.828125,3.625,-1.75
183,1696168063561,-0.16992188,-1.0462036,0.15423584,10.59375,-1.265625,5.625
184,1696168063599,-0.041503906,-0.9155884,0.3908081,-16.53125,5.578125,2.4375
185,1696168063639,0.029052734,-1.3796997,0.3637085,32.4375,3.40625,3.125
186,1696168063679,0.19848633,-1.1338501,0.15692139,-9.34375,14.578125,6.671875
187,1696168063719,0.36132812,-0.83135986,0.08441162,6.515625,5.875,17.171875
188,1696168063760,0.3466797,-1.0042114,0.26849365,-1.703125,-7.265625,7.359375
189,1696168063798,0.19946289,-1.1565552,0.33685303,17.578125,-8.578125,4.015625
190,1696168063839,-0.0703125,-1.1887817,0.24188232,-0.5625,-2.40625,3.578125
191,1696168063879,-0.07397461,-0.95880127,0.15570068,-12.734375,2.484375,-2.34375
192,1696168063920,0.17871094,-0.8635864,0.2592163,11.921875,-4.09375,1.53125
193,1696168063959,0.2043457,-0.8875122,0.36541748,0.890625,-4.40625,1.625
194,1696168063999,0.06738281,-0.76812744,0.15863037,0.421875,2.96875,-1.46875
195,1696168064038,-0.07739258,-0.7671509,0.14031982,3.65625,10.609375,-5.8125
196,1696168064079,-0.06518555,-0.62945557,0.29241943,-6.78125,13.609375,-3.53125
197,1696168064121,0.16381836,-0.7161255,0.23162842,3.359375,1.859375,-8.40625
198,1696168064161,-0.031982422,-0.737854,0.3065796,6.640625,28.46875,-16.421875
199,1696168064179,0.26342773,-1.1919556,0.21014404,34.421875,-1.4375,5.046875
200,1696168064219,0.15136719,-1.3359985,0.48675537,-15.515625,8.46875,-18.9375
201,1696168064259,0.13378906,-1.1135864,0.31097412,8.859375,3.59375,-10.625
202,1696168064298,-0.08496094,-0.7991333,0.28070068,-19.875,20.3125,-7.21875
203,1696168064338,0.028808594,-0.96710205,0.15203857,14.484375,-4.34375,-5.109375
204,1696168064379,0.20874023,-1.2080688,0.22454834,-3.359375,-14.0,5.015625
205,1696168064419,0.23608398,-1.170227,0.035827637,-2.640625,-0.375,4.265625
206,1696168064460,-0.047851562,-1.3640747,-0.10211182,14.515625,5.84375,-6.296875
207,1696168064499,0.079833984,-1.1104126,0.20721436,-12.4375,-17.453125,5.65625
208,1696168064539,-0.23144531,-0.86846924,0.26116943,-15.96875,11.296875,-15.765625
209,1696168064581,-0.29077148,-1.1968384,0.055114746,16.53125,1.71875,-5.953125
210,1696168064619,0.03173828,-1.1392212,0.008483887,10.28125,-2.046875,14.890625
211,1696168064659,0.09057617,-0.96710205,0.08074951,-18.4375,14.34375,-6.203125
212,1696168064699,0.0024414062,-0.7647095,0.28411865,-3.828125,11.96875,-8.359375
213,1696168064740,-0.09008789,-0.9507446,0.097595215,1.40625,-4.015625,1.359375
214,1696168064779,0.041992188,-0.77008057,0.032165527,-4.140625,-8.59375,9.84375
215,1696168064819,0.13110352,-0.673645,0.15301514,-21.9375,-6.0,4.953125
216,1696168064860,-0.11743164,-0.86260986,0.22869873,-1.046875,-16.375,-3.453125
217,1696168064900,-0.23803711,-0.96759033,0.2230835,2.84375,-13.65625,5.15625
218,1696168064939,-0.07836914,-0.67559814,0.24847412,-6.03125,-4.671875,7.359375
219,1696168064979,-0.036865234,-1.1209106,0.2609253,-3.109375,-14.484375,3.046875
220,1696168065020,0.012207031,-1.1697388,0.30047607,5.46875,-7.125,6.625
221,1696168065058,-0.18920898,-1.1524048,0.25457764,-13.53125,-0.578125,4.625
222,1696168065100,-0.07373047,-0.8320923,0.26898193,-4.390625,1.765625,1.703125
223,1696168065139,-0.05859375,-1.1096802,0.30975342,7.546875,-1.765625,3.1875
224,1696168065180,0.088378906,-1.0784302,0.27386475,-2.765625,-7.078125,-0.046875
225,1696168065219,0.052490234,-1.0767212,0.22601318,-6.734375,0.25,4.90625
226,1696168065259,0.19165039,-0.9644165,0.124938965,0.84375,1.703125,7.21875
227,1696168065301,0.25610352,-0.9890747,0.26385498,-0.484375,1.296875,4.265625
228,1696168065339,0.13769531,-1.1533813,0.29559326,4.609375,2.234375,4.671875
229,1696168065401,0.068603516,-1.1792603,0.22894287,-7.171875,0.15625,7.90625
230,1696168065405,0.14160156,-0.85235596,0.26312256,-15.96875,5.171875,1.234375
231,1696168065438,0.19384766,-0.90948486,0.2855835,7.75,-1.171875,3.75
232,1696168065482,0.14941406,-0.87286377,0.3053589,6.25,8.875,8.328125
233,1696168065519,0.11401367,-0.7329712,0.22357178,-5.421875,4.609375,5.640625
234,1696168065559,-0.036132812,-0.6502075,0.13494873,3.75,11.140625,-5.0625
235,1696168065599,-0.051513672,-0.7078247,0.26654053,0.625,14.421875,-8.109375
236,1696168065639,0.08642578,-0.9717407,0.4100952,-0.0625,11.015625,-14.8125
237,1696168065679,0.1328125,-1.0581665,0.2892456,3.875,19.328125,-13.296875
238,1696168065718,0.26293945,-0.8892212,0.2753296,-3.953125,15.46875,1.390625
239,1696168065761,0.30932617,-1.0518188,0.33319092,15.703125,11.484375,-8.390625
240,1696168065798,0.1496582,-1.1506958,0.4225464,-7.375,1.375,-11.265625
241,1696168065850,-0.0063476562,-0.9937134,0.28338623,-5.359375,2.546875,-4.546875
242,1696168065883,-0.050048828,-0.8154907,0.3480835,-2.375,10.5625,1.1875
243,1696168065919,0.19970703,-1.2127075,0.21942139,7.515625,-9.390625,-7.59375
244,1696168065960,0.140625,-1.3599243,0.066345215,12.046875,-1.140625,5.03125
245,1696168065999,0.41333008,-0.9397583,0.13006592,-17.921875,-15.53125,13.09375
246,1696168066039,-0.06933594,-0.6633911,0.29266357,-14.75,-7.875,-11.4375
247,1696168066079,-0.41210938,-1.3877563,-0.002746582,30.15625,6.90625,-11.859375
248,1696168066120,0.14892578,-1.2805786,-0.13531494,18.03125,-24.28125,29.140625
249,1696168066158,0.33935547,-0.960022,0.22943115,-47.390625,2.46875,-0.90625
250,1696168066198,0.02734375,-0.7192993,0.3908081,14.375,4.28125,-16.640625
251,1696168066239,-0.23779297,-1.354065,-0.047180176,21.015625,-6.71875,3.0625
252,1696168066279,-0.045410156,-0.99713135,-0.034240723,-6.78125,-13.671875,11.0
253,1696168066319,0.17578125,-0.77008057,0.15960693,-21.109375,6.96875,2.609375
254,1696168066359,0.10131836,-0.5640259,0.2946167,4.15625,0.546875,-5.234375
255,1696168066399,-0.06347656,-0.67755127,0.11102295,16.28125,-12.96875,0.046875
256,1696168066438,0.0014648438,-1.1101685,0.014343262,-14.640625,-23.1875,4.6875
257,1696168066479,-0.036865234,-0.8843384,0.3114624,-20.5625,-1.375,-1.59375
258,1696168066519,-0.25976562,-0.9182739,0.29315186,-4.359375,-4.3125,-5.0
259,1696168066561,-0.26538086,-1.1416626,0.3739624,-1.09375,-1.8125,0.6875
260,1696168066618,0.1821289,-1.2329712,0.14935303,-2.140625,-2.53125,7.6875
261,1696168066638,0.09277344,-0.833313,0.3012085,-25.265625,10.0625,-11.0
262,1696168066658,-0.068115234,-0.9578247,0.38519287,-8.453125,-3.71875,-2.140625
263,1696168066740,-0.024902344,-1.3911743,0.2345581,24.546875,-8.640625,7.96875
264,1696168066744,0.034179688,-1.211731,0.29437256,-29.9375,8.34375,-4.515625
265,1696168066779,0.27319336,-0.65338135,0.20062256,-4.21875,15.5,3.59375
266,1696168066818,0.3413086,-0.95880127,0.19647217,8.1875,-3.28125,4.796875
267,1696168066860,0.29125977,-1.2102661,0.28607178,15.21875,-4.765625,1.515625
268,1696168066898,0.12158203,-1.062561,0.34222412,-12.234375,1.15625,9.25
269,1696168066939,0.03955078,-0.9380493,0.15252686,-6.96875,1.03125,-2.5
270,1696168066980,0.18481445,-1.0752563,0.21014404,8.609375,-6.1875,0.328125
271,1696168067019,0.22509766,-0.925354,0.3908081,-4.5,3.046875,11.015625
272,1696168067058,0.21850586,-0.76397705,0.2140503,1.53125,-1.0,1.859375
273,1696168067099,-0.009277344,-0.6865845,0.14544678,2.75,9.53125,-6.65625
274,1696168067138,0.001953125,-0.6296997,0.215271,2.234375,1.875,0.453125
275,1696168067179,0.14135742,-0.7136841,0.34100342,-4.765625,-11.40625,-1.984375
276,1696168067219,0.0703125,-0.862854,0.35247803,6.765625,6.375,-9.359375
277,1696168067259,0.11450195,-1.1433716,0.29779053,9.640625,-1.828125,-8.53125
278,1696168067299,0.05883789,-1.1848755,0.41278076,-3.546875,2.046875,-12.203125
279,1696168067339,0.13208008,-0.9668579,0.38031006,-5.1875,2.015625,-3.25
280,1696168067379,0.15136719,-0.96881104,0.30975342,-7.265625,0.625,-7.21875
281,1696168067419,-0.007080078,-0.9639282,0.3788452,2.078125,7.078125,-7.359375
282,1696168067460,0.010498047,-0.9578247,0.2975464,-2.578125,0.296875,-1.953125
283,1696168067500,0.17675781,-0.95635986,0.199646,0.109375,-8.515625,3.96875
284,1696168067538,0.3017578,-1.3526001,0.20062256,11.046875,-15.671875,-0.046875
285,1696168067578,0.1015625,-1.1140747,0.24261475,-7.328125,-0.703125,-1.046875
286,1696168067619,-0.07324219,-0.9907837,0.24066162,-13.953125,-9.171875,-2.734375
287,1696168067659,-0.1784668,-0.8838501,0.14788818,13.578125,1.6875,-5.9375
288,1696168067699,-0.01586914,-1.1882935,0.16448975,1.84375,-6.859375,9.59375
289,1696168067739,0.15136719,-1.0628052,0.2267456,-1.96875,5.375,-4.75
290,1696168067779,0.021484375,-0.9776001,0.22161865,-4.3125,2.234375,-7.234375
291,1696168067838,-0.12792969,-0.97442627,0.2374878,18.0,10.8125,-0.828125
292,1696168067859,-0.06958008,-1.1616821,0.17425537,-6.390625,0.828125,1.15625
293,1696168067881,-0.0036621094,-0.96221924,0.20184326,3.09375,9.109375,1.140625
294,1696168067919,0.021972656,-0.80914307,0.20404053,-8.71875,12.828125,-0.90625
295,1696168067961,0.04272461,-0.6104126,0.18792725,-2.390625,1.03125,2.875
296,1696168068000,0.020996094,-0.6355591,0.23236084,2.515625,-8.59375,4.703125
297,1696168068038,-0.033447266,-0.99468994,0.1852417,-11.125,-21.21875,-0.890625
298,1696168068078,-0.092041016,-0.8538208,0.31854248,-21.4375,-10.25,-2.390625
299,1696168068122,-0.1899414,-0.85821533,0.23138428,10.375,-4.546875,9.015625
300,1696168068158,-0.06933594,-1.0667114,0.23968506,-1.859375,-2.578125,7.4375
301,1696168068198,0.036865234,-1.2417603,0.3390503,-9.1875,-0.6875,-2.421875
302,1696168068239,0.046142578,-0.95513916,0.3204956,-26.515625,-4.421875,4.125
303,1696168068279,-0.03466797,-0.84747314,0.34857178,5.21875,6.390625,5.609375
304,1696168068319,0.018554688,-1.2229614,0.25238037,17.703125,-9.59375,9.1875
305,1696168068358,0.21508789,-1.4026489,0.34002686,-9.71875,-13.34375,6.890625
306,1696168068398,0.21728516,-1.0274048,0.3217163,-0.578125,14.734375,4.0625
307,1696168068441,0.07519531,-0.96759033,0.17962646,7.1875,12.046875,4.34375
308,1696168068489,0.20263672,-0.9043579,0.23651123,1.609375,-3.3125,6.84375
309,1696168068519,0.37402344,-0.88360596,0.31072998,-2.203125,-14.75,5.46875
310,1696168068559,0.11694336,-1.083313,0.19769287,17.78125,-13.921875,3.234375
311,1696168068599,0.022216797,-1.1394653,0.29315186,-0.296875,1.515625,4.015625
312,1696168068639,0.11450195,-1.0217896,0.24749756,-15.34375,-6.234375,-3.0625
313,1696168068679,0.15283203,-0.77716064,0.22991943,5.03125,-0.734375,-1.625
314,1696168068719,0.10620117,-0.6934204,0.24505615,-0.546875,7.296875,3.984375
315,1696168068759,0.049560547,-0.63653564,0.3024292,0.921875,6.8125,-0.71875
316,1696168068799,0.096191406,-0.79644775,0.2814331,0.3125,-2.640625,-7.34375
317,1696168068839,0.018310547,-0.8401489,0.2531128,1.140625,9.734375,-10.515625
318,1696168068879,0.11035156,-0.76397705,0.21453857,-8.75,9.25,-7.625
319,1696168068919,0.020751953,-0.78448486,0.32904053,4.484375,16.8125,-14.859375
320,1696168068959,0.1027832,-0.9819946,0.31243896,19.921875,7.234375,-4.078125
321,1696168068998,0.27685547,-1.2561646,0.35736084,-11.796875,-4.890625,-7.46875
322,1696168069039,0.09765625,-1.0615845,0.36346436,-3.515625,8.78125,-10.171875
323,1696168069082,0.013916016,-0.98931885,0.3619995,-2.546875,8.703125,-2.0
324,1696168069099,0.06958008,-0.91534424,0.32269287,2.21875,1.53125,-5.421875
325,1696168069139,0.119628906,-1.0986938,0.32928467,8.515625,-2.765625,-1.078125
326,1696168069179,0.17480469,-1.2202759,0.17230225,1.375,-5.984375,15.328125
327,1696168069220,0.22875977,-1.3088989,0.1618042,4.140625,-4.375,-3.609375
328,1696168069259,-0.20629883,-0.95562744,0.26678467,-5.0625,16.578125,-3.765625
329,1696168069299,0.048828125,-0.99053955,0.23846436,-3.375,-1.40625,4.6875
330,1696168069339,0.20751953,-0.9067993,0.22113037,9.15625,-6.921875,5.125
331,1696168069382,0.17895508,-1.1270142,0.18988037,-2.3125,5.359375,-1.109375
332,1696168069419,0.057128906,-1.006897,0.17840576,2.234375,5.734375,-7.40625
333,1696168069459,-0.092285156,-1.0335083,0.18206787,3.0,-3.375,-5.328125
334,1696168069500,-0.09350586,-1.0144653,0.16888428,-1.8125,7.828125,-1.28125
335,1696168069539,0.016845703,-1.008606,0.20184326,-6.0625,9.21875,-2.96875
336,1696168069580,0.10498047,-0.9421997,0.22454834,0.3125,8.359375,-3.1875
337,1696168069620,0.06591797,-0.8496704,0.15911865,-9.171875,6.015625,-3.796875
338,1696168069659,0.029541016,-0.710022,0.17596436,-10.59375,0.453125,1.265625
339,1696168069699,0.011962891,-0.7444458,0.21209717,-6.921875,-8.84375,4.0
340,1696168069739,0.072753906,-0.8335571,0.31243896,-8.96875,-13.828125,-9.015625
341,1696168069779,-0.18017578,-0.8049927,0.29193115,-1.15625,-4.109375,-8.53125
342,1696168069820,-0.18847656,-0.90753174,0.15570068,-13.765625,-11.015625,-0.84375
343,1696168069857,-0.1628418,-0.78253174,0.26898193,1.40625,2.640625,3.265625
344,1696168069898,-0.045654297,-1.2075806,0.43621826,-12.28125,-2.609375,-2.0625
345,1696168069939,0.0056152344,-1.1758423,0.39349365,5.65625,0.078125,-5.5
346,1696168069978,-0.027832031,-0.9336548,0.34246826,-16.890625,5.390625,-3.09375
347,1696168070019,-0.07788086,-0.8916626,0.2880249,14.640625,10.203125,0.09375
348,1696168070058,-0.03881836,-1.30719,0.24212646,4.296875,-1.015625,2.359375
349,1696168070099,0.1628418,-1.0093384,0.27801514,9.484375,0.9375,9.6875
350,1696168070139,0.31762695,-1.1616821,0.36273193,-3.5,18.609375,5.703125
351,1696168070180,0.20922852,-1.0940552,0.18182373,8.078125,-1.171875,-6.0
352,1696168070219,0.03100586,-1.2402954,0.20184326,45.359375,0.578125,13.484375
353,1696168070260,0.1977539,-1.0796509,0.1408081,-7.96875,1.875,11.765625
354,1696168070299,0.080078125,-0.9307251,0.08465576,0.015625,-2.53125,1.484375
355,1696168070318,0.08984375,-0.85894775,0.12567139,8.9375,-1.90625,9.9375
356,1696168070359,0.12084961,-0.8242798,0.24603271,-1.78125,-4.6875,11.34375
357,1696168070399,0.09423828,-0.7769165,0.23626709,0.75,-8.609375,0.9375
358,1696168070440,0.079833984,-0.89263916,0.1515503,11.6875,-6.328125,-5.96875
359,1696168070480,-0.02319336,-0.8831177,0.19281006,-8.3125,7.765625,-5.953125
360,1696168070518,-0.0007324219,-0.6880493,0.29266357,-10.796875,7.40625,-8.796875
361,1696168070558,-0.0014648438,-0.6326294,0.20916748,-0.953125,10.8125,-12.328125
362,1696168070598,0.15966797,-0.92071533,0.21966553,11.640625,-0.4375,-9.09375
363,1696168070638,0.13842773,-1.1890259,0.30389404,9.140625,3.328125,-3.453125
364,1696168070679,0.19165039,-1.0767212,0.26483154,-16.40625,-3.96875,-3.21875
365,1696168070718,-0.0053710938,-0.9561157,0.2850952,-3.203125,-6.046875,-16.46875
366,1696168070762,-0.19995117,-0.8748169,0.3143921,12.921875,17.09375,3.84375
367,1696168070799,0.25268555,-1.0444946,0.29119873,-18.09375,-13.5625,-1.515625
368,1696168070838,0.18481445,-1.4407349,0.11663818,19.234375,-14.1875,1.671875
369,1696168070878,0.16308594,-1.385315,0.17376709,-2.0,-7.0625,5.25
370,1696168070919,-0.33789062,-0.9505005,0.24847412,-1.75,14.25,-12.078125
371,1696168070959,0.0073242188,-1.3206177,-0.062316895,-9.90625,-22.421875,11.21875
372,1696168071000,0.29492188,-0.90948486,0.117126465,15.875,1.3125,7.75
373,1696168071039,0.02319336,-0.97125244,0.24139404,-26.09375,4.828125,-10.9375
374,1696168071078,-0.087890625,-1.065979,0.029968262,-11.71875,-3.96875,0.40625
375,1696168071119,-0.0087890625,-0.864563,-0.030822754,13.359375,-10.765625,6.40625
376,1696168071159,-0.03930664,-0.8921509,0.124694824,-1.09375,9.53125,-3.015625
377,1696168071199,0.06640625,-0.9734497,0.1329956,-1.421875,-0.984375,1.4375
378,1696168071238,0.07080078,-1.0679321,0.17059326,6.46875,-4.015625,3.796875
379,1696168071279,-0.09375,-1.1314087,0.11859131,-11.5625,1.3125,-4.3125
380,1696168071319,-0.15722656,-0.91485596,0.08416748,3.640625,9.796875,-1.125
381,1696168071358,0.041992188,-1.0171509,0.11541748,2.75,-6.921875,11.015625
382,1696168071399,0.15917969,-0.9644165,0.11029053,-0.75,-8.640625,9.671875
383,1696168071439,-0.092285156,-0.88946533,0.09246826,-7.984375,-2.6875,2.84375
384,1696168071479,-0.09277344,-0.9348755,0.11834717,4.609375,-2.921875,12.625
385,1696168071519,0.17773438,-1.3174438,0.07513428,3.890625,-21.046875,11.828125
386,1696168071539,0.26391602,-0.9890747,0.30975342,-30.296875,-10.828125,-0.796875
387,1696168071578,0.16748047,-0.4915161,0.22943115,-5.65625,2.3125,10.5625
388,1696168071619,0.19580078,-0.73321533,0.15106201,47.671875,-12.046875,7.03125
389,1696168071661,0.07299805,-1.5100708,0.019958496,31.203125,-3.328125,-11.875
390,1696168071698,0.068359375,-1.1218872,-0.008361816,-30.40625,-10.125,8.75
391,1696168071739,0.2565918,-0.80426025,0.16741943,-3.390625,-6.0625,-0.625
392,1696168071779,0.1875,-0.9685669,0.2765503,1.59375,-4.5,-8.640625
393,1696168071819,0.029052734,-1.029602,0.12860107,14.859375,7.90625,2.859375
394,1696168071858,0.1381836,-0.8574829,0.11395264,-7.453125,-4.0,-2.046875
395,1696168071901,0.17114258,-1.0025024,0.10272217,3.109375,1.078125,-3.84375
396,1696168071938,0.1730957,-0.97076416,0.16815186,0.21875,1.0,0.296875
397,1696168071979,0.13256836,-0.9607544,0.14544678,-2.765625,-5.796875,-0.515625
398,1696168072020,0.09399414,-1.0530396,0.09857178,1.890625,-4.71875,-3.140625
399,1696168072059,0.0715332,-1.0686646,0.1239624,4.0,-0.4375,0.921875
400,1696168072099,0.111328125,-0.9414673,0.14227295,1.375,1.8125,3.125
401,1696168072139,0.123291016,-0.91485596,0.113708496,-1.859375,-1.984375,-0.046875
402,1696168072179,0.07519531,-0.9612427,0.11395264,4.0625,-2.765625,-1.03125
403,1696168072220,0.1015625,-1.0203247,0.12445068,2.640625,-6.90625,0.46875
404,1696168072259,0.1081543,-1.0115356,0.12664795,2.390625,-3.421875,-0.65625
405,1696168072299,0.07910156,-0.940979,0.093688965,0.296875,-1.921875,-0.703125
406,1696168072339,0.099365234,-1.0120239,0.121276855,3.125,-4.046875,-0.09375
407,1696168072379,0.09008789,-0.9976196,0.12762451,-0.078125,-2.359375,0.5
408,1696168072421,0.07373047,-0.9500122,0.10809326,0.375,-0.96875,0.0
409,1696168072459,0.10131836,-1.0249634,0.1293335,1.75,-4.265625,-0.421875
410,1696168072500,0.08105469,-0.99713135,0.10858154,-0.421875,0.15625,1.03125
411,1696168072539,0.08642578,-0.9558716,0.11053467,-0.265625,4.296875,-0.375
412,1696168072578,0.07763672,-1.022522,0.12615967,-1.09375,-1.171875,-0.40625
413,1696168072621,0.07006836,-0.99420166,0.13543701,-0.359375,3.296875,0.125
414,1696168072658,0.08154297,-0.9204712,0.085876465,-2.984375,2.25,-0.5
415,1696168072697,0.118896484,-0.9871216,0.12005615,2.34375,-1.046875,-0.734375
416,1696168072757,0.0715332,-1.0515747,0.12664795,0.09375,1.890625,0.1875
417,1696168072759,0.0769043,-0.95562744,0.06365967,-0.75,-0.125,0.265625
418,1696168072802,0.100097656,-0.9602661,0.11199951,0.390625,3.484375,-0.90625
419,1696168072837,0.047851562,-1.0056763,0.124694824,-0.375,2.78125,0.90625
420,1696168072878,0.07446289,-0.9627075,0.09442139,-0.65625,0.859375,0.4375
421,1696168072920,0.12597656,-0.9614868,0.1071167,-1.0625,4.21875,-0.125
422,1696168072959,0.12670898,-1.0169067,0.10858154,-3.84375,1.140625,-0.71875
423,1696168072999,0.05883789,-1.00177,0.1317749,0.4375,0.734375,0.9375
424,1696168073039,0.109375,-0.9475708,0.08734131,-1.65625,2.015625,0.25
425,1696168073080,0.09326172,-1.005188,0.13079834,-0.484375,1.953125,-0.21875
426,1696168073118,0.095214844,-1.0125122,0.11517334,-2.390625,-1.078125,0.421875
427,1696168073158,0.12036133,-0.9414673,0.11248779,-1.546875,0.375,0.0
428,1696168073198,0.09692383,-0.9837036,0.124694824,-1.515625,0.21875,0.390625
429,1696168073238,0.072265625,-0.9871216,0.11199951,0.359375,-2.296875,0.6875
430,1696168073278,0.114990234,-0.95318604,0.12371826,-1.078125,-0.03125,0.265625
431,1696168073319,0.07373047,-1.003479,0.14056396,-4.40625,-0.65625,-0.203125
432,1696168073358,0.029296875,-0.95928955,0.1359253,-5.125,-4.578125,1.015625
433,1696168073400,0.115722656,-0.9937134,0.117370605,-0.078125,-5.375,1.140625
434,1696168073439,0.088134766,-1.024231,0.18597412,-8.125,1.171875,-0.796875
435,1696168073479,-0.024414062,-0.9644165,0.17596436,-3.609375,3.578125,2.421875
436,1696168073520,0.06762695,-0.92437744,0.09222412,-2.078125,1.984375,2.234375
437,1696168073559,0.08618164,-0.99298096,0.15374756,-4.1875,-0.09375,1.46875
438,1696168073600,0.009765625,-1.0344849,0.19354248,-5.125,2.5,0.640625
439,1696168073639,0.011230469,-0.9898071,0.13665771,-5.640625,4.234375,1.921875
440,1696168073678,0.0625,-0.9644165,0.117370605,-2.046875,9.90625,2.828125
441,1696168073718,0.16333008,-0.9841919,0.14324951,-6.671875,8.859375,5.453125
442,1696168073757,0.22070312,-0.97857666,0.23138428,-3.546875,0.109375,2.390625
443,1696168073798,0.16137695,-1.062561,0.19378662,-5.140625,-1.96875,5.0625
444,1696168073839,0.21728516,-0.97784424,0.32244873,-14.609375,0.421875,3.609375
445,1696168073877,0.072021484,-1.0640259,0.39178467,-13.359375,4.75,-3.609375
446,1696168073917,-0.061767578,-0.9780884,0.2399292,4.578125,11.703125,3.234375
447,1696168073978,0.099609375,-0.94122314,0.16619873,-6.671875,7.203125,9.484375
448,1696168073998,0.26171875,-0.7637329,0.39300537,-21.5625,10.125,-2.609375
449,1696168074019,0.20605469,-0.8123169,0.39031982,12.171875,5.234375,-1.953125
450,1696168074098,0.08935547,-0.9561157,0.3065796,2.46875,5.71875,-1.03125
451,1696168074106,0.040527344,-0.9741821,0.277771,-0.265625,4.765625,-5.71875
452,1696168074138,0.07861328,-0.8584595,0.33026123,1.4375,9.328125,-6.34375
453,1696168074179,0.06225586,-0.8569946,0.34539795,3.046875,12.71875,-10.09375
454,1696168074218,0.09106445,-0.9414673,0.32489014,13.015625,8.578125,-7.546875
455,1696168074260,0.15185547,-1.0459595,0.30584717,-0.453125,4.359375,-3.46875
456,1696168074302,0.07495117,-0.89556885,0.36566162,-4.03125,8.28125,-10.265625
457,1696168074339,0.038085938,-1.0718384,0.30511475,14.15625,3.9375,-4.359375
458,1696168074378,0.19238281,-1.2874146,0.20037842,3.71875,-9.96875,1.125
459,1696168074419,0.23657227,-1.1865845,0.097595215,-7.65625,-8.5625,7.140625
460,1696168074459,0.24584961,-1.0303345,0.19696045,19.359375,14.625,-3.515625
461,1696168074499,0.013671875,-0.84747314,0.2062378,-22.390625,10.09375,-13.390625
462,1696168074539,0.03125,-0.8081665,-0.1272583,9.921875,8.203125,-5.15625
463,1696168074579,0.24267578,-1.06427,-0.14752197,16.71875,-4.265625,-1.609375
464,1696168074620,0.27392578,-1.2156372,0.06536865,0.671875,2.625,-6.40625
465,1696168074660,0.12207031,-0.98687744,0.23626709,-18.828125,-13.453125,-8.984375
466,1696168074699,-0.06567383,-0.9378052,0.109802246,0.8125,-0.0625,-5.125
467,1696168074738,-0.05908203,-0.9038696,0.011169434,3.4375,1.21875,-1.875
468,1696168074780,0.11401367,-0.87506104,0.08758545,-7.578125,-10.1875,-0.53125
469,1696168074819,0.1262207,-0.8916626,0.12567139,0.859375,-9.859375,-0.125
470,1696168074861,0.005859375,-0.99176025,0.10345459,2.59375,-12.609375,3.3125
471,1696168074900,-0.053466797,-1.0137329,0.11932373,-7.515625,-15.5,1.5
472,1696168074939,-0.036621094,-0.99468994,0.25360107,-4.375,-9.71875,2.203125
473,1696168074979,-0.025634766,-0.95977783,0.215271,-4.625,-11.4375,3.171875
474,1696168075020,-0.045898438,-0.8858032,0.17181396,-2.421875,-10.46875,5.390625
475,1696168075059,-0.03857422,-1.0278931,0.20404053,4.875,-6.828125,5.96875
476,1696168075099,-0.029541016,-0.99224854,0.2177124,-15.0625,-11.90625,3.265625
477,1696168075139,-0.080078125,-0.8867798,0.20794678,-7.125,-7.296875,5.15625
478,1696168075201,0.0107421875,-0.97369385,0.25335693,-4.875,-14.21875,4.359375
479,1696168075218,0.020751953,-1.0244751,0.19354248,1.5625,-7.53125,6.984375
480,1696168075238,0.2902832,-1.1243286,0.11517334,8.40625,-16.0,8.71875
481,1696168075279,0.111083984,-1.1306763,0.21746826,7.609375,3.234375,-0.78125
482,1696168075320,0.107421875,-1.079895,0.10003662,4.65625,-3.28125,3.859375
483,1696168075358,0.2578125,-0.97735596,0.109069824,-2.4375,-13.046875,4.96875
484,1696168075399,0.2211914,-0.85040283,0.24627686,-3.609375,10.171875,-0.203125
485,1696168075444,0.17089844,-0.9649048,0.13641357,12.3125,4.25,4.59375
486,1696168075478,0.2331543,-0.96051025,-0.012268066,-2.265625,-5.5625,9.59375
487,1696168075519,0.36376953,-0.8255005,0.14349365,-7.015625,10.40625,5.34375
488,1696168075557,0.36035156,-0.99786377,0.24700928,8.375,-7.046875,3.1875
489,1696168075598,0.18408203,-1.1765747,0.13690186,-6.328125,-1.046875,-2.703125
490,1696168075640,0.091308594,-0.85943604,0.08685303,-6.71875,7.25,3.828125
491,1696168075679,0.19116211,-0.8850708,0.061950684,4.71875,5.390625,4.4375
492,1696168075721,0.25830078,-0.90216064,0.17791748,-0.265625,10.0625,-2.046875
493,1696168075759,0.26611328,-0.94854736,0.16888428,-6.0625,1.375,2.671875
494,1696168075798,0.25219727,-0.8428345,0.11517334,-1.40625,3.546875,2.125
495,1696168075838,0.16186523,-0.94195557,0.14764404,2.984375,11.0,-0.734375
496,1696168075880,0.19580078,-1.0112915,0.13128662,1.3125,6.78125,1.53125
497,1696168075918,0.28051758,-1.0134888,0.1942749,-6.21875,4.03125,-0.734375
498,1696168075958,0.3100586,-0.98760986,0.21917725,-12.140625,-0.265625,-3.21875
499,1696168075999,0.17626953,-0.9439087,0.17181396,4.796875,-1.390625,-0.0625
500,1696168076042,0.11279297,-1.0132446,0.18548584,-2.890625,-0.046875,2.609375
501,1696168076079,0.17529297,-0.96710205,0.20452881,-2.265625,0.875,3.453125
502,1696168076119,0.20019531,-0.9446411,0.18157959,-5.03125,1.484375,1.15625
503,1696168076160,0.24853516,-0.9475708,0.22503662,-8.5,1.15625,1.421875
504,1696168076198,0.16845703,-0.91412354,0.23699951,-3.484375,-1.265625,1.359375
505,1696168076239,0.18579102,-0.9368286,0.20794678,-0.140625,1.390625,0.859375
506,1696168076279,0.16723633,-0.9182739,0.16082764,2.546875,1.921875,-0.578125
507,1696168076319,0.14648438,-0.95025635,0.19866943,-1.171875,2.84375,2.3125
508,1696168076358,0.26000977,-0.9673462,0.24334717,-2.15625,-2.6875,-0.65625
509,1696168076403,0.21264648,-0.98272705,0.2387085,3.546875,3.0625,-1.265625
510,1696168076438,0.20776367,-1.0078735,0.20819092,0.125,-1.34375,-0.578125
511,1696168076459,0.16479492,-0.92388916,0.19866943,-0.734375,2.65625,0.578125
512,1696168076499,0.18139648,-0.9180298,0.20037842,4.375,1.203125,1.4375
513,1696168076539,0.23120117,-0.98883057,0.22772217,2.28125,-2.828125,-0.25
514,1696168076578,0.17871094,-0.95318604,0.19769287,-0.140625,3.515625,1.609375
515,1696168076618,0.1953125,-0.9085083,0.15374756,1.828125,-0.515625,1.484375
516,1696168076658,0.19140625,-0.9627075,0.19012451,5.390625,3.1875,2.015625
517,1696168076697,0.20605469,-0.95977783,0.1942749,3.796875,3.453125,3.53125
518,1696168076738,0.20043945,-0.9414673,0.19671631,2.890625,3.375,1.984375
519,1696168076779,0.16503906,-0.9873657,0.16033936,1.421875,3.390625,0.53125
520,1696168076819,0.2043457,-0.98638916,0.18450928,1.328125,1.578125,0.84375
521,1696168076858,0.25732422,-0.9902954,0.21624756,-0.984375,1.5625,-0.65625
522,1696168076900,0.2199707,-0.98321533,0.18890381,-3.6875,2.71875,-1.171875
523,1696168076938,0.17944336,-0.93292236,0.16131592,-4.140625,0.234375,-2.234375
524,1696168076982,0.17749023,-0.9690552,0.1708374,-1.078125,2.453125,-2.3125
525,1696168077018,0.2854004,-0.91656494,0.17449951,-4.953125,1.734375,-0.703125
526,1696168077057,0.2680664,-0.9470825,0.18328857,-8.203125,0.703125,-2.015625
527,1696168077102,0.15209961,-0.8960571,0.19476318,1.171875,4.78125,0.484375
528,1696168077139,0.20776367,-1.0217896,0.16986084,-1.9375,-8.703125,0.609375
529,1696168077179,0.21850586,-0.93048096,0.27874756,-2.140625,-2.40625,-2.0
530,1696168077221,0.20214844,-0.9055786,0.17425537,10.703125,-1.1875,4.4375
531,1696168077259,0.2614746,-0.98931885,0.13934326,-2.78125,-10.21875,1.09375
532,1696168077298,0.12231445,-0.90753174,0.25164795,0.234375,5.265625,-1.328125
533,1696168077338,0.07397461,-0.8843384,0.18377686,3.75,4.09375,3.984375
534,1696168077378,0.1459961,-0.8272095,0.19525146,-14.859375,1.515625,-6.28125
535,1696168077418,0.12231445,-0.7744751,0.26507568,-8.375,4.078125,-7.75
536,1696168077459,0.051757812,-0.73687744,0.28045654,-5.1875,8.5625,-1.265625
537,1696168077498,0.068603516,-0.73223877,0.22332764,-12.046875,4.609375,-7.078125
538,1696168077539,0.084228516,-0.9475708,0.22210693,-8.84375,10.53125,-25.265625
539,1696168077579,0.1340332,-0.82354736,0.39422607,-12.71875,11.984375,-7.125
540,1696168077619,0.22021484,-0.9343872,0.39935303,-19.125,5.0,-14.984375
541,1696168077659,0.087646484,-1.0056763,0.36566162,7.8125,12.265625,-20.65625
542,1696168077679,0.2619629,-1.1104126,0.34735107,-2.28125,-3.8125,2.078125
543,1696168077719,0.14868164,-0.8550415,0.42547607,-14.296875,3.859375,-9.59375
544,1696168077759,0.15649414,-1.196106,0.26483154,31.984375,-11.015625,-2.421875
545,1696168077799,0.22045898,-1.2581177,0.22991943,-12.375,-22.0,12.234375
546,1696168077839,0.048095703,-1.388977,0.12664795,-5.71875,-1.90625,-9.65625
547,1696168077878,-0.068359375,-1.0178833,0.3126831,10.921875,7.375,6.71875
548,1696168077920,0.36938477,-1.0769653,0.46820068,-23.421875,-20.9375,-4.3125
549,1696168077959,0.050048828,-0.7949829,0.17132568,24.9375,-4.15625,-0.546875
550,1696168077999,-0.009033203,-1.0462036,-0.0017700195,12.25,0.5,7.546875
551,1696168078039,0.03540039,-0.87286377,0.03704834,-0.1875,0.8125,0.1875
552,1696168078080,0.10083008,-0.88116455,0.13226318,10.25,7.21875,-4.8125
553,1696168078119,0.18969727,-1.0322876,0.13275146,7.984375,4.28125,-4.484375
554,1696168078160,0.052978516,-1.2581177,0.012878418,4.234375,-3.796875,-2.65625
555,1696168078200,-0.0036621094,-0.9380493,0.24798584,-6.09375,6.234375,-1.140625
556,1696168078239,-0.09057617,-0.8845825,0.20599365,10.640625,24.859375,-6.125
557,1696168078279,-0.0061035156,-1.0003052,0.018981934,3.921875,5.765625,-0.796875
558,1696168078319,0.22509766,-0.82598877,0.1329956,-10.34375,2.9375,2.375
559,1696168078358,0.13989258,-0.7710571,0.19671631,-6.8125,8.078125,0.421875
560,1696168078399,0.07739258,-0.8904419,0.21160889,-13.34375,-10.0625,-0.859375
561,1696168078440,-0.064453125,-0.86138916,0.16864014,-12.65625,-11.109375,-5.921875
562,1696168078479,0.028320312,-0.8569946,0.2033081,-24.484375,-14.953125,0.28125
563,1696168078519,-0.079833984,-0.75738525,0.3283081,-5.90625,-13.78125,0.484375
564,1696168078559,-0.08496094,-1.0630493,0.2970581,10.34375,-6.609375,4.4375
565,1696168078598,-0.048583984,-1.1687622,0.18377686,-12.5,-14.328125,3.75
566,1696168078639,-0.040527344,-1.0025024,0.3493042,-14.25,-3.25,-1.96875
567,1696168078679,-0.08911133,-0.9692993,0.32025146,1.34375,3.53125,-1.828125
568,1696168078718,-0.0390625,-0.9981079,0.2555542,-0.71875,-7.515625,-3.4375
569,1696168078759,0.10839844,-1.2610474,0.22503662,2.421875,-9.59375,-0.609375
570,1696168078802,0.30004883,-1.3093872,0.3649292,4.921875,0.109375,2.953125
571,1696168078838,0.040283203,-1.0994263,0.2921753,-15.578125,20.140625,-4.546875
572,1696168078880,-0.017578125,-0.87091064,0.13690186,-11.8125,13.484375,-1.6875
573,1696168078899,0.24316406,-0.8381958,0.27069092,-1.40625,-0.015625,1.78125
574,1696168078939,0.28149414,-0.94659424,0.38104248,14.875,8.6875,8.0
575,1696168078979,0.2043457,-0.99713135,0.19866943,-8.65625,-4.1875,4.28125
576,1696168079020,0.048095703,-1.0713501,0.28118896,7.03125,-0.640625,-2.171875
577,1696168079059,0.07714844,-1.0054321,0.38372803,12.140625,7.3125,4.34375
578,1696168079099,0.21484375,-0.9378052,0.21990967,-3.765625,2.78125,1.6875
579,1696168079138,0.15820312,-0.8220825,0.18572998,-5.921875,5.1875,-2.6875
580,1696168079179,0.060791016,-0.6543579,0.2868042,4.328125,20.546875,6.25
581,1696168079219,0.0871582,-0.6704712,0.25164795,7.578125,1.171875,4.0625
582,1696168079259,0.15332031,-1.029602,0.22943115,5.65625,-8.78125,-10.703125
583,1696168079298,0.04272461,-0.89727783,0.29315186,-2.609375,23.625,-9.640625
584,1696168079338,0.026611328,-0.6448364,0.22381592,-6.328125,15.421875,-7.0625
585,1696168079379,-0.041503906,-0.77593994,0.23846436,12.671875,15.6875,-12.515625
586,1696168079419,0.2043457,-1.1069946,0.26409912,9.71875,5.671875,-6.3125
587,1696168079459,0.27807617,-1.0889282,0.48431396,-10.296875,3.96875,-5.171875
588,1696168079498,0.08129883,-1.194397,0.3258667,-14.84375,0.34375,-16.796875
589,1696168079538,-0.13427734,-0.7620239,0.25701904,8.4375,12.46875,-6.140625
590,1696168079579,0.07495117,-1.1116333,0.26849365,13.5625,1.578125,5.53125
591,1696168079619,0.3269043,-1.3245239,0.37127686,-9.1875,-15.234375,-3.4375
592,1696168079658,0.0024414062,-1.1814575,0.19720459,2.59375,7.546875,-5.40625
593,1696168079699,-0.114990234,-1.1897583,0.06756592,9.34375,3.21875,-0.234375
594,1696168079738,0.22827148,-1.2034302,0.19500732,-17.265625,-19.953125,0.4375
595,1696168079779,-0.015136719,-0.71466064,0.4335327,-11.734375,10.9375,-18.140625
596,1696168079819,-0.2097168,-1.1838989,0.020202637,24.21875,-2.03125,-3.859375
597,1696168079860,0.005126953,-1.02594,0.03265381,-10.0,-7.125,5.828125
598,1696168079899,0.09033203,-0.8442993,0.27801514,-10.140625,14.6875,-3.46875
599,1696168079939,-0.00048828125,-0.9612427,0.28411865,2.375,12.3125,-8.09375
600,1696168079979,0.07080078,-1.1543579,0.10687256,1.140625,-6.15625,0.984375
601,1696168080019,0.057373047,-0.86383057,0.19989014,-4.296875,1.171875,1.671875
602,1696168080058,-0.01977539,-0.9038696,0.26971436,-1.171875,4.546875,-0.328125
603,1696168080119,-0.099853516,-0.9624634,0.22210693,1.25,0.828125,-1.0625
604,1696168080123,-0.052734375,-0.8340454,0.19476318,0.515625,0.609375,4.078125
605,1696168080158,0.06640625,-0.7805786,0.17767334,-4.671875,-3.609375,9.21875
606,1696168080200,0.016845703,-0.84039307,0.260437,-13.03125,-7.5,2.5625
607,1696168080238,-0.05444336,-0.7744751,0.28216553,-5.875,-9.484375,2.9375
608,1696168080281,-0.12719727,-0.6980591,0.29974365,5.078125,-8.09375,5.96875
609,1696168080321,-0.100097656,-1.1052856,0.26922607,-10.390625,-15.390625,8.296875
610,1696168080361,-0.056640625,-1.0278931,0.30828857,-3.9375,-4.171875,5.234375
611,1696168080398,0.0061035156,-0.82281494,0.2987671,2.8125,-3.328125,5.5625
612,1696168080439,0.0087890625,-0.9417114,0.42913818,-0.15625,-0.671875,7.96875
613,1696168080481,-0.1616211,-1.1980591,0.22650146,5.109375,-2.453125,2.78125
614,1696168080519,-0.080322266,-1.0432739,0.2423706,6.234375,-4.546875,5.40625
615,1696168080559,0.12866211,-1.2649536,0.27581787,4.96875,1.265625,8.5625
616,1696168080600,0.24023438,-1.2417603,0.45916748,5.859375,11.75,-0.359375
617,1696168080638,0.19921875,-1.0679321,0.19036865,1.640625,4.203125,1.46875
618,1696168080680,0.18139648,-1.2310181,0.10003662,-0.828125,-6.796875,6.03125
619,1696168080719,0.2644043,-0.99053955,0.28363037,0.46875,16.40625,5.640625
620,1696168080758,0.022216797,-0.9031372,0.18621826,-1.09375,8.234375,1.546875
621,1696168080800,0.12548828,-1.0618286,0.13006592,6.15625,-7.5625,2.984375
622,1696168080838,0.26879883,-1.0691528,0.3180542,-9.9375,-1.78125,4.90625
623,1696168080879,0.140625,-0.911438,0.28240967,-4.046875,7.875,0.625
624,1696168080919,0.07495117,-0.81378174,0.12542725,0.140625,6.953125,3.546875
625,1696168080959,0.12158203,-0.8220825,0.17156982,6.1875,1.84375,2.125
626,1696168080998,0.17626953,-0.8569946,0.32440186,1.515625,1.78125,0.09375
627,1696168081039,0.119140625,-0.9055786,0.3378296,-4.796875,1.859375,-7.21875
628,1696168081079,0.05859375,-0.866272,0.24969482,-8.890625,7.375,-11.890625
629,1696168081119,0.044921875,-0.7251587,0.24041748,-3.734375,12.890625,-11.65625
630,1696168081159,0.043945312,-0.81134033,0.20892334,4.28125,7.15625,-9.125
631,1696168081198,0.060546875,-0.73394775,0.32196045,2.625,17.96875,-0.921875
632,1696168081239,0.22802734,-1.0464478,0.2411499,2.671875,-11.34375,-7.0625
633,1696168081280,0.036132812,-0.85235596,0.36102295,-14.328125,10.6875,-11.828125
634,1696168081339,0.11767578,-1.0359497,0.36029053,9.140625,8.40625,-0.015625
635,1696168081358,0.15014648,-0.93756104,0.37542725,-12.96875,-3.1875,-12.875
636,1696168081379,0.19946289,-1.0064087,0.40740967,17.90625,0.25,-0.09375
637,1696168081459,0.05908203,-1.0855103,0.3378296,-5.34375,-1.984375,-4.078125
638,1696168081465,-0.15039062,-1.0498657,0.27069092,11.28125,-1.296875,-1.953125
639,1696168081498,0.24682617,-1.4995728,0.13763428,14.265625,-22.765625,4.6875
640,1696168081538,0.1586914,-1.1672974,0.14471436,-13.015625,4.453125,3.890625
641,1696168081579,0.038085938,-0.78619385,0.3456421,-9.21875,11.421875,-12.546875
642,1696168081619,-0.12133789,-1.0435181,0.028015137,26.71875,-5.328125,-7.03125
643,1696168081658,0.111572266,-1.2390747,-0.013977051,6.390625,-26.03125,13.390625
644,1696168081699,0.10449219,-0.86553955,0.13519287,-6.765625,11.53125,-6.0625
645,1696168081742,-0.104003906,-0.89190674,0.22259521,5.609375,5.40625,-11.578125
646,1696168081780,-0.103515625,-1.0171509,0.121520996,8.3125,-9.96875,0.984375
647,1696168081820,0.014160156,-1.079895,0.011413574,6.921875,7.578125,0.15625
648,1696168081859,0.03564453,-1.0274048,0.15789795,-4.296875,8.28125,-3.390625
649,1696168081901,0.049316406,-1.0054321,0.13665771,-2.28125,1.71875,-0.25
650,1696168081941,0.009033203,-0.9483032,0.13128662,-1.15625,2.390625,0.90625
651,1696168081983,-0.012451172,-0.8406372,0.13568115,-11.1875,1.53125,0.75
652,1696168082020,0.044189453,-0.82598877,0.113464355,-4.140625,-9.71875,4.546875
653,1696168082060,0.072753906,-0.8069458,0.25506592,-20.640625,-10.109375,-2.890625
654,1696168082101,-0.16772461,-0.95098877,0.20452881,-11.0,-10.015625,-3.15625
655,1696168082141,-0.12939453,-0.83477783,0.12786865,-22.34375,-17.03125,10.71875
656,1696168082183,0.057128906,-0.47369385,0.21844482,3.625,-9.625,12.703125
657,1696168082225,-0.06591797,-0.97735596,0.37176514,2.671875,-0.703125,2.671875
658,1696168082261,-0.24169922,-1.4436646,0.33685303,6.203125,-5.5625,1.734375
659,1696168082302,0.099609375,-0.9048462,0.20452881,-36.65625,-16.75,14.265625
660,1696168082342,0.02319336,-0.89801025,0.3842163,-1.71875,8.0625,2.171875
661,1696168082382,-0.12866211,-0.9829712,0.45477295,12.734375,8.0,2.0
662,1696168082421,-0.045410156,-1.3911743,0.13348389,7.6875,-22.875,12.890625
663,1696168082462,0.3881836,-1.1089478,0.26507568,-10.53125,-8.734375,16.015625
664,1696168082501,0.30737305,-1.08844,0.40594482,-7.84375,17.40625,0.28125
665,1696168082561,0.020507812,-0.8184204,0.2008667,2.25,-1.953125,1.078125
666,1696168082579,0.15600586,-1.0379028,0.230896,-3.4375,-8.015625,11.796875
667,1696168082601,0.29956055,-1.2695923,0.46795654,17.953125,3.765625,8.640625
668,1696168082639,0.22363281,-1.2070923,0.2880249,-12.796875,4.90625,-3.984375
669,1696168082681,0.1887207,-0.8726196,0.19647217,-15.421875,-1.265625,-5.96875
670,1696168082720,0.09082031,-0.7061157,0.31195068,7.984375,-1.09375,8.421875
671,1696168082761,0.1628418,-0.80059814,0.34295654,14.734375,-3.46875,12.3125
672,1696168082802,0.23950195,-0.94854736,0.26116943,-6.40625,-4.640625,-2.9375
673,1696168082842,0.14086914,-0.80548096,0.24725342,-12.171875,5.953125,-8.71875
674,1696168082881,0.047607422,-0.6091919,0.32269287,-7.0,10.15625,-5.328125
675,1696168082926,0.048583984,-0.6773071,0.2531128,15.46875,5.25,-3.90625
676,1696168082960,0.10522461,-0.94000244,0.28094482,3.8125,12.515625,-13.578125
677,1696168083002,0.15795898,-0.9151001,0.31195068,8.578125,11.96875,-6.34375
678,1696168083041,0.091308594,-0.802063,0.27752686,-4.96875,11.359375,-11.890625
679,1696168083081,0.06933594,-0.9378052,0.23699951,22.1875,15.4375,-7.046875
680,1696168083124,0.17358398,-1.0901489,0.3834839,3.171875,12.90625,-4.296875
681,1696168083160,0.12988281,-1.017395,0.3192749,7.140625,16.609375,-5.40625
682,1696168083202,0.15356445,-1.0479126,0.27679443,-6.453125,14.09375,-10.03125
683,1696168083242,0.08544922,-0.92559814,0.41082764,-3.359375,17.765625,-7.09375
684,1696168083281,0.111083984,-1.0588989,0.3295288,5.9375,3.796875,-5.75
685,1696168083321,-0.0073242188,-1.1548462,0.18572998,1.609375,8.015625,2.421875
686,1696168083366,0.32788086,-1.3496704,0.13861084,5.953125,6.828125,1.5625
687,1696168083400,0.0793457,-0.92144775,0.27630615,-14.28125,8.734375,-5.109375
688,1696168083442,-0.029541016,-1.2620239,0.070739746,1.265625,5.3125,2.765625
689,1696168083481,0.3203125,-0.9741821,0.082458496,3.8125,-8.390625,11.953125
690,1696168083521,0.103515625,-0.9505005,0.21551514,-11.84375,9.765625,-6.328125
691,1696168083564,-0.08105469,-0.9282837,0.25115967,-1.9375,11.5625,-14.25
692,1696168083606,0.032226562,-1.0916138,0.007019043,2.171875,-11.328125,4.375
693,1696168083641,0.14794922,-1.0176392,0.09173584,2.3125,-11.3125,2.203125
694,1696168083681,0.04711914,-0.98394775,0.29974365,-8.9375,5.265625,-10.015625
695,1696168083720,-0.0793457,-0.9434204,0.2074585,1.890625,-2.0625,-1.265625
696,1696168083760,0.012207031,-0.9380493,0.07684326,2.9375,-9.5,3.25
697,1696168083803,0.076416016,-0.89923096,0.11981201,-6.390625,-2.78125,0.03125
698,1696168083821,0.049804688,-0.9092407,0.2477417,-5.84375,-7.75,1.515625
699,1696168083859,0.07348633,-0.7937622,0.25506592,-11.5625,-15.796875,1.703125
700,1696168083901,-0.03955078,-0.74835205,0.17059326,-8.0,-10.6875,-0.46875
701,1696168083943,-0.07421875,-0.8508911,0.20135498,-27.078125,-20.234375,0.59375
702,1696168083979,-0.09008789,-0.70098877,0.28778076,12.078125,-13.5,6.84375
703,1696168084023,-0.19116211,-1.0361938,0.28900146,0.484375,3.90625,-0.765625
704,1696168084061,-0.080322266,-1.3494263,0.32269287,-22.21875,-12.609375,-0.34375
705,1696168084103,0.20288086,-1.003479,0.28900146,-20.390625,-14.375,7.703125
706,1696168084141,0.111816406,-0.8596802,0.46502686,0.8125,2.375,-1.515625
707,1696168084180,-0.21264648,-0.81134033,0.5663452,-5.484375,1.015625,-5.90625
708,1696168084222,-0.123291016,-0.98223877,0.19989014,27.75,-27.640625,13.765625
709,1696168084261,0.31274414,-1.2781372,0.19207764,0.015625,-23.546875,15.640625
710,1696168084299,0.2355957,-1.385315,0.54022217,-3.296875,10.015625,-6.890625
711,1696168084340,0.04736328,-0.9092407,0.20037842,3.109375,6.40625,0.75
712,1696168084381,0.08300781,-0.8977661,0.16790771,-1.265625,-3.34375,11.296875
713,1696168084421,0.17749023,-0.81744385,0.2164917,-9.875,4.03125,2.09375
714,1696168084463,0.1550293,-0.89508057,0.2929077,19.234375,-9.34375,5.78125
715,1696168084502,0.19848633,-1.2910767,0.4977417,12.140625,-9.953125,12.734375
716,1696168084541,0.064697266,-1.1660767,0.31243896,-13.984375,6.84375,-4.125
717,1696168084591,0.13012695,-0.8052368,0.17889404,-4.359375,0.96875,-5.609375
718,1696168084622,0.20703125,-0.7600708,0.2609253,-7.515625,-2.28125,-0.265625
719,1696168084661,0.08325195,-0.7546997,0.3619995,12.171875,-7.078125,-0.4375
720,1696168084700,-0.001953125,-0.92803955,0.3414917,8.25,-0.59375,-0.09375
721,1696168084740,-0.044189453,-0.8670044,0.15301514,-12.53125,5.296875,-7.53125
722,1696168084781,-0.026367188,-0.5918579,0.31536865,-6.640625,15.640625,-10.984375
723,1696168084819,0.203125,-0.9710083,0.31878662,13.484375,1.03125,-10.578125
724,1696168084860,0.1274414,-1.081604,0.3986206,7.3125,5.53125,-5.0625
725,1696168084902,0.0847168,-0.8892212,0.24847412,-5.40625,18.0625,1.25
726,1696168084941,0.038085938,-0.72125244,0.2074585,-4.265625,14.0625,-9.328125
727,1696168084985,0.061279297,-1.0545044,0.25653076,14.21875,8.390625,-7.859375
728,1696168085020,0.12646484,-1.0484009,0.47503662,-0.609375,9.125,2.40625
729,1696168085042,0.19848633,-0.96417236,0.42132568,-9.6875,13.28125,-6.5625
730,1696168085080,0.107177734,-0.94317627,0.32440186,-0.34375,7.75,-9.09375
731,1696168085122,0.05834961,-0.9668579,0.3283081,2.890625,4.671875,-0.71875
732,1696168085163,-0.014404297,-1.0286255,0.34539795,8.375,2.328125,-0.453125
733,1696168085202,0.14013672,-1.4190063,0.13006592,5.125,-14.078125,3.921875
734,1696168085242,0.23144531,-1.1514282,0.20111084,-18.5625,5.390625,3.046875
735,1696168085282,-0.13574219,-0.8904419,0.44744873,-1.109375,16.671875,-9.453125
736,1696168085322,0.015380859,-1.2805786,0.2538452,-0.265625,-20.28125,1.28125
737,1696168085362,0.14086914,-0.86260986,0.24676514,-1.171875,-3.53125,5.0625
738,1696168085401,-0.021240234,-0.84869385,0.22698975,-6.078125,9.625,-6.640625
739,1696168085439,-0.10961914,-0.96832275,0.093933105,14.1875,10.65625,-1.140625
740,1696168085482,0.08300781,-0.95758057,0.08343506,9.921875,-5.84375,3.109375
741,1696168085524,0.1772461,-0.95684814,0.2255249,-3.625,-1.140625,-4.71875
742,1696168085562,0.06518555,-1.0283813,0.30950928,-6.03125,-3.984375,-7.5625
743,1696168085601,-0.17993164,-0.93927,0.24822998,4.09375,-1.21875,0.28125
744,1696168085641,-0.21899414,-0.9768677,0.13519287,6.296875,4.296875,2.1875
745,1696168085681,0.033447266,-1.0523071,0.14569092,8.5,8.453125,-1.109375
746,1696168085722,0.107421875,-0.93048096,0.27972412,-8.765625,4.140625,-1.203125
747,1696168085761,0.0847168,-0.78204346,0.21942139,-7.0625,2.828125,1.953125
748,1696168085799,-0.0075683594,-0.6878052,0.20672607,-11.640625,-3.296875,0.46875
749,1696168085841,-0.14770508,-0.69073486,0.18621826,0.296875,-1.09375,1.78125
750,1696168085880,-0.036621094,-0.8208618,0.28704834,-8.6875,-10.078125,5.546875
751,1696168085923,-0.12011719,-0.9475708,0.35321045,0.078125,-6.296875,4.0
752,1696168085960,-0.084472656,-1.222229,0.28411865,-14.78125,0.890625,0.3125
753,1696168086005,0.06591797,-1.0454712,0.2555542,-1.78125,-7.9375,5.296875
754,1696168086041,0.045166016,-0.8135376,0.3842163,-6.03125,7.53125,0.796875
755,1696168086082,-0.13427734,-0.98028564,0.38104248,2.4375,2.796875,0.828125
756,1696168086121,-0.03491211,-1.0464478,0.17034912,19.734375,-14.921875,4.40625
757,1696168086162,0.05834961,-1.602356,0.2526245,-3.734375,3.734375,-5.140625
758,1696168086202,0.32055664,-1.0205688,0.5187378,7.90625,15.9375,5.484375
759,1696168086243,0.095703125,-1.0747681,0.16864014,4.484375,9.21875,3.515625
760,1696168086263,-0.06518555,-0.9126587,0.14642334,-0.546875,5.25,2.890625
761,1696168086302,0.30566406,-1.0056763,0.13323975,9.40625,-9.71875,14.859375
762,1696168086342,0.33398438,-0.9468384,0.27215576,-8.859375,-14.0,2.59375
763,1696168086380,0.092041016,-0.98321533,0.21624756,9.203125,1.84375,5.328125
764,1696168086421,0.06665039,-1.0750122,0.1539917,6.125,-9.640625,11.53125
765,1696168086463,0.17651367,-0.99346924,0.2543335,7.8125,-2.484375,1.28125
766,1696168086501,0.24438477,-1.0310669,0.19085693,-7.578125,-4.359375,1.1875
767,1696168086540,0.14160156,-0.83428955,0.23431396,-5.578125,0.3125,1.875
768,1696168086581,0.06323242,-0.7461548,0.19818115,5.046875,-0.90625,1.125
769,1696168086621,0.0949707,-0.7373657,0.20574951,1.171875,-2.03125,1.484375
770,1696168086661,0.119628906,-0.8623657,0.19573975,0.640625,-0.421875,-4.75
771,1696168086701,0.1171875,-0.81622314,0.21234131,0.046875,6.203125,-5.453125
772,1696168086742,0.03881836,-0.71539307,0.20697021,-7.25,14.078125,-1.984375
773,1696168086779,0.08642578,-0.8909302,0.2880249,-4.953125,5.546875,-6.578125
774,1696168086821,0.13549805,-0.99224854,0.36956787,-5.25,2.984375,-14.140625
775,1696168086860,0.08325195,-1.1380005,0.29632568,3.484375,4.328125,-12.375
776,1696168086900,0.05493164,-0.9495239,0.32318115,1.125,19.28125,1.8125
777,1696168086938,0.1694336,-0.87384033,0.33685303,-9.3125,11.765625,-5.34375
778,1696168086980,0.23217773,-0.9890747,0.35369873,6.796875,-0.28125,-12.671875
779,1696168087020,0.100097656,-1.0120239,0.33709717,-8.140625,5.109375,-2.109375
780,1696168087060,0.02319336,-1.2261353,0.18841553,6.140625,-13.96875,3.03125
781,1696168087102,0.18798828,-1.4985962,0.16448975,6.15625,-6.859375,-1.515625
782,1696168087141,0.22802734,-0.92926025,0.33685303,-9.96875,-1.859375,-5.03125
783,1696168087180,-0.17480469,-1.1345825,0.21722412,-5.578125,-1.328125,-7.609375
784,1696168087221,-0.19873047,-1.0098267,0.1329956,13.734375,-4.625,2.078125
785,1696168087260,-0.020507812,-0.8921509,0.07293701,-7.09375,9.53125,0.515625
786,1696168087301,0.21679688,-0.92193604,0.16815186,-9.828125,6.984375,-2.03125
787,1696168087341,0.2524414,-1.1018677,0.19110107,1.609375,-0.625,-2.9375
788,1696168087380,0.075927734,-0.9734497,0.21624756,-5.984375,0.53125,-5.3125
789,1696168087421,-0.08325195,-0.99786377,0.18890381,-8.40625,3.34375,-4.640625
790,1696168087481,-0.072265625,-1.0401001,0.168396,5.078125,-5.46875,-0.796875
791,1696168087489,0.123046875,-0.92803955,0.23358154,5.234375,-1.171875,2.234375
792,1696168087521,0.006591797,-0.9092407,0.2694702,-9.453125,3.234375,-3.140625
793,1696168087562,-0.076171875,-0.909729,0.1876831,5.0,-0.859375,-0.328125
794,1696168087602,-0.076171875,-0.9343872,0.19110107,5.90625,-0.28125,4.140625
795,1696168087641,0.01977539,-0.9170532,0.23529053,-13.25,-2.8125,2.28125
796,1696168087681,0.11743164,-0.83258057,0.26678467,-1.203125,-5.90625,3.359375
797,1696168087719,0.02319336,-0.77593994,0.33050537,-17.875,-9.1875,-0.796875
798,1696168087763,-0.119140625,-0.7793579,0.22723389,-9.578125,-9.625,4.359375
799,1696168087804,-0.11791992,-0.8921509,0.24066162,1.359375,-16.984375,8.859375
800,1696168087839,-0.12036133,-0.9446411,0.3361206,-1.34375,0.171875,0.046875
801,1696168087882,-0.021972656,-1.100647,0.33709717,-8.34375,-5.0,1.234375
802,1696168087927,0.068359375,-0.9175415,0.27435303,-5.234375,-3.15625,5.375
803,1696168087960,-0.079589844,-0.9060669,0.34539795,-3.0625,11.40625,1.921875
804,1696168088001,-0.12573242,-0.89508057,0.31488037,-3.4375,0.65625,4.125
805,1696168088042,0.05517578,-0.9417114,0.24066162,15.234375,-12.34375,5.0625
806,1696168088083,0.11254883,-1.3528442,0.37249756,1.65625,0.34375,-3.203125
807,1696168088124,0.17749023,-1.1213989,0.44989014,9.78125,18.640625,3.328125
808,1696168088167,0.2524414,-0.975647,0.1876831,-5.671875,4.21875,8.84375
809,1696168088201,0.23242188,-1.2402954,0.09881592,6.59375,-9.9375,1.484375
810,1696168088241,0.21191406,-1.0835571,0.49505615,1.296875,6.421875,8.5625
811,1696168088282,0.08666992,-1.1231079,0.2958374,0.640625,1.25,0.828125
812,1696168088321,-0.06738281,-0.9619751,0.08099365,-4.265625,-2.03125,-5.859375
813,1696168088362,0.14819336,-0.8880005,0.28216553,-1.046875,8.921875,10.5625
814,1696168088406,0.3503418,-0.80596924,0.41497803,0.515625,-4.09375,4.71875
815,1696168088438,0.1184082,-0.9590454,0.17303467,3.984375,-0.109375,-3.9375
816,1696168088477,0.06958008,-0.8513794,0.2345581,2.40625,6.8125,4.5
817,1696168088520,0.115478516,-0.8267212,0.31610107,-0.90625,-4.765625,2.15625
818,1696168088558,0.1508789,-0.8369751,0.30950928,-8.4375,-0.59375,-7.703125
819,1696168088600,0.031982422,-0.7788696,0.28948975,-5.359375,8.625,-8.78125
820,1696168088642,-0.14233398,-0.68927,0.24481201,3.5,13.953125,-3.40625
821,1696168088701,0.19335938,-0.6304321,0.30706787,-7.390625,7.484375,-4.34375
822,1696168088720,0.115234375,-0.8904419,0.324646,12.015625,14.609375,-15.078125
823,1696168088740,0.2607422,-1.1658325,0.33831787,7.484375,-12.1875,-2.125
824,1696168088820,0.20947266,-0.9763794,0.54119873,-26.921875,-7.390625,-6.4375
825,1696168088826,0.0056152344,-0.8689575,0.29071045,5.828125,0.515625,-10.09375
826,1696168088862,-0.044433594,-0.8760376,0.25946045,8.015625,4.421875,0.28125
827,1696168088899,0.2253418,-1.4265747,0.25335693,8.703125,-20.46875,6.09375
828,1696168088941,0.27514648,-1.4180298,0.29974365,2.125,-19.6875,4.125
829,1696168088981,0.08569336,-0.9385376,0.2255249,-16.46875,5.484375,-1.234375
830,1696168089021,-0.27807617,-1.0947876,0.3036499,2.84375,6.0,-0.921875
831,1696168089066,0.18115234,-1.109436,0.34222412,-4.65625,-26.90625,1.140625
832,1696168089102,0.16357422,-1.0337524,0.124938965,9.984375,2.8125,4.546875
833,1696168089141,0.020751953,-0.98809814,0.08758545,-4.546875,6.28125,-0.078125
834,1696168089183,-0.096191406,-0.9138794,0.21942139,1.59375,7.859375,-5.859375
835,1696168089220,0.060302734,-0.90509033,0.25335693,12.21875,-3.890625,-1.109375
836,1696168089261,0.15014648,-1.0535278,0.13226318,-3.1875,2.078125,-3.078125
837,1696168089315,-0.028076172,-0.9939575,0.199646,-2.734375,9.859375,-5.984375
838,1696168089342,-0.06762695,-0.88238525,0.27020264,0.96875,4.703125,-2.140625
839,1696168089379,-0.030761719,-0.9451294,0.18499756,2.9375,4.96875,-0.453125
840,1696168089422,0.12060547,-0.97735596,0.20428467,-8.59375,1.984375,0.484375
841,1696168089461,0.103027344,-0.85772705,0.25115967,-20.984375,-0.75,-7.421875
842,1696168089501,0.008300781,-0.6795044,0.2345581,-9.78125,-5.515625,-3.125
843,1696168089542,-0.13793945,-0.5942993,0.26605225,-7.390625,-3.953125,0.203125
844,1696168089582,-0.25146484,-0.89801025,0.19525146,-6.59375,-9.671875,3.8125
845,1696168089622,-0.0034179688,-0.80670166,0.34954834,5.484375,-2.53125,11.109375
846,1696168089665,0.021728516,-1.3181763,0.3925171,-4.921875,-0.484375,1.90625
847,1696168089702,0.0036621094,-1.0466919,0.387146,-23.140625,2.515625,-4.015625
848,1696168089739,-0.072021484,-0.78741455,0.31072998,-6.546875,0.0625,4.390625
849,1696168089785,-0.15454102,-0.94122314,0.4232788,11.375,6.359375,0.75
850,1696168089821,0.044921875,-1.1712036,0.26312256,15.90625,-2.796875,2.578125
851,1696168089859,0.24121094,-1.4470825,0.291687,-1.9375,-5.375,1.859375
852,1696168089923,0.11352539,-0.829895,0.41693115,-13.875,17.296875,-3.9375
853,1696168089941,0.017578125,-1.0794067,0.2526245,13.28125,4.640625,-0.875
854,1696168089961,0.1081543,-0.8616333,0.24578857,1.484375,-8.484375,1.140625
855,1696168089999,0.38110352,-1.3084106,0.23504639,20.875,-12.84375,12.03125
856,1696168090041,0.22558594,-0.9951782,0.46746826,-16.96875,3.953125,9.421875
857,1696168090080,-0.040527344,-1.0044556,0.10418701,-3.671875,-3.796875,3.5625
858,1696168090121,0.013183594,-0.99664307,0.21868896,5.234375,-9.375,6.484375
859,1696168090163,0.13696289,-0.88897705,0.49310303,-13.6875,7.09375,10.578125
860,1696168090202,0.21289062,-0.8826294,0.27264404,13.234375,-6.8125,8.328125
861,1696168090240,0.10253906,-0.8670044,0.18206787,-0.578125,3.4375,2.140625
862,1696168090282,0.11254883,-0.84088135,0.3007202,2.484375,10.328125,3.625
863,1696168090323,0.2133789,-0.8545532,0.34710693,0.421875,-3.203125,1.484375
864,1696168090361,0.16235352,-0.9221802,0.36468506,-3.234375,-0.515625,-5.546875
865,1696168090401,0.0703125,-0.82525635,0.28900146,-5.796875,4.15625,-7.15625
866,1696168090451,0.083740234,-0.7163696,0.276062,-0.796875,0.96875,-5.703125
867,1696168090481,0.103271484,-0.78204346,0.36224365,1.984375,0.734375,-7.875
868,1696168090521,0.080078125,-0.8262329,0.38739014,-1.109375,-0.5,-9.015625
869,1696168090564,-0.046875,-0.9026489,0.29266357,10.671875,-1.28125,-11.78125
870,1696168090601,0.024658203,-0.9146118,0.36834717,1.3125,2.359375,-7.984375
871,1696168090641,-0.0012207031,-0.95880127,0.3295288,5.109375,8.96875,-15.265625
872,1696168090681,0.11621094,-1.010315,0.2987671,10.203125,8.421875,1.0
873,1696168090723,0.24682617,-1.0650024,0.46136475,-13.40625,-3.859375,-9.421875
874,1696168090761,-0.031982422,-0.9727173,0.3768921,3.5625,4.234375,-10.734375
875,1696168090801,-0.020751953,-1.2869263,0.19573975,1.46875,-12.984375,5.640625
876,1696168090841,0.08081055,-1.2393188,0.25360107,0.015625,1.15625,-2.171875
877,1696168090887,-0.03881836,-1.1087036,0.3475952,10.0,10.296875,-12.1875
878,1696168090924,0.15136719,-1.2139282,0.08050537,-24.59375,-11.109375,8.09375
879,1696168090961,0.25634766,-0.6802368,0.28826904,4.515625,4.03125,-9.0625
880,1696168091002,-0.29418945,-0.91607666,0.3637085,3.703125,21.890625,-15.53125
881,1696168091045,-0.057128906,-1.3792114,0.043395996,9.515625,-6.734375,4.1875
882,1696168091082,0.3959961,-0.894104,0.12249756,-3.765625,-14.046875,4.59375
883,1696168091121,0.13916016,-0.90875244,0.307312,-4.21875,15.53125,-8.515625
884,1696168091160,-0.22851562,-1.0007935,0.29412842,0.921875,3.46875,-8.375
885,1696168091181,-0.13793945,-0.8657837,0.18450928,5.390625,-7.171875,3.015625
886,1696168091221,0.04248047,-0.9221802,0.16546631,2.828125,4.6875,0.5625
887,1696168091261,0.024902344,-0.92974854,0.24554443,-4.5,8.828125,-3.609375
888,1696168091300,-0.06542969,-0.80914307,0.23480225,-4.671875,-1.34375,2.640625
889,1696168091345,-0.014892578,-0.76812744,0.20843506,-3.953125,-3.609375,5.84375
890,1696168091382,-0.008056641,-0.850647,0.2741089,-12.796875,-4.03125,4.15625
891,1696168091421,-0.06274414,-0.895813,0.26727295,-15.65625,-9.40625,-0.078125
892,1696168091463,-0.071777344,-0.7053833,0.28631592,5.640625,-0.4375,8.28125
893,1696168091499,-0.1274414,-1.0725708,0.30291748,-14.9375,-8.796875,4.078125
894,1696168091541,-0.09838867,-1.0291138,0.32806396,12.859375,0.859375,2.296875
895,1696168091581,0.02319336,-1.0879517,0.4237671,-22.859375,2.15625,5.1875
896,1696168091625,0.036132812,-0.9336548,0.35516357,-3.046875,2.59375,3.078125
897,1696168091661,-0.1743164,-1.0042114,0.41351318,-8.8125,-0.40625,-3.859375
898,1696168091705,-0.21264648,-0.9890747,0.3986206,7.5625,6.046875,-0.171875
899,1696168091741,0.0063476562,-1.0852661,0.30999756,-0.109375,-0.328125,1.921875
900,1696168091781,0.04345703,-1.0654907,0.33050537,6.796875,8.859375,-7.921875
901,1696168091825,0.022949219,-1.1538696,0.322937,7.765625,16.875,2.84375
902,1696168091863,0.14868164,-1.102356,0.19598389,4.140625,3.546875,5.953125
903,1696168091902,0.2446289,-0.895813,0.19671631,-5.515625,6.3125,7.390625
904,1696168091941,0.19677734,-0.96343994,0.23114014,1.46875,5.84375,4.171875
905,1696168091982,0.1772461,-1.029602,0.35784912,12.0625,2.3125,6.265625
906,1696168092022,0.10668945,-1.055481,0.17352295,4.828125,1.8125,11.09375
907,1696168092063,0.21728516,-1.0220337,0.14520264,-0.140625,0.671875,7.15625
908,1696168092101,0.24243164,-0.9019165,0.2826538,-2.625,-0.625,5.71875
909,1696168092141,0.22143555,-0.90509033,0.2538452,6.296875,-10.265625,5.703125
910,1696168092183,0.0847168,-0.8772583,0.30682373,-2.40625,3.671875,1.71875
911,1696168092221,0.1171875,-0.91607666,0.2255249,13.40625,0.359375,2.890625
912,1696168092260,0.0703125,-0.86798096,0.20843506,-8.734375,-2.28125,-0.8125
913,1696168092306,0.14550781,-0.7300415,0.29803467,-7.015625,1.296875,-2.875
914,1696168092342,0.15039062,-0.8735962,0.28167725,5.09375,-3.53125,-10.5
915,1696168092383,-0.02709961,-0.8088989,0.37127686,6.96875,13.96875,-7.421875
916,1696168092403,0.027832031,-0.8591919,0.19012451,-8.6875,7.078125,-4.28125
917,1696168092441,0.096191406,-0.7962036,0.2543335,-6.46875,3.640625,-13.328125
918,1696168092481,0.234375,-1.0337524,0.38494873,-1.046875,-8.875,-3.859375
919,1696168092521,0.04663086,-0.97247314,0.5126343,-6.171875,3.578125,-8.296875
920,1696168092562,0.04296875,-1.0357056,0.3295288,5.0,-0.578125,-6.5625
921,1696168092603,0.0793457,-0.8987427,0.2723999,-5.28125,-5.140625,-4.1875
922,1696168092642,0.020263672,-0.8040161,0.387146,-3.015625,-1.90625,-4.953125
923,1696168092682,-0.02319336,-1.0178833,0.3366089,15.890625,-12.09375,1.59375
924,1696168092730,0.25439453,-1.6243286,0.22845459,8.078125,-26.75,4.3125
925,1696168092762,0.08325195,-1.0796509,0.30023193,-27.296875,-0.1875,-2.046875
926,1696168092801,-0.21606445,-1.2210083,0.2658081,13.328125,13.96875,-7.859375
927,1696168092841,0.15454102,-1.0811157,0.30999756,-9.875,-24.40625,6.046875
928,1696168092881,0.20336914,-0.83795166,0.28118896,-0.5,2.4375,-1.84375
929,1696168092921,-0.0009765625,-0.8726196,0.25335693,5.28125,5.375,-5.171875
930,1696168092959,-0.111328125,-1.1240845,0.04095459,9.3125,-5.71875,-3.546875
931,1696168093000,-0.0061035156,-0.94195557,0.21356201,6.46875,-10.703125,0.15625
932,1696168093041,0.05053711,-1.0696411,0.29241943,3.359375,2.375,-0.96875
933,1696168093081,-0.009277344,-1.0772095,0.25750732,-2.5,4.515625,-6.5
934,1696168093121,0.05810547,-0.81988525,0.18304443,-5.46875,-5.453125,0.515625
935,1696168093161,0.0063476562,-0.75616455,0.17108154,5.625,-2.296875,3.609375
936,1696168093204,-0.099853516,-0.93096924,0.17913818,10.375,-3.5625,2.375
937,1696168093242,-0.07470703,-0.90045166,0.18817139,-21.328125,-8.203125,2.0
938,1696168093280,0.041503906,-0.84625244,0.27435303,-4.34375,-5.15625,2.1875
939,1696168093323,0.004638672,-1.015686,0.26239014,-19.390625,-6.8125,-3.375
940,1696168093361,-0.1340332,-0.71295166,0.24945068,-9.125,-4.46875,0.265625
941,1696168093402,-0.088378906,-0.6243286,0.34197998,-1.5,-1.203125,3.796875
942,1696168093442,-0.10961914,-1.1372681,0.32904053,7.953125,-7.359375,6.734375
943,1696168093481,0.03881836,-1.0996704,0.25360107,-10.59375,-7.203125,2.703125
944,1696168093522,-0.088134766,-0.9036255,0.30047607,2.6875,14.625,2.40625
945,1696168093562,-0.099365234,-1.0230103,0.401062,-14.703125,1.46875,5.046875
946,1696168093603,0.046875,-0.9663696,0.42352295,12.4375,-6.828125,2.296875
947,1696168093621,-0.0087890625,-1.2451782,0.26385498,10.984375,2.296875,3.84375
948,1696168093660,-0.12524414,-1.1853638,0.27972412,-4.375,19.5625,0.796875
949,1696168093701,0.22875977,-1.0125122,0.26800537,-0.328125,2.65625,6.328125
950,1696168093742,0.31274414,-1.0352173,0.26776123,6.4375,6.609375,4.53125
951,1696168093780,0.34375,-1.0545044,0.36444092,-10.796875,3.9375,6.15625
952,1696168093822,0.08935547,-1.117981,0.20965576,-3.703125,-16.59375,2.21875
953,1696168093863,0.010498047,-0.9661255,0.35028076,8.65625,-1.0625,7.578125
954,1696168093901,-0.0107421875,-1.1450806,0.19476318,4.875,-0.453125,7.28125
955,1696168093940,0.2019043,-0.98516846,0.32000732,-0.78125,-5.625,1.078125
956,1696168093985,0.21508789,-0.77960205,0.33563232,-11.0625,1.765625,3.5625
957,1696168094022,0.09008789,-0.7263794,0.19696045,25.640625,2.3125,7.921875
958,1696168094061,0.08642578,-0.8609009,0.168396,8.359375,-1.640625,6.4375
959,1696168094102,0.11425781,-0.8045044,0.2982788,-7.609375,3.03125,0.375
960,1696168094140,0.07470703,-0.9204712,0.30999756,4.421875,2.21875,-4.796875
961,1696168094181,0.033691406,-0.7839966,0.27557373,-12.25,7.90625,-6.984375
962,1696168094221,0.041015625,-0.68170166,0.25457764,0.1875,14.90625,-7.46875
963,1696168094260,0.09423828,-0.83966064,0.22650146,-3.6875,1.171875,-13.0625
964,1696168094301,0.2368164,-0.9373169,0.4130249,5.609375,5.609375,-8.953125
965,1696168094344,0.092041016,-1.019104,0.40496826,-9.46875,-1.5,-8.265625
966,1696168094384,0.028564453,-0.93414307,0.3222046,1.328125,11.84375,-12.015625
967,1696168094422,0.09399414,-1.0178833,0.3361206,2.703125,-2.828125,-5.78125
968,1696168094464,0.12548828,-0.98809814,0.45599365,-10.984375,8.828125,-12.125
969,1696168094501,-0.027832031,-0.8789673,0.30438232,23.703125,2.453125,-5.6875
970,1696168094557,0.21240234,-1.3716431,0.098083496,-4.828125,-11.015625,10.453125
971,1696168094578,0.37451172,-1.5413208,0.16522217,18.546875,-8.234375,-4.140625
972,1696168094620,0.1003418,-0.9258423,0.24920654,-12.421875,-6.21875,-0.140625
973,1696168094662,-0.2446289,-1.0408325,0.2741089,0.421875,-8.640625,-3.0
974,1696168094702,-0.022949219,-1.0357056,0.1906128,13.453125,-25.53125,7.046875
975,1696168094740,0.17333984,-0.9649048,0.10784912,5.40625,-8.828125,10.140625
976,1696168094781,-0.037353516,-0.9038696,0.22650146,-20.015625,1.453125,-7.265625
977,1696168094856,-0.16601562,-0.88116455,0.19110107,12.84375,1.171875,-1.359375
978,1696168094861,0.061035156,-1.0020142,0.031921387,12.953125,-8.65625,8.5625
979,1696168094884,0.11450195,-1.1055298,0.23040771,0.125,8.375,-3.09375
980,1696168094920,0.055419922,-1.1709595,0.2946167,-2.4375,-0.0625,-6.765625
981,1696168094963,-0.06958008,-0.90509033,0.1708374,-7.5625,-3.125,-0.828125
982,1696168095005,-0.06567383,-0.9168091,0.13470459,6.671875,7.4375,0.8125
983,1696168095041,0.030761719,-0.89678955,0.23577881,-2.375,4.421875,-0.328125
984,1696168095082,0.07788086,-0.92071533,0.24700928,3.421875,-5.9375,3.171875
985,1696168095121,0.084228516,-1.0100708,0.22088623,-11.109375,-8.59375,5.671875
986,1696168095160,0.013916016,-0.88653564,0.24798584,-21.25,-11.265625,-4.640625
987,1696168095203,-0.18701172,-0.7600708,0.2506714,-11.0625,-7.53125,-3.265625
988,1696168095241,-0.11743164,-0.6897583,0.22406006,0.484375,-10.71875,6.4375
989,1696168095283,-0.01977539,-0.7920532,0.29632568,-1.03125,-8.0625,2.640625
990,1696168095322,-0.111083984,-1.0508423,0.27288818,-11.765625,-11.78125,-1.640625
991,1696168095361,-0.04272461,-0.93756104,0.27386475,-11.15625,-6.40625,-2.78125
992,1696168095401,-0.16796875,-0.86846924,0.40130615,-9.0,7.3125,-4.40625
993,1696168095440,-0.18920898,-1.1992798,0.3571167,-7.6875,0.765625,-2.328125
994,1696168095481,0.1171875,-0.8093872,0.3295288,1.90625,-4.1875,3.5625
995,1696168095524,0.018798828,-1.0784302,0.36883545,-4.828125,4.265625,0.765625
996,1696168095562,-0.018798828,-1.4859009,0.2506714,34.875,-4.453125,2.09375
997,1696168095607,0.23608398,-1.1975708,0.54315186,-30.546875,5.078125,3.8125
998,1696168095640,0.23510742,-0.91973877,0.18157959,1.609375,3.328125,7.609375
999,1696168095683,0.055419922,-0.98272705,0.15863037,4.078125,-3.921875,4.0625
1000,1696168095721,0.12231445,-1.187561,0.3180542,15.8125,-3.546875,12.984375
1001,1696168095762,0.107910156,-0.96539307,0.33880615,-22.5,-5.265625,6.046875
1002,1696168095803,0.07397461,-0.9898071,0.16619873,-1.34375,-0.03125,-1.140625
1003,1696168095841,0.09814453,-0.92633057,0.3427124,-4.65625,5.625,4.09375
1004,1696168095881,0.15649414,-0.8821411,0.34124756,5.734375,0.765625,3.609375
1005,1696168095922,0.14038086,-0.9326782,0.26068115,2.25,-0.234375,3.6875
1006,1696168095965,0.068115234,-0.8545532,0.30023193,2.890625,9.875,5.03125
1007,1696168096001,0.09838867,-0.8689575,0.26361084,2.4375,2.40625,1.84375
1008,1696168096063,0.16357422,-0.92755127,0.32733154,-3.375,3.09375,-5.9375
1009,1696168096080,0.079589844,-0.9168091,0.36956787,1.84375,11.828125,-4.734375
1010,1696168096101,0.009765625,-0.73321533,0.22698975,-5.96875,9.71875,-3.34375
1011,1696168096181,0.05053711,-0.7337036,0.20721436,6.84375,9.640625,-9.046875
1012,1696168096185,0.09472656,-0.9102173,0.3937378,0.703125,15.046875,-10.84375
1013,1696168096222,0.047851562,-0.92852783,0.33758545,-10.53125,-2.84375,-12.875
1014,1696168096261,-0.037597656,-0.6699829,0.3336792,1.6875,9.453125,-7.078125
1015,1696168096301,0.17675781,-0.97076416,0.28656006,11.453125,4.578125,-7.15625
1016,1696168096340,0.0063476562,-1.0745239,0.3756714,6.21875,16.015625,-9.421875
1017,1696168096382,0.15942383,-1.0093384,0.3866577,-11.25,2.984375,-4.828125
1018,1696168096421,0.08642578,-0.9834595,0.42547607,1.65625,4.28125,-5.078125
1019,1696168096461,0.0034179688,-1.170227,0.36029053,0.703125,-1.265625,-7.109375
1020,1696168096504,-0.016357422,-1.1463013,0.3673706,-6.296875,-11.21875,2.625
1021,1696168096540,0.18847656,-1.1929321,0.3805542,-4.640625,-17.09375,1.25
1022,1696168096578,0.047607422,-0.91192627,0.31170654,1.84375,-9.15625,3.09375
1023,1696168096618,-0.05419922,-0.9036255,0.2826538,-1.421875,-8.984375,2.78125
1024,1696168096658,-0.15039062,-1.0969849,0.11053467,12.84375,-11.25,5.515625
1025,1696168096698,0.29760742,-1.0879517,0.15252686,-13.125,-19.984375,6.421875
1026,1696168096738,0.09008789,-0.86798096,0.38519287,-3.078125,-1.84375,-10.453125
1027,1696168096779,-0.3022461,-1.0049438,0.25701904,5.921875,5.40625,-7.75
1028,1696168096820,-0.07519531,-1.0239868,0.097595215,4.828125,-10.40625,5.359375
1029,1696168096858,0.088378906,-1.0635376,0.16888428,8.0,2.390625,-3.875
1030,1696168096898,-0.0036621094,-1.0371704,0.32781982,-4.25,22.296875,-6.875
1031,1696168096938,-0.026855469,-0.9854126,0.2218628,1.734375,-1.125,-2.90625
1032,1696168096982,-0.03125,-0.9973755,0.22747803,-0.796875,1.671875,-2.578125
1033,1696168097019,-0.13793945,-0.98638916,0.24261475,3.984375,23.53125,-4.3125
1034,1696168097058,-0.0546875,-0.8831177,0.20355225,-1.984375,10.0,-1.328125
1035,1696168097098,0.044189453,-0.86309814,0.20111084,-3.71875,2.515625,2.09375
1036,1696168097139,0.068359375,-0.8442993,0.27020264,-8.21875,4.578125,4.28125
1037,1696168097180,0.009277344,-0.79473877,0.28875732,-14.65625,-2.953125,2.890625
1038,1696168097222,-0.08618164,-0.60821533,0.16082764,-9.921875,-6.0,4.625
1039,1696168097281,-0.037109375,-0.6511841,0.2453003,7.390625,-14.484375,12.4375
1040,1696168097299,-0.2487793,-1.1289673,0.34906006,10.359375,0.875,8.265625
1041,1696168097319,0.010009766,-1.1265259,0.36566162,-11.21875,-16.171875,6.046875
1042,1696168097358,0.0061035156,-1.0003052,0.29925537,-6.71875,-2.453125,0.578125
1043,1696168097404,-0.19360352,-0.9475708,0.3768921,1.21875,9.140625,-0.796875
1044,1696168097440,-0.12939453,-1.1008911,0.35076904,-3.125,-9.5625,3.359375
1045,1696168097489,0.1821289,-1.2515259,0.3143921,2.640625,-20.421875,0.84375
1046,1696168097524,0.13305664,-1.2688599,0.52093506,-10.109375,21.640625,-1.9375
1047,1696168097561,-0.06713867,-0.91119385,0.21844482,7.4375,10.71875,0.171875
1048,1696168097601,0.21459961,-1.2598267,0.2111206,-4.09375,-13.546875,2.515625
1049,1696168097639,0.34228516,-0.83599854,0.6691284,-6.109375,21.75,2.046875
1050,1696168097685,0.013671875,-0.98150635,0.12030029,6.359375,-5.21875,5.765625
1051,1696168097722,-0.0073242188,-1.0073853,0.18035889,-1.734375,-10.859375,3.703125
1052,1696168097759,0.107666016,-0.98101807,0.47528076,0.796875,12.296875,9.546875
1053,1696168097800,0.15649414,-0.911438,0.35882568,3.1875,-0.671875,2.8125
1054,1696168097842,0.13085938,-0.8701782,0.20697021,-5.34375,3.234375,-2.140625
1055,1696168097880,0.09741211,-0.8286743,0.29119873,10.171875,0.984375,4.34375
1056,1696168097922,0.107910156,-0.84503174,0.3258667,7.78125,0.203125,3.671875
1057,1696168097961,0.13134766,-0.84552,0.25994873,-3.5625,3.453125,-1.5625
1058,1696168098001,0.061523438,-0.8230591,0.28826904,1.65625,4.6875,-4.265625
1059,1696168098042,0.025390625,-0.866272,0.2694702,2.78125,3.875,-5.71875
1060,1696168098082,0.053466797,-0.63165283,0.29144287,5.75,13.96875,-3.84375
1061,1696168098125,0.0087890625,-0.8225708,0.21990967,13.9375,9.265625,-0.921875
1062,1696168098161,0.23657227,-1.0769653,0.33465576,3.6875,3.875,-7.0
1063,1696168098202,0.06201172,-1.0784302,0.42816162,-4.5,3.65625,-12.34375
1064,1696168098245,0.04248047,-0.9072876,0.3649292,0.5,13.125,-3.28125
1065,1696168098282,0.064941406,-1.0549927,0.33221436,-1.046875,0.34375,-10.34375
1066,1696168098321,0.087402344,-0.94244385,0.37957764,5.5,5.15625,-3.734375
1067,1696168098364,0.049560547,-0.8579712,0.38983154,0.078125,6.046875,-3.65625
1068,1696168098402,0.08862305,-1.1384888,0.19744873,19.890625,-7.90625,2.109375
1069,1696168098439,0.1472168,-1.3792114,0.024108887,2.09375,-5.78125,6.40625
1070,1696168098479,0.1574707,-0.99102783,0.11639404,-24.125,0.671875,4.0
1071,1696168098520,-0.2043457,-1.1841431,0.23040771,12.953125,14.4375,-6.96875
1072,1696168098538,0.09741211,-1.1511841,0.21478271,-6.296875,-18.34375,2.96875
1073,1696168098581,0.18798828,-0.94366455,0.13568115,0.625,-4.421875,4.171875
1074,1696168098620,0.057373047,-0.93756104,0.23797607,-13.3125,-1.5,-11.484375
1075,1696168098664,-0.11621094,-0.9746704,0.20428467,12.03125,8.375,-0.59375
1076,1696168098701,0.012939453,-1.232727,0.04827881,-5.6875,-18.078125,2.859375
1077,1696168098741,0.06616211,-0.94903564,0.22943115,-0.09375,10.59375,-6.5
1078,1696168098782,0.030273438,-0.9483032,0.28045654,3.59375,10.59375,-4.359375
1079,1696168098821,-0.061523438,-0.9421997,0.1696167,-4.96875,1.453125,-3.21875
1080,1696168098861,-0.05834961,-0.81915283,0.10638428,-2.1875,7.515625,-2.546875
1081,1696168098903,-0.079833984,-0.9446411,0.12860107,6.8125,5.84375,1.1875
1082,1696168098938,0.03564453,-0.90875244,0.18499756,-8.953125,-2.125,-1.15625
1083,1696168098979,0.036132812,-0.79937744,0.23382568,-10.171875,1.875,-2.578125
1084,1696168099021,0.075927734,-0.6865845,0.2645874,-13.9375,-4.453125,0.46875
1085,1696168099063,-0.13061523,-0.78375244,0.25604248,-7.40625,-7.125,-2.171875
1086,1696168099100,-0.17626953,-0.9246216,0.23602295,-7.28125,-9.40625,1.421875
1087,1696168099142,-0.12817383,-0.9915161,0.3053589,-9.734375,-15.4375,2.453125
1088,1696168099181,-0.076416016,-1.02594,0.4249878,-12.40625,-4.953125,-5.0
1089,1696168099220,-0.1772461,-0.9697876,0.28070068,3.0625,5.859375,-2.984375
1090,1696168099260,-0.16040039,-0.96832275,0.32684326,-9.046875,-6.109375,2.75
1091,1696168099299,-0.05444336,-0.9180298,0.24554443,12.34375,1.6875,3.4375
1092,1696168099337,-0.010986328,-1.5239868,0.25531006,22.140625,-7.34375,0.3125
1093,1696168099383,0.115478516,-1.3938599,0.33026123,-14.859375,7.234375,2.234375
1094,1696168099420,0.25146484,-0.8362427,0.32781982,-3.0625,14.734375,8.171875
1095,1696168099460,0.15014648,-0.9002075,0.23626709,7.03125,-4.28125,4.421875
1096,1696168099500,0.053222656,-1.2097778,0.3102417,15.1875,-1.328125,2.1875
1097,1696168099541,0.068847656,-0.9656372,0.41937256,-19.515625,0.25,9.75
1098,1696168099580,0.05883789,-0.85723877,0.13641357,14.578125,6.4375,10.125
1099,1696168099619,0.15136719,-0.97735596,0.20965576,-2.859375,-2.328125,4.984375
1100,1696168099661,0.30004883,-1.0027466,0.41082764,10.125,-1.578125,12.28125
1101,1696168099700,0.20117188,-1.0623169,0.27752686,0.484375,-5.0625,6.828125
1102,1696168099742,0.10961914,-0.83135986,0.2255249,-9.34375,7.734375,0.0625
1103,1696168099761,0.087646484,-0.7647095,0.27996826,9.140625,-0.5,1.125
1104,1696168099803,0.057861328,-0.87750244,0.31488037,14.859375,-2.0625,3.21875
1105,1696168099843,0.099609375,-0.8357544,0.21722412,-14.75,1.6875,-1.53125
1106,1696168099883,0.11425781,-0.8530884,0.2189331,-3.203125,2.671875,-7.875
1107,1696168099921,0.07763672,-0.8088989,0.30804443,4.59375,10.796875,-6.859375
1108,1696168099962,0.043945312,-0.7473755,0.3012085,-0.265625,13.1875,-4.8125
1109,1696168100001,0.022216797,-0.7647095,0.18865967,2.921875,10.984375,-9.109375
1110,1696168100041,0.16235352,-0.93341064,0.3065796,6.1875,4.578125,-7.984375
1111,1696168100080,0.15136719,-1.1087036,0.46331787,-4.046875,0.203125,-8.53125
1112,1696168100123,0.07470703,-1.0923462,0.4208374,-12.171875,3.484375,-10.859375
1113,1696168100163,-0.053955078,-0.92974854,0.260437,0.859375,1.65625,-8.828125
1114,1696168100200,-0.006591797,-0.8154907,0.38690186,1.734375,10.953125,-4.3125
1115,1696168100251,0.118652344,-1.2393188,0.32196045,6.53125,-1.3125,-0.421875
1116,1696168100278,0.2866211,-1.3191528,0.23797607,3.3125,-24.609375,6.671875
1117,1696168100320,0.2524414,-1.1460571,0.26678467,-16.484375,-3.421875,-0.984375
1118,1696168100358,-0.08251953,-0.9002075,0.2177124,9.34375,-0.53125,-7.25
1119,1696168100398,-0.24438477,-1.3386841,-0.101379395,6.546875,-11.265625,4.125
1120,1696168100440,0.23583984,-0.88409424,0.06951904,2.875,-9.375,14.421875
1121,1696168100479,0.05053711,-0.89630127,0.3637085,-1.765625,7.671875,-11.9375
1122,1696168100520,-0.099609375,-1.3167114,0.10858154,11.828125,0.296875,-5.5625
1123,1696168100560,0.10864258,-0.90167236,-0.02960205,-16.6875,-14.578125,4.421875
1124,1696168100602,0.068359375,-0.83062744,0.19012451,4.171875,4.6875,-5.09375
1125,1696168100640,-0.0390625,-0.89019775,0.35809326,1.578125,3.9375,-4.65625
1126,1696168100681,-0.103515625,-1.107727,0.07269287,-4.0625,-8.65625,0.15625
1127,1696168100721,0.020751953,-0.8569946,0.12445068,-5.515625,-3.1875,0.296875
1128,1696168100761,-0.09448242,-0.9512329,0.2579956,-6.328125,7.3125,-3.890625
1129,1696168100802,-0.025634766,-0.99542236,0.17156982,-6.359375,-8.015625,4.046875
1130,1696168100843,0.1418457,-0.7305298,0.17767334,-2.71875,-8.9375,9.421875
1131,1696168100881,0.00024414062,-0.76763916,0.30218506,-15.5625,-3.46875,-4.3125
1132,1696168100920,-0.12890625,-0.8748169,0.3114624,2.296875,-12.03125,1.125
1133,1696168100960,-0.20458984,-1.0752563,0.14544678,-8.3125,-15.34375,5.625
1134,1696168100978,-0.060546875,-0.62823486,0.29241943,-13.9375,1.671875,-2.90625
1135,1696168101018,-0.06274414,-1.1577759,0.25506592,-4.6875,-10.0,2.296875
1136,1696168101059,0.084228516,-0.9326782,0.36932373,-1.65625,-14.578125,7.34375
1137,1696168101098,-0.14770508,-1.067688,0.3546753,-8.484375,4.890625,-1.203125
1138,1696168101139,-0.17211914,-1.0496216,0.3624878,1.734375,-3.1875,-0.5625
1139,1696168101177,-0.033203125,-1.1135864,0.34857178,-6.09375,-11.34375,1.90625
1140,1696168101218,0.064941406,-1.2254028,0.34466553,11.6875,-0.765625,-1.1875
1141,1696168101259,-0.10595703,-1.2471313,0.42279053,-8.5,25.0,-3.78125
1142,1696168101298,-0.09472656,-0.72857666,0.26776123,-11.171875,16.125,0.984375
1143,1696168101338,0.29052734,-0.8088989,0.25286865,-0.140625,-4.46875,10.28125
1144,1696168101380,0.2998047,-1.2932739,0.33294678,16.4375,-0.453125,-1.46875
1145,1696168101423,0.12426758,-1.131897,0.37860107,-5.125,14.765625,8.0625
1146,1696168101462,-0.006591797,-0.7710571,0.1708374,-7.734375,5.40625,6.953125
1147,1696168101500,0.16552734,-0.9109497,0.16644287,9.0,-6.8125,2.265625
1148,1696168101542,0.2434082,-1.0581665,0.5036011,20.453125,1.328125,13.65625
1149,1696168101582,0.23266602,-1.1282349,0.2929077,-5.359375,-14.875,7.34375
1150,1696168101620,0.0026855469,-0.8225708,0.1251831,-7.40625,7.015625,-3.609375
1151,1696168101661,0.009521484,-0.708313,0.20477295,4.0,9.5,4.3125
1152,1696168101700,0.13085938,-0.7485962,0.29534912,10.140625,-7.6875,5.234375
1153,1696168101744,0.06713867,-0.8320923,0.28826904,-1.46875,9.6875,-2.84375
1154,1696168101778,0.04321289,-0.68756104,0.32489014,-4.59375,19.859375,-8.53125
1155,1696168101819,0.055664062,-0.75860596,0.23846436,7.65625,6.984375,-8.9375
1156,1696168101859,0.1730957,-0.97125244,0.35906982,6.96875,0.703125,-10.125
1157,1696168101898,0.07421875,-1.1160278,0.33416748,2.84375,8.65625,-3.96875
1158,1696168101939,0.14526367,-1.0203247,0.32659912,-12.34375,0.703125,-8.921875
1159,1696168101979,0.033203125,-0.9951782,0.34320068,11.359375,3.1875,-12.4375
1160,1696168102018,-0.052734375,-1.0369263,0.42694092,-3.328125,15.984375,-3.640625
1161,1696168102059,0.106933594,-0.8936157,0.29534912,5.09375,0.3125,-4.8125
1162,1696168102099,0.04321289,-0.83599854,0.23846436,-1.8125,18.421875,-4.59375
1163,1696168102139,0.27294922,-1.258606,0.08416748,7.984375,-17.265625,1.046875
1164,1696168102198,0.25024414,-1.4851685,0.061462402,0.703125,-17.46875,5.96875
1165,1696168102201,0.0625,-0.80474854,0.41522217,-21.390625,3.09375,-8.515625
1166,1696168102239,-0.27148438,-1.2810669,0.20404053,1.890625,-5.15625,-7.953125
1167,1696168102279,-0.051513672,-1.0664673,0.070739746,5.0,-1.84375,13.515625
1168,1696168102320,0.15161133,-1.0186157,0.20379639,-15.953125,7.171875,-4.015625
1169,1696168102358,0.19848633,-0.90826416,0.32025146,-9.90625,1.140625,-7.625
1170,1696168102399,0.046875,-0.9248657,0.11248779,9.171875,-5.890625,1.046875
1171,1696168102439,-0.11816406,-1.0183716,0.035095215,12.53125,2.921875,-3.015625
1172,1696168102479,-0.024169922,-0.9439087,0.22039795,-2.3125,-4.34375,-0.953125
1173,1696168102519,-0.0031738281,-1.029602,0.26263428,1.59375,2.359375,-1.125
1174,1696168102559,-0.010253906,-0.973938,0.18572998,-1.5,3.265625,-0.765625
1175,1696168102598,-0.04736328,-0.93585205,0.18060303,1.0,2.71875,0.734375
1176,1696168102640,-0.044433594,-0.9524536,0.22821045,-6.09375,0.03125,1.828125
1177,1696168102680,0.016113281,-0.9258423,0.19866943,-0.4375,-1.03125,1.46875
1178,1696168102719,0.033203125,-0.7671509,0.24554443,-9.28125,-2.171875,0.875
1179,1696168102759,-0.050048828,-0.87042236,0.20062256,-2.015625,-4.515625,0.515625
1180,1696168102798,-0.035888672,-0.8699341,0.24505615,-20.578125,-7.890625,0.671875
1181,1696168102841,-0.13623047,-0.8897095,0.30023193,-6.78125,-6.453125,2.421875
1182,1696168102880,-0.10888672,-0.79815674,0.3007202,-5.203125,3.515625,2.25
1183,1696168102918,-0.1508789,-1.1506958,0.2387085,-6.59375,-3.078125,2.6875
1184,1696168102959,0.078125,-0.9229126,0.36688232,-17.625,-6.828125,4.9375
1185,1696168103000,-0.080566406,-1.0220337,0.42230225,-4.875,9.921875,-3.140625
1186,1696168103041,-0.09033203,-0.8933716,0.2819214,-3.53125,-0.125,3.453125
1187,1696168103082,0.024414062,-1.1419067,0.2177124,11.25,-8.640625,5.578125
1188,1696168103120,0.06201172,-1.2114868,0.45135498,3.96875,7.703125,-0.796875
1189,1696168103160,0.09277344,-1.2146606,0.36566162,1.59375,7.640625,3.0
1190,1696168103200,0.10644531,-0.7815552,0.25750732,1.484375,8.453125,7.25
1191,1696168103239,0.0073242188,-1.1414185,0.28240967,14.46875,7.5,0.984375
1192,1696168103280,0.0949707,-0.97369385,0.24969482,-1.703125,2.828125,1.265625
1193,1696168103324,0.34521484,-0.84210205,0.3085327,11.765625,1.015625,14.421875
1194,1696168103361,0.29052734,-0.86920166,0.13421631,10.515625,-3.34375,9.90625
1195,1696168103425,0.16552734,-1.1367798,0.14007568,14.6875,-7.234375,7.8125
1196,1696168103442,0.111816406,-1.0501099,0.3439331,-4.859375,-4.03125,6.265625
1197,1696168103458,0.11987305,-1.0032349,0.18450928,4.40625,-3.75,4.390625
1198,1696168103543,0.16064453,-0.9534302,0.1161499,2.6875,0.578125,3.53125
1199,1696168103549,0.17944336,-0.8530884,0.26971436,5.375,5.734375,6.546875
1200,1696168103584,0.22070312,-0.85284424,0.260437,1.765625,-7.03125,4.328125
1201,1696168103619,0.16870117,-0.9234009,0.25091553,-2.796875,-3.140625,-3.78125
1202,1696168103665,0.13549805,-0.95635986,0.28533936,-6.671875,-1.65625,-2.6875
1203,1696168103702,0.09057617,-0.8406372,0.2506714,-5.359375,-5.765625,-7.65625
1204,1696168103740,0.0073242188,-0.725647,0.26678467,-6.65625,8.84375,-14.1875
1205,1696168103781,-0.018798828,-0.6716919,0.22479248,8.4375,14.578125,-8.34375
1206,1696168103824,0.13256836,-0.7835083,0.2819214,1.75,-2.125,-7.09375
1207,1696168103862,0.23706055,-0.9717407,0.31219482,2.828125,3.71875,-11.84375
1208,1696168103901,0.14379883,-1.1465454,0.33709717,-12.21875,3.34375,-3.71875
1209,1696168103942,0.12207031,-0.9607544,0.27630615,-10.578125,-7.21875,-6.296875
1210,1696168103980,0.010498047,-1.0005493,0.37542725,14.8125,8.640625,-4.8125
1211,1696168104021,0.04248047,-0.9060669,0.49139404,-14.78125,5.671875,-0.328125
1212,1696168104063,0.006591797,-0.9859009,0.24285889,1.15625,-1.671875,-6.25
1213,1696168104102,0.24023438,-1.4985962,0.031677246,3.78125,-25.8125,13.609375
1214,1696168104140,0.38134766,-1.092102,0.33465576,-20.75,3.46875,1.703125
1215,1696168104180,-0.19482422,-0.7102661,0.38104248,2.65625,19.6875,-14.40625
1216,1696168104220,-0.050048828,-1.3914185,-0.20318604,6.328125,-22.921875,13.21875
1217,1696168104262,0.41601562,-1.0498657,0.113708496,15.15625,-5.671875,10.5
1218,1696168104303,0.039794922,-0.9483032,0.41522217,-25.796875,16.625,-24.375
1219,1696168104342,-0.15307617,-0.9824829,0.24090576,8.796875,2.1875,-5.265625
1220,1696168104381,-0.03466797,-1.0315552,-0.039367676,8.015625,-22.53125,5.78125
1221,1696168104420,0.0012207031,-0.99786377,0.25286865,-4.640625,18.796875,-3.5625
1222,1696168104459,0.0087890625,-0.9729614,0.2662964,-1.453125,12.84375,-4.359375
1223,1696168104502,-0.0063476562,-1.0344849,0.2321167,-1.265625,2.40625,-3.453125
1224,1696168104540,0.012939453,-0.9915161,0.18133545,-9.03125,7.234375,-2.171875
1225,1696168104583,0.100097656,-0.8821411,0.20013428,-5.484375,5.703125,0.8125
1226,1696168104641,0.07373047,-0.79473877,0.25604248,-6.109375,-2.25,-1.796875
1227,1696168104662,-0.07836914,-0.78131104,0.19940186,-1.390625,-1.71875,0.046875
1228,1696168104682,-0.095947266,-0.8740845,0.2020874,-12.96875,-5.59375,2.53125
1229,1696168104725,-0.06933594,-0.769104,0.2584839,-11.71875,-2.484375,1.984375
1230,1696168104761,0.0061035156,-0.7371216,0.25579834,4.703125,2.78125,5.59375
1231,1696168104801,0.032714844,-1.0471802,0.22625732,-12.953125,-12.109375,2.234375
1232,1696168104841,0.013427734,-0.96588135,0.38885498,-7.8125,-2.8125,2.296875
1233,1696168104881,0.064208984,-0.8242798,0.48675537,-1.71875,2.5625,-0.453125
1234,1696168104921,-0.13598633,-1.0164185,0.32684326,0.953125,-3.203125,-4.515625
1235,1696168104962,-0.03515625,-1.1206665,0.1329956,10.78125,-15.875,3.234375
1236,1696168105003,0.095947266,-1.4741821,0.35198975,14.640625,-1.109375,-3.359375
1237,1696168105041,-0.022949219,-0.9072876,0.5519409,-46.125,27.0625,-11.46875
1238,1696168105081,0.24169922,-1.0183716,-0.020812988,47.3125,-10.8125,0.671875
1239,1696168105122,0.2783203,-1.0112915,0.40960693,-15.28125,13.4375,8.78125
1240,1696168105159,0.27978516,-1.1980591,0.25872803,21.015625,2.9375,6.984375
1241,1696168105204,-0.005126953,-0.9758911,0.21624756,-29.140625,-20.96875,-5.78125
1242,1696168105242,-0.029296875,-1.0335083,0.37078857,0.546875,1.40625,5.65625
1243,1696168105280,0.09326172,-1.0093384,0.39788818,14.0,-13.0,7.40625
1244,1696168105320,0.14379883,-1.0325317,0.2526245,2.59375,-5.78125,2.25
1245,1696168105364,0.061523438,-0.78863525,0.17254639,-16.578125,6.84375,0.515625
1246,1696168105401,0.08300781,-0.72857666,0.31341553,14.90625,-3.8125,1.8125
1247,1696168105442,0.11352539,-0.85528564,0.34344482,0.625,-7.765625,2.84375
1248,1696168105480,0.080322266,-0.80548096,0.2633667,-3.515625,3.21875,-3.84375
1249,1696168105525,0.0021972656,-0.6724243,0.37225342,0.0625,7.21875,-9.71875
1250,1696168105559,0.011474609,-0.69659424,0.29193115,7.734375,3.703125,-6.046875
1251,1696168105598,0.17651367,-0.84161377,0.3366089,6.59375,2.828125,-3.9375
1252,1696168105638,0.11987305,-0.9702759,0.27825928,11.671875,-3.484375,-5.28125
