,timestamp,accel_x,accel_y,accel_z,gyro_x,gyro_y,gyro_z
0,1695773429827,-0.14257812,-0.94976807,0.3427124,-1.171875,-0.65625,0.421875
1,1695773429871,-0.17089844,-0.9644165,0.34051514,-1.796875,-0.28125,0.4375
2,1695773429916,-0.16357422,-0.94366455,0.32684326,-1.953125,-0.84375,0.328125
3,1695773429946,-0.16894531,-0.9446411,0.3348999,-2.671875,-1.34375,-2.28125
4,1695773429991,-0.1796875,-0.9507446,0.35028076,-0.625,-1.203125,-1.421875
5,1695773430021,-0.16674805,-0.9570923,0.33636475,-3.3125,-0.4375,-0.796875
6,1695773430066,-0.16967773,-0.9536743,0.32977295,-0.484375,0.34375,0.609375
7,1695773430111,-0.17797852,-0.95635986,0.33880615,-0.90625,-0.25,0.40625
8,1695773430141,-0.17504883,-0.9483032,0.338562,-1.796875,-0.671875,-1.8125
9,1695773430186,-0.17236328,-0.9612427,0.34417725,-3.09375,0.1875,-1.6875
10,1695773430231,-0.18188477,-0.95806885,0.3451538,-1.546875,-0.703125,-0.890625
11,1695773430261,-0.19018555,-0.94244385,0.34954834,-1.84375,1.109375,-0.6875
12,1695773430306,-0.18261719,-0.9475708,0.34906006,-3.0,-0.78125,-0.515625
13,1695773430335,-0.17211914,-0.9505005,0.35687256,-3.84375,-0.53125,-0.6875
14,1695773430381,-0.17602539,-0.9475708,0.3619995,-1.625,-0.921875,-0.09375
15,1695773430427,-0.16552734,-0.9507446,0.37322998,-0.296875,-1.53125,0.71875
16,1695773430458,-0.19580078,-0.9451294,0.35101318,-2.171875,-0.953125,1.109375
17,1695773430502,-0.2084961,-0.9168091,0.38031006,-2.84375,-0.09375,-0.171875
18,1695773430549,-0.19042969,-0.94732666,0.35882568,-2.875,0.3125,-1.125
19,1695773430579,-0.17895508,-0.94488525,0.37542725,-3.046875,1.0625,-1.25
20,1695773430622,-0.1665039,-0.9451294,0.3583374,-1.640625,1.40625,-1.03125
21,1695773430654,-0.1694336,-0.9417114,0.3768921,-0.578125,0.40625,-0.578125
22,1695773430698,-0.19165039,-0.9273071,0.36663818,-2.515625,-1.0625,-2.171875
23,1695773430744,-0.19140625,-0.9483032,0.37078857,-1.40625,0.09375,-1.296875
24,1695773430775,-0.18139648,-0.93756104,0.37054443,-1.859375,-0.03125,-0.546875
25,1695773430820,-0.18041992,-0.94195557,0.36273193,-1.828125,-0.265625,-1.015625
26,1695773430868,-0.17529297,-0.9368286,0.36468506,-0.234375,0.796875,-0.984375
27,1695773430893,-0.17529297,-0.94000244,0.36761475,-0.75,-0.640625,-0.984375
28,1695773430940,-0.18432617,-0.9524536,0.3727417,-0.640625,-0.703125,0.03125
29,1695773430970,-0.18798828,-0.93829346,0.38641357,-0.703125,-0.09375,0.71875
30,1695773431015,-0.18579102,-0.94488525,0.3793335,-0.921875,-0.734375,0.0625
31,1695773431059,-0.19750977,-0.92071533,0.3788452,-1.875,-1.546875,-0.90625
32,1695773431096,-0.19702148,-0.942688,0.38934326,-1.578125,-0.890625,-1.046875
33,1695773431132,-0.18383789,-0.9475708,0.36810303,-0.046875,-0.8125,0.421875
34,1695773431181,-0.17382812,-0.9404907,0.3637085,-1.109375,-1.09375,0.578125
35,1695773431210,-0.18798828,-0.94317627,0.3847046,-0.171875,0.140625,0.8125
36,1695773431255,-0.19921875,-0.93292236,0.3842163,0.765625,-0.140625,0.75
37,1695773431285,-0.1940918,-0.9378052,0.3764038,-0.8125,-0.515625,-1.34375
38,1695773431332,-0.18823242,-0.93585205,0.38153076,-1.265625,-0.625,-0.9375
39,1695773431376,-0.1965332,-0.94122314,0.38275146,-2.0,-0.515625,0.046875
40,1695773431404,-0.18115234,-0.92974854,0.36834717,-0.203125,-0.09375,-0.25
41,1695773431451,-0.18847656,-0.9351196,0.38201904,0.09375,-0.546875,0.671875
42,1695773431498,-0.17871094,-0.9480591,0.36883545,-1.1875,-2.15625,-0.453125
43,1695773431525,-0.21069336,-0.92144775,0.37835693,-2.34375,-0.28125,-0.546875
44,1695773431569,-0.19311523,-0.94244385,0.38079834,0.078125,-0.390625,-0.921875
45,1695773431600,-0.19213867,-0.9307251,0.37957764,-2.03125,-0.796875,-1.203125
46,1695773431646,-0.17797852,-0.9368286,0.37445068,-0.6875,0.09375,0.125
47,1695773431695,-0.18359375,-0.9573364,0.38079834,-0.15625,-1.8125,0.65625
48,1695773431716,-0.19702148,-0.9302368,0.37713623,-0.6875,0.15625,0.0
49,1695773431764,-0.19897461,-0.9336548,0.355896,-1.765625,0.21875,-1.34375
50,1695773431810,-0.18847656,-0.942688,0.38079834,0.15625,0.96875,-0.203125
51,1695773431837,-0.18554688,-0.9470825,0.36956787,-0.53125,0.125,0.140625
52,1695773431887,-0.18408203,-0.9385376,0.3624878,-1.21875,0.40625,-0.71875
53,1695773431916,-0.18725586,-0.9417114,0.37078857,0.578125,1.40625,-0.140625
54,1695773431964,-0.19799805,-0.92852783,0.37664795,-0.5,0.421875,-0.515625
55,1695773432001,-0.19213867,-0.9414673,0.37860107,-1.8125,1.015625,-1.890625
56,1695773432034,-0.16870117,-0.9492798,0.36712646,0.5625,1.421875,-0.4375
57,1695773432079,-0.19628906,-0.9241333,0.369812,-2.578125,-0.140625,-0.140625
58,1695773432123,-0.19433594,-0.94073486,0.37713623,-1.046875,1.140625,-1.46875
59,1695773432155,-0.19726562,-0.9373169,0.38763428,-1.4375,0.03125,-0.703125
60,1695773432202,-0.1965332,-0.92926025,0.37054443,-2.328125,0.953125,-1.203125
61,1695773432234,-0.18139648,-0.9378052,0.38079834,-0.703125,0.328125,-0.890625
62,1695773432272,-0.18066406,-0.93756104,0.37786865,-1.453125,-1.0625,-0.453125
63,1695773432317,-0.19335938,-0.9351196,0.38250732,-1.5625,-0.90625,-0.046875
64,1695773432348,-0.1899414,-0.9390259,0.38616943,-0.84375,0.4375,-0.015625
65,1695773432394,-0.19262695,-0.9314575,0.38323975,-1.3125,-0.75,-0.65625
66,1695773432438,-0.19238281,-0.93096924,0.38446045,-1.5,-1.125,-0.328125
67,1695773432471,-0.19311523,-0.9417114,0.38861084,-1.375,-1.015625,1.015625
68,1695773432515,-0.1965332,-0.9319458,0.37738037,-1.625,-0.5,0.03125
69,1695773432541,-0.19580078,-0.94781494,0.3834839,-0.625,-0.203125,-0.46875
70,1695773432586,-0.1965332,-0.92437744,0.3944702,-1.78125,0.265625,-0.203125
71,1695773432633,-0.18798828,-0.93707275,0.37249756,-2.125,-1.03125,-2.4375
72,1695773432662,-0.19873047,-0.9295044,0.39105225,-1.453125,-0.15625,-1.03125
73,1695773432708,-0.20654297,-0.93292236,0.38787842,-1.3125,0.1875,1.03125
74,1695773432751,-0.1953125,-0.9199829,0.39935303,-0.03125,0.171875,0.109375
75,1695773432783,-0.2121582,-0.9360962,0.39300537,-2.28125,0.015625,-0.8125
76,1695773432828,-0.20458984,-0.9260864,0.39398193,-0.125,0.53125,-0.078125
77,1695773432858,-0.18579102,-0.92633057,0.39154053,-1.40625,0.71875,-0.859375
78,1695773432902,-0.1875,-0.9356079,0.3961792,0.40625,-0.84375,-0.0625
79,1695773432950,-0.19970703,-0.93218994,0.39837646,0.03125,-0.328125,0.65625
80,1695773432980,-0.21142578,-0.91973877,0.38787842,0.046875,0.484375,0.515625
81,1695773433023,-0.19995117,-0.9282837,0.38690186,0.125,0.015625,-0.28125
82,1695773433069,-0.19726562,-0.92803955,0.3986206,0.21875,1.015625,-0.21875
83,1695773433099,-0.18798828,-0.94073486,0.3883667,-0.5,1.21875,-0.671875
84,1695773433146,-0.19677734,-0.928772,0.3912964,-0.703125,-0.84375,-0.578125
85,1695773433176,-0.19482422,-0.94659424,0.37860107,-1.5,0.015625,-1.84375
86,1695773433220,-0.19042969,-0.9524536,0.37908936,0.703125,0.3125,0.078125
87,1695773433264,-0.19311523,-0.91656494,0.38446045,-0.375,0.90625,0.328125
88,1695773433294,-0.20458984,-0.93341064,0.38909912,0.296875,1.78125,-0.703125
89,1695773433339,-0.21972656,-0.925354,0.39520264,1.046875,1.296875,1.375
90,1695773433369,-0.18774414,-0.93292236,0.37078857,-0.828125,1.859375,-2.359375
91,1695773433415,-0.19433594,-0.9446411,0.39569092,0.515625,0.046875,-1.65625
92,1695773433459,-0.19897461,-0.93585205,0.38494873,-0.265625,1.0,-0.375
93,1695773433491,-0.19921875,-0.93756104,0.3739624,-0.125,0.796875,-1.5625
94,1695773433534,-0.19970703,-0.9348755,0.37054443,-0.640625,-0.328125,-0.875
95,1695773433578,-0.19067383,-0.9439087,0.3829956,0.015625,1.40625,-0.234375
96,1695773433611,-0.20141602,-0.92315674,0.37200928,-1.046875,0.734375,-0.34375
97,1695773433654,-0.21118164,-0.9326782,0.38104248,-1.0,0.421875,-0.5625
98,1695773433685,-0.19873047,-0.9495239,0.3842163,-0.359375,2.46875,-0.109375
99,1695773433729,-0.17236328,-0.94854736,0.38616943,-6.390625,-5.78125,-0.171875
100,1695773433772,-0.20800781,-0.9175415,0.3932495,0.4375,-0.84375,-0.21875
101,1695773433804,-0.23291016,-0.9175415,0.3866577,2.21875,1.109375,1.671875
102,1695773433850,-0.2055664,-0.9138794,0.37420654,2.1875,2.859375,-1.28125
103,1695773433894,-0.19360352,-0.9500122,0.38494873,0.734375,0.46875,-2.5
104,1695773433922,-0.18261719,-0.9343872,0.37957764,-0.109375,0.671875,-1.625
105,1695773433968,-0.20532227,-0.9348755,0.3678589,0.46875,-0.125,-0.484375
106,1695773434009,-0.20751953,-0.9241333,0.3788452,1.40625,0.40625,0.234375
107,1695773434044,-0.20092773,-0.93170166,0.36395264,-0.75,-0.9375,-1.140625
108,1695773434087,-0.2055664,-0.95440674,0.36663818,-0.671875,0.515625,-1.09375
109,1695773434117,-0.20776367,-0.9224243,0.3751831,0.984375,1.3125,0.546875
110,1695773434162,-0.20703125,-0.9463501,0.37322998,-0.9375,0.734375,-0.265625
111,1695773434208,-0.20483398,-0.9295044,0.3817749,-1.171875,-0.1875,0.125
112,1695773434240,-0.19335938,-0.9483032,0.36346436,-0.890625,-0.203125,-0.75
113,1695773434286,-0.20019531,-0.94244385,0.3756714,-1.78125,-0.1875,-0.109375
114,1695773434314,-0.2043457,-0.9260864,0.37713623,-0.625,0.265625,-0.09375
115,1695773434362,-0.20410156,-0.93878174,0.3710327,-1.65625,0.1875,-1.4375
116,1695773434405,-0.21533203,-0.9299927,0.37982178,-1.515625,-0.015625,0.359375
117,1695773434434,-0.19873047,-0.9209595,0.37713623,-2.0625,1.0625,-0.53125
118,1695773434481,-0.20483398,-0.9480591,0.3781128,-2.046875,-0.484375,-0.5
119,1695773434531,-0.21435547,-0.92559814,0.3817749,-1.578125,0.328125,-0.21875
120,1695773434552,-0.18603516,-0.9495239,0.37591553,-2.53125,-0.03125,-1.5625
121,1695773434597,-0.20532227,-0.95269775,0.3932495,-0.234375,-0.34375,1.375
122,1695773434627,-0.20751953,-0.9006958,0.3685913,-2.796875,-0.203125,-0.46875
123,1695773434675,-0.21557617,-0.9483032,0.3847046,-1.5,0.328125,-1.875
124,1695773434718,-0.20800781,-0.9260864,0.39300537,-1.65625,0.03125,-0.53125
125,1695773434747,-0.19726562,-0.9319458,0.38494873,-2.03125,-0.78125,-0.28125
126,1695773434794,-0.2175293,-0.9378052,0.39691162,-1.25,-0.375,0.515625
127,1695773434838,-0.21264648,-0.92633057,0.3949585,-1.59375,0.65625,-0.578125
128,1695773434868,-0.21289062,-0.9260864,0.39007568,-2.015625,0.46875,-1.375
129,1695773434919,-0.20166016,-0.93414307,0.3937378,-2.09375,0.109375,-1.203125
130,1695773434945,-0.18920898,-0.9204712,0.3895874,-1.78125,0.328125,-1.28125
131,1695773434988,-0.21801758,-0.9326782,0.402771,-0.203125,-0.125,0.0625
132,1695773435034,-0.22045898,-0.928772,0.4039917,-1.375,-0.109375,-1.03125
133,1695773435066,-0.2241211,-0.9314575,0.40545654,-2.21875,-0.0625,-1.234375
134,1695773435108,-0.21386719,-0.9216919,0.39959717,-1.015625,0.515625,-0.1875
135,1695773435155,-0.21386719,-0.9390259,0.39837646,-0.90625,0.46875,0.265625
136,1695773435184,-0.19482422,-0.92559814,0.3883667,-1.515625,-0.109375,-0.875
137,1695773435229,-0.21191406,-0.92559814,0.4118042,-1.3125,-0.34375,-0.6875
138,1695773435259,-0.21777344,-0.92266846,0.40350342,-0.078125,-0.46875,0.1875
139,1695773435302,-0.20922852,-0.9248657,0.3883667,-0.96875,-0.640625,-1.234375
140,1695773435350,-0.21313477,-0.9373169,0.40374756,0.78125,0.234375,0.125
141,1695773435379,-0.20996094,-0.9155884,0.39422607,0.8125,0.8125,0.78125
142,1695773435426,-0.21386719,-0.92633057,0.39154053,-0.6875,-0.078125,-0.671875
143,1695773435468,-0.21972656,-0.92681885,0.40057373,0.71875,0.265625,-0.0625
144,1695773435500,-0.20703125,-0.92266846,0.39398193,-0.9375,0.5,-1.03125
145,1695773435545,-0.22045898,-0.92388916,0.39593506,-2.125,0.203125,-1.328125
146,1695773435574,-0.2163086,-0.9258423,0.40203857,0.140625,0.65625,-0.265625
147,1695773435626,-0.21875,-0.9216919,0.39642334,-0.984375,-0.140625,-0.640625
148,1695773435665,-0.2121582,-0.9360962,0.39422607,-0.125,0.796875,-0.46875
149,1695773435695,-0.21044922,-0.91778564,0.38616943,-0.359375,0.453125,-0.28125
150,1695773435738,-0.22143555,-0.9209595,0.4052124,0.5625,0.078125,-0.765625
151,1695773435784,-0.22387695,-0.9336548,0.39178467,-0.890625,-0.015625,-1.09375
152,1695773435813,-0.21362305,-0.925354,0.39276123,0.40625,0.359375,-0.546875
153,1695773435858,-0.20751953,-0.9312134,0.39178467,1.515625,0.90625,1.265625
154,1695773435892,-0.20922852,-0.90948486,0.38568115,0.65625,-0.59375,1.703125
155,1695773435938,-0.22436523,-0.94366455,0.37982178,0.09375,0.234375,-0.546875
156,1695773435985,-0.21948242,-0.91973877,0.38226318,-1.171875,0.59375,-0.3125
157,1695773436010,-0.20947266,-0.93756104,0.39691162,-0.09375,0.234375,-0.796875
158,1695773436056,-0.2211914,-0.9216919,0.39349365,0.03125,-0.625,-0.171875
159,1695773436102,-0.21655273,-0.9295044,0.39544678,0.203125,0.78125,0.203125
160,1695773436127,-0.21606445,-0.9348755,0.36810303,-1.390625,0.21875,-0.390625
161,1695773436173,-0.21166992,-0.9380493,0.40496826,-0.203125,1.03125,-0.515625
162,1695773436204,-0.21386719,-0.93536377,0.37982178,-0.515625,0.328125,-0.171875
163,1695773436250,-0.21508789,-0.9356079,0.37786865,-1.09375,0.78125,-0.234375
164,1695773436294,-0.20922852,-0.9248657,0.387146,-0.34375,0.375,0.90625
165,1695773436323,-0.20361328,-0.92803955,0.3834839,-0.125,-0.015625,-1.375
166,1695773436372,-0.21801758,-0.9446411,0.38763428,1.21875,0.9375,0.6875
167,1695773436414,-0.20898438,-0.91412354,0.38568115,0.484375,0.0,1.5
168,1695773436445,-0.21948242,-0.93463135,0.3710327,-0.6875,-0.75,-0.828125
169,1695773436489,-0.21875,-0.923645,0.3883667,0.1875,-0.171875,-0.265625
170,1695773436519,-0.2109375,-0.9463501,0.37835693,-0.0625,0.59375,0.328125
171,1695773436569,-0.20458984,-0.93463135,0.38153076,0.78125,1.03125,0.953125
172,1695773436608,-0.20532227,-0.9365845,0.38323975,0.296875,-0.90625,0.640625
173,1695773436639,-0.20800781,-0.91290283,0.3727417,1.046875,0.484375,-0.546875
174,1695773436683,-0.19604492,-0.9546509,0.37493896,0.578125,1.234375,-0.25
175,1695773436731,-0.20800781,-0.9133911,0.37054443,0.71875,-0.71875,1.484375
176,1695773436759,-0.19482422,-0.9612427,0.3690796,-0.9375,1.296875,0.140625
177,1695773436804,-0.20605469,-0.9209595,0.3739624,1.421875,-1.640625,1.125
178,1695773436834,-0.21240234,-0.93096924,0.37835693,-0.46875,1.40625,-0.0625
179,1695773436879,-0.21704102,-0.9380493,0.36688232,1.890625,0.875,1.375
180,1695773436926,-0.19189453,-0.93292236,0.3649292,-2.15625,-0.0625,-0.890625
181,1695773436953,-0.20581055,-0.96051025,0.371521,-1.609375,-0.1875,-0.078125
182,1695773436998,-0.19824219,-0.913147,0.35906982,-0.546875,-0.59375,-0.09375
183,1695773437043,-0.19580078,-0.9690552,0.3776245,-1.59375,-0.203125,0.875
184,1695773437077,-0.20874023,-0.9348755,0.3768921,-0.625,0.03125,1.4375
185,1695773437119,-0.18041992,-0.9380493,0.35882568,-1.484375,-0.890625,-1.078125
186,1695773437148,-0.20458984,-0.9439087,0.37420654,-2.21875,-0.734375,0.09375
187,1695773437192,-0.19726562,-0.91729736,0.36444092,1.609375,0.46875,0.203125
188,1695773437238,-0.20117188,-0.9414673,0.3649292,-2.078125,0.171875,-0.984375
189,1695773437269,-0.20629883,-0.94073486,0.38885498,0.3125,-0.609375,-0.65625
190,1695773437316,-0.21044922,-0.92266846,0.3764038,-1.515625,-0.34375,-2.078125
191,1695773437360,-0.19189453,-0.9385376,0.35809326,0.421875,0.78125,-2.09375
192,1695773437389,-0.1899414,-0.95928955,0.3768921,0.0,-0.046875,0.3125
193,1695773437435,-0.21728516,-0.93878174,0.37054443,-1.84375,-1.640625,-1.390625
194,1695773437466,-0.21142578,-0.95098877,0.37542725,-1.328125,-0.203125,-1.046875
195,1695773437508,-0.20874023,-0.923645,0.37322998,0.203125,0.859375,0.125
196,1695773437555,-0.20336914,-0.92388916,0.35931396,-1.4375,0.3125,-1.21875
197,1695773437587,-0.19140625,-0.9360962,0.37225342,-0.640625,-0.796875,-1.515625
198,1695773437630,-0.20898438,-0.9365845,0.38690186,0.859375,1.28125,0.703125
199,1695773437658,-0.21191406,-0.9385376,0.35321045,-0.90625,-0.390625,0.359375
200,1695773437704,-0.22753906,-0.93829346,0.37225342,-0.171875,-0.296875,-0.625
201,1695773437746,-0.19921875,-0.93707275,0.3685913,0.078125,0.921875,-0.65625
202,1695773437784,-0.20410156,-0.94073486,0.37176514,0.71875,0.59375,0.625
203,1695773437826,-0.20898438,-0.9343872,0.36566162,-0.96875,0.5,-1.609375
204,1695773437869,-0.21875,-0.9522095,0.36444092,-0.703125,0.421875,-2.0625
205,1695773437898,-0.21411133,-0.93414307,0.3685913,0.90625,1.359375,0.8125
206,1695773437943,-0.22290039,-0.9273071,0.3607788,-0.921875,0.859375,-0.09375
207,1695773437977,-0.21166992,-0.9390259,0.3632202,0.515625,0.96875,-0.015625
208,1695773438019,-0.20019531,-0.9368286,0.36297607,-0.625,1.53125,-0.765625
209,1695773438063,-0.21411133,-0.9385376,0.3583374,-2.375,0.34375,-1.515625
210,1695773438097,-0.21777344,-0.9404907,0.3751831,-0.265625,0.40625,-0.21875
211,1695773438139,-0.20458984,-0.940979,0.37078857,-1.640625,-0.15625,-0.75
212,1695773438185,-0.20947266,-0.9314575,0.3727417,-1.6875,-1.140625,-0.34375
213,1695773438214,-0.22021484,-0.9402466,0.36224365,-1.15625,-0.046875,0.46875
214,1695773438260,-0.23535156,-0.9265747,0.3710327,-0.265625,0.375,0.90625
215,1695773438293,-0.21606445,-0.93878174,0.37469482,0.15625,1.953125,-1.234375
216,1695773438335,-0.19262695,-0.93707275,0.3661499,-0.265625,0.828125,-1.453125
217,1695773438382,-0.20019531,-0.93829346,0.3534546,0.0,-0.484375,-1.5
218,1695773438409,-0.22021484,-0.9512329,0.36810303,-0.265625,-1.03125,-0.21875
219,1695773438455,-0.22216797,-0.93292236,0.36517334,0.140625,-0.296875,-0.515625
220,1695773438499,-0.23095703,-0.942688,0.36883545,-0.390625,1.140625,0.375
221,1695773438530,-0.22290039,-0.9295044,0.36688232,-1.109375,1.28125,0.515625
222,1695773438577,-0.20629883,-0.9402466,0.36029053,-0.109375,1.34375,-0.453125
223,1695773438604,-0.20019531,-0.95147705,0.36053467,-1.4375,1.34375,-0.03125
224,1695773438654,-0.19262695,-0.91656494,0.36932373,-0.9375,-0.4375,-0.28125
225,1695773438692,-0.2109375,-0.9397583,0.36346436,-2.375,-0.09375,-1.421875
226,1695773438724,-0.21582031,-0.9402466,0.3637085,-0.796875,-0.09375,0.265625
227,1695773438770,-0.21411133,-0.9338989,0.36883545,-4.046875,-3.1875,-0.984375
228,1695773438812,-0.2241211,-0.9368286,0.3793335,-1.203125,-0.484375,-0.0625
229,1695773438841,-0.2277832,-0.92193604,0.37371826,-0.484375,1.9375,0.53125
230,1695773438886,-0.21313477,-0.93341064,0.3678589,1.125,2.25,0.4375
231,1695773438917,-0.19311523,-0.9312134,0.37445068,-0.640625,1.109375,-1.828125
232,1695773438964,-0.20385742,-0.95196533,0.37835693,-1.75,-1.3125,-2.359375
233,1695773439013,-0.2290039,-0.9414673,0.38226318,0.109375,0.234375,1.0
234,1695773439038,-0.22290039,-0.9182739,0.3678589,0.015625,0.921875,1.1875
235,1695773439084,-0.2211914,-0.9365845,0.37371826,-1.375,0.28125,-1.296875
236,1695773439128,-0.21459961,-0.9360962,0.37908936,-1.28125,1.234375,-1.5625
237,1695773439158,-0.19116211,-0.9356079,0.37054443,-1.578125,0.015625,-1.546875
238,1695773439205,-0.21191406,-0.9365845,0.38275146,-0.84375,-1.359375,0.390625
239,1695773439233,-0.23999023,-0.9246216,0.371521,-0.65625,0.28125,0.796875
240,1695773439278,-0.22265625,-0.927063,0.37200928,0.46875,1.8125,-0.046875
241,1695773439327,-0.21484375,-0.9290161,0.38079834,-0.59375,1.21875,-1.375
242,1695773439354,-0.19946289,-0.93634033,0.37127686,-2.234375,0.125,-2.65625
243,1695773439401,-0.2133789,-0.92974854,0.37664795,-0.015625,-0.28125,-0.5
244,1695773439444,-0.22705078,-0.9324341,0.38006592,-0.53125,-0.40625,0.796875
245,1695773439477,-0.2290039,-0.9314575,0.3710327,-0.4375,1.28125,0.515625
246,1695773439521,-0.2211914,-0.93927,0.3793335,0.234375,1.640625,0.625
247,1695773439548,-0.20214844,-0.92681885,0.37908936,-0.265625,0.6875,-0.78125
248,1695773439594,-0.21484375,-0.93585205,0.3678589,-1.109375,0.265625,-1.640625
249,1695773439645,-0.21826172,-0.9314575,0.3727417,1.203125,0.578125,-0.09375
250,1695773439666,-0.21459961,-0.93170166,0.3690796,0.40625,0.578125,-0.203125
251,1695773439714,-0.22021484,-0.9258423,0.37469482,0.015625,-0.28125,-0.75
252,1695773439757,-0.21435547,-0.9380493,0.38323975,1.078125,0.390625,0.640625
253,1695773439788,-0.21289062,-0.9380493,0.35931396,-1.140625,-0.4375,-0.40625
254,1695773439834,-0.20898438,-0.93096924,0.3673706,0.46875,0.3125,0.53125
255,1695773439864,-0.21704102,-0.9348755,0.36761475,0.8125,0.234375,0.984375
256,1695773439908,-0.22875977,-0.93927,0.36932373,-0.03125,0.21875,1.078125
257,1695773439951,-0.21948242,-0.925354,0.35662842,-1.390625,0.5625,-1.6875
258,1695773439983,-0.1953125,-0.9492798,0.36468506,-0.828125,-0.171875,-2.46875
259,1695773440028,-0.2133789,-0.9487915,0.3756714,-0.1875,-0.84375,0.0
260,1695773440075,-0.21777344,-0.93634033,0.34954834,-1.34375,-1.0625,-0.609375
261,1695773440103,-0.234375,-0.9402466,0.36810303,0.5,-0.015625,0.75
262,1695773440150,-0.21923828,-0.9229126,0.3632202,0.625,0.5625,0.203125
263,1695773440178,-0.21508789,-0.9546509,0.371521,-0.671875,0.078125,-0.484375
264,1695773440224,-0.21850586,-0.93048096,0.35858154,-1.828125,-1.359375,-0.046875
265,1695773440268,-0.21508789,-0.9451294,0.36297607,1.09375,0.625,-0.6875
266,1695773440300,-0.21728516,-0.94415283,0.35125732,0.28125,0.03125,0.53125
267,1695773440343,-0.21508789,-0.9209595,0.3475952,0.9375,0.0625,-0.140625
268,1695773440421,-0.21484375,-0.9517212,0.36663818,2.8125,1.390625,0.359375
269,1695773440425,-0.22827148,-0.9290161,0.34539795,0.34375,1.0625,0.890625
270,1695773440463,-0.22827148,-0.9324341,0.35614014,2.703125,2.546875,-0.796875
271,1695773440493,-0.20629883,-0.9505005,0.3534546,1.21875,1.734375,0.765625
272,1695773440541,-0.20825195,-0.9351196,0.34051514,2.078125,1.515625,-0.453125
273,1695773440585,-0.19335938,-0.9680786,0.33636475,2.046875,2.71875,-0.140625
274,1695773440612,-0.2133789,-0.9336548,0.33709717,3.3125,3.234375,1.15625
275,1695773440660,-0.22192383,-0.94317627,0.33929443,2.671875,3.734375,0.171875
276,1695773440703,-0.20678711,-0.96051025,0.3258667,3.5625,3.359375,-0.3125
277,1695773440739,-0.20629883,-0.960022,0.3348999,3.53125,4.875,0.453125
278,1695773440778,-0.19042969,-0.95196533,0.31488037,1.9375,3.421875,0.65625
279,1695773440854,-0.19946289,-0.9590454,0.3156128,2.78125,1.5,0.25
280,1695773440859,-0.19750977,-0.95562744,0.3085327,1.40625,0.515625,0.265625
281,1695773440902,-0.19458008,-0.9512329,0.31732178,2.984375,2.03125,-0.1875
282,1695773440929,-0.20336914,-0.9595337,0.31463623,3.40625,0.5625,2.015625
283,1695773440975,-0.20751953,-0.9534302,0.29437256,0.859375,1.296875,0.578125
284,1695773441050,-0.19238281,-0.96759033,0.29656982,0.8125,0.46875,0.421875
285,1695773441053,-0.18652344,-0.96759033,0.29901123,-0.890625,-0.234375,-1.0
286,1695773441098,-0.18847656,-0.9595337,0.30633545,-0.015625,0.0,0.265625
287,1695773441123,-0.20654297,-0.9402466,0.29730225,1.0625,0.984375,0.890625
288,1695773441167,-0.18334961,-0.9429321,0.3048706,0.234375,0.46875,-0.578125
289,1695773441217,-0.18920898,-0.956604,0.29437256,-3.4375,-2.703125,-1.15625
290,1695773441244,-0.20532227,-0.96343994,0.29852295,-2.625,-0.8125,-1.234375
291,1695773441288,-0.17822266,-0.97076416,0.31732178,0.9375,1.5625,0.671875
292,1695773441332,-0.1928711,-0.9595337,0.29364014,-0.984375,-1.40625,0.5
293,1695773441363,-0.19213867,-0.95758057,0.29803467,0.421875,-1.140625,0.15625
294,1695773441409,-0.19702148,-0.95562744,0.3078003,-1.453125,-1.390625,0.703125
295,1695773441439,-0.18945312,-0.9651489,0.29779053,-1.015625,-0.546875,0.828125
296,1695773441485,-0.17797852,-0.9534302,0.28533936,-2.390625,-2.09375,-0.25
297,1695773441530,-0.19189453,-0.9690552,0.30584717,-1.765625,-0.84375,0.203125
298,1695773441560,-0.18652344,-0.9458618,0.3060913,-1.734375,-1.453125,0.359375
299,1695773441606,-0.19067383,-0.9644165,0.29510498,-1.578125,-1.859375,-0.125
300,1695773441648,-0.19970703,-0.9602661,0.30340576,-1.375,-0.4375,0.765625
301,1695773441685,-0.19848633,-0.9402466,0.2994995,-0.46875,-0.171875,0.125
302,1695773441726,-0.19042969,-0.9788208,0.31610107,-0.296875,0.96875,-0.15625
303,1695773441754,-0.18774414,-0.95196533,0.3007202,-0.765625,-0.421875,0.359375
304,1695773441797,-0.17626953,-0.95806885,0.29486084,-1.609375,-0.78125,-1.546875
305,1695773441843,-0.18408203,-0.95684814,0.3151245,-0.5625,0.625,-0.796875
306,1695773441877,-0.1965332,-0.95562744,0.30682373,0.28125,-0.046875,0.34375
307,1695773441918,-0.19702148,-0.9561157,0.30316162,-0.828125,-0.375,0.0625
308,1695773441947,-0.1887207,-0.95391846,0.30145264,-0.453125,0.3125,-0.984375
309,1695773441993,-0.1784668,-0.9487915,0.28582764,-1.5625,-1.046875,-0.46875
310,1695773442041,-0.18676758,-0.97003174,0.30096436,-0.234375,-0.53125,-0.796875
311,1695773442070,-0.18701172,-0.95196533,0.3085327,-1.46875,-0.90625,0.046875
312,1695773442115,-0.21142578,-0.95635986,0.2958374,-2.484375,-1.9375,-0.375
313,1695773442162,-0.1862793,-0.956604,0.3192749,-0.875,-0.265625,-0.046875
314,1695773442189,-0.18603516,-0.958313,0.291687,-4.1875,-1.78125,-1.90625
315,1695773442237,-0.20361328,-0.9570923,0.3139038,-1.578125,-1.78125,-0.4375
316,1695773442264,-0.19799805,-0.9517212,0.33465576,-0.9375,0.171875,-0.390625
317,1695773442310,-0.20263672,-0.9570923,0.29803467,-3.0625,-2.65625,-0.5
318,1695773442353,-0.20825195,-0.9451294,0.32806396,-0.71875,-0.703125,0.765625
319,1695773442382,-0.19995117,-0.9505005,0.31097412,-2.28125,0.28125,-0.71875
320,1695773442429,-0.20678711,-0.9483032,0.31536865,-2.65625,-0.46875,-0.953125
321,1695773442476,-0.19458008,-0.95928955,0.322937,-1.015625,1.65625,-0.96875
322,1695773442503,-0.1887207,-0.954895,0.309021,1.546875,1.890625,-0.3125
323,1695773442549,-0.2055664,-0.9585571,0.31781006,-0.203125,0.046875,0.796875
324,1695773442580,-0.21020508,-0.9439087,0.31951904,-0.28125,1.34375,-0.90625
325,1695773442624,-0.18725586,-0.9649048,0.32489014,0.796875,1.765625,0.421875
326,1695773442670,-0.18603516,-0.94366455,0.3036499,-1.953125,-0.078125,-0.375
327,1695773442697,-0.18701172,-0.9487915,0.31732178,-2.015625,0.21875,-0.640625
328,1695773442742,-0.19702148,-0.94976807,0.32269287,-1.578125,0.5,-0.703125
329,1695773442789,-0.20898438,-0.9656372,0.31951904,-2.1875,0.40625,0.65625
330,1695773442819,-0.20288086,-0.940979,0.3114624,-2.84375,0.71875,-1.609375
331,1695773442861,-0.19091797,-0.9663696,0.3270874,-1.296875,0.53125,-1.9375
332,1695773442892,-0.19726562,-0.93170166,0.33392334,-1.71875,-0.71875,-0.015625
333,1695773442942,-0.1953125,-0.9500122,0.31976318,-1.3125,-1.015625,-0.21875
334,1695773442986,-0.20898438,-0.9553833,0.3151245,-3.203125,-0.8125,-0.84375
335,1695773443012,-0.21875,-0.9307251,0.33026123,-1.859375,-0.125,0.78125
336,1695773443059,-0.18701172,-0.9522095,0.3283081,-2.5,0.71875,-2.265625
337,1695773443106,-0.19482422,-0.96173096,0.3348999,-1.03125,-0.015625,-0.640625
338,1695773443137,-0.21362305,-0.94537354,0.33587646,-1.515625,0.15625,1.4375
339,1695773443181,-0.20654297,-0.9365845,0.32489014,-1.953125,0.5625,-0.796875
340,1695773443212,-0.20776367,-0.9385376,0.34344482,-0.875,0.6875,-1.21875
341,1695773443256,-0.20092773,-0.9456177,0.3390503,-2.25,-0.953125,-0.9375
342,1695773443303,-0.20092773,-0.9404907,0.3427124,-1.265625,0.578125,-1.15625
343,1695773443331,-0.20117188,-0.95391846,0.3439331,-0.90625,-1.03125,-0.421875
344,1695773443377,-0.22094727,-0.9385376,0.34344482,-1.78125,-0.546875,0.234375
345,1695773443418,-0.21166992,-0.9390259,0.3319702,-1.28125,0.875,-0.921875
346,1695773443450,-0.1953125,-0.9680786,0.34490967,-1.578125,0.359375,-1.75
347,1695773443494,-0.20483398,-0.9260864,0.3475952,-1.03125,-0.015625,-0.15625
348,1695773443526,-0.19848633,-0.9500122,0.338562,-0.46875,0.25,-0.71875
349,1695773443569,-0.21972656,-0.9434204,0.3463745,-1.359375,-0.34375,-0.796875
350,1695773443612,-0.21923828,-0.93927,0.340271,-3.078125,0.203125,-1.0
351,1695773443643,-0.20532227,-0.9480591,0.35662842,-0.828125,0.703125,-0.53125
352,1695773443689,-0.20922852,-0.9365845,0.35076904,-0.421875,0.890625,0.46875
353,1695773443734,-0.20776367,-0.9338989,0.34588623,-1.390625,0.8125,-0.984375
354,1695773443764,-0.21240234,-0.9378052,0.3529663,-1.03125,0.109375,-0.78125
355,1695773443815,-0.2109375,-0.9470825,0.36419678,0.671875,0.515625,0.3125
356,1695773443841,-0.2006836,-0.9421997,0.34613037,-2.28125,0.125,-0.328125
357,1695773443888,-0.21557617,-0.9446411,0.3607788,-0.015625,1.046875,0.375
358,1695773443931,-0.20629883,-0.9368286,0.34783936,-0.171875,-0.28125,-0.203125
359,1695773443961,-0.20751953,-0.95025635,0.34954834,-1.734375,-0.359375,-1.125
360,1695773444005,-0.2084961,-0.93048096,0.35565186,-0.03125,0.609375,0.734375
361,1695773444047,-0.21972656,-0.93756104,0.35003662,-1.34375,0.703125,0.875
362,1695773444083,-0.20678711,-0.92926025,0.3571167,-1.421875,-0.234375,-0.765625
363,1695773444127,-0.22045898,-0.9475708,0.36224365,-0.625,0.6875,-1.359375
364,1695773444153,-0.20117188,-0.9458618,0.35809326,-1.296875,0.6875,-0.546875
365,1695773444201,-0.2109375,-0.9331665,0.3427124,-1.4375,0.28125,-0.078125
366,1695773444246,-0.22167969,-0.9360962,0.36346436,-0.734375,0.78125,-0.46875
367,1695773444275,-0.21508789,-0.93170166,0.3571167,-1.9375,0.671875,-1.8125
368,1695773444319,-0.21948242,-0.9429321,0.3685913,-2.03125,0.875,-1.21875
369,1695773444361,-0.20874023,-0.92755127,0.36053467,-1.4375,0.78125,-0.625
370,1695773444393,-0.20874023,-0.9348755,0.3756714,0.25,0.546875,-0.59375
371,1695773444437,-0.21801758,-0.942688,0.3632202,-0.875,0.0,0.296875
372,1695773444470,-0.2265625,-0.92681885,0.36590576,-0.65625,0.46875,-0.453125
373,1695773444513,-0.2121582,-0.93048096,0.3661499,-1.53125,0.796875,-2.0625
374,1695773444556,-0.21313477,-0.9451294,0.36956787,-0.484375,0.203125,-0.078125
375,1695773444586,-0.21728516,-0.92852783,0.35565186,0.609375,1.5625,0.109375
376,1695773444631,-0.21069336,-0.94415283,0.35125732,-0.765625,0.65625,-1.078125
377,1695773444709,-0.2199707,-0.9378052,0.3612671,0.28125,0.390625,-0.078125
378,1695773444716,-0.22021484,-0.9290161,0.3554077,-0.078125,1.375,-0.875
379,1695773444751,-0.20263672,-0.9468384,0.34417725,-0.65625,-0.171875,-1.640625
380,1695773444782,-0.21801758,-0.9343872,0.35443115,-1.625,-0.53125,-0.921875
381,1695773444828,-0.24023438,-0.92803955,0.36517334,-0.875,0.671875,1.25
382,1695773444874,-0.22827148,-0.9319458,0.36175537,-0.8125,0.859375,-0.59375
383,1695773444905,-0.21362305,-0.9446411,0.3673706,-0.265625,1.078125,-1.796875
384,1695773444948,-0.21044922,-0.94976807,0.354187,-0.78125,0.28125,-0.984375
385,1695773444994,-0.2175293,-0.9331665,0.3554077,-0.828125,-0.234375,0.96875
386,1695773445022,-0.21801758,-0.92071533,0.36151123,-0.65625,0.4375,-0.21875
387,1695773445066,-0.2175293,-0.93756104,0.35272217,-0.5625,1.375,-1.40625
388,1695773445143,-0.22070312,-0.9512329,0.36639404,0.78125,0.734375,1.09375
389,1695773445148,-0.21386719,-0.9246216,0.35369873,-1.90625,0.359375,0.125
390,1695773445188,-0.2175293,-0.9326782,0.34857178,-0.734375,-0.390625,-1.90625
391,1695773445218,-0.20629883,-0.94732666,0.37445068,0.375,-0.125,-0.0625
392,1695773445263,-0.22509766,-0.92144775,0.36590576,-1.078125,-0.78125,0.1875
393,1695773445342,-0.23388672,-0.94317627,0.36590576,0.046875,-0.09375,-0.703125
394,1695773445348,-0.21923828,-0.91851807,0.35565186,0.125,0.5,-0.984375
395,1695773445393,-0.20727539,-0.94000244,0.3571167,-0.703125,-0.28125,-1.6875
396,1695773445416,-0.22094727,-0.9338989,0.35662842,-0.9375,-1.53125,-0.171875
397,1695773445459,-0.2434082,-0.9331665,0.36346436,-0.046875,-0.03125,-0.03125
398,1695773445502,-0.23754883,-0.94488525,0.35638428,-0.703125,-0.015625,-0.75
399,1695773445537,-0.2241211,-0.94122314,0.36663818,-0.84375,0.15625,-0.234375
400,1695773445579,-0.22192383,-0.928772,0.36590576,-1.234375,1.125,-0.265625
401,1695773445626,-0.22045898,-0.9351196,0.36297607,0.625,0.234375,0.671875
402,1695773445656,-0.22021484,-0.9368286,0.36175537,-1.6875,0.078125,-0.75
403,1695773445699,-0.22827148,-0.9390259,0.35736084,-0.875,0.046875,-0.984375
404,1695773445730,-0.21899414,-0.9404907,0.36468506,-0.078125,0.71875,-0.109375
405,1695773445772,-0.22680664,-0.9365845,0.35980225,-0.75,-0.15625,0.078125
406,1695773445817,-0.234375,-0.93756104,0.35516357,-0.859375,0.609375,0.171875
407,1695773445847,-0.22509766,-0.9380493,0.3619995,-0.65625,1.140625,0.53125
408,1695773445892,-0.21582031,-0.93756104,0.35931396,-1.40625,-0.125,-0.3125
409,1695773445940,-0.22680664,-0.9541626,0.35272217,-1.671875,-0.28125,-0.203125
410,1695773445970,-0.21044922,-0.9338989,0.3612671,0.09375,1.203125,0.0
411,1695773446019,-0.20751953,-0.9192505,0.34735107,-1.546875,0.234375,-1.40625
412,1695773446044,-0.21386719,-0.9483032,0.3637085,-0.640625,-0.328125,-1.0625
413,1695773446086,-0.2199707,-0.9417114,0.3649292,-0.296875,0.140625,-0.71875
414,1695773446135,-0.22729492,-0.9365845,0.36273193,-1.203125,0.421875,-0.59375
415,1695773446172,-0.23022461,-0.925354,0.3612671,-1.171875,-0.390625,0.21875
416,1695773446211,-0.2163086,-0.9385376,0.34906006,-0.6875,-0.34375,-0.5
417,1695773446241,-0.20898438,-0.9434204,0.3529663,-0.6875,-0.609375,-0.40625
418,1695773446284,-0.234375,-0.9265747,0.35980225,-0.4375,-0.4375,0.890625
419,1695773446333,-0.24267578,-0.92755127,0.3571167,0.125,0.484375,-0.421875
420,1695773446361,-0.22802734,-0.9439087,0.3632202,-0.25,0.703125,0.0
421,1695773446404,-0.21728516,-0.9246216,0.3554077,-1.15625,0.296875,-1.578125
422,1695773446451,-0.21289062,-0.9463501,0.35491943,-2.046875,-0.8125,-2.1875
423,1695773446481,-0.22045898,-0.93829346,0.3607788,0.375,0.234375,0.453125
424,1695773446525,-0.2290039,-0.92852783,0.3571167,-0.53125,-0.125,0.078125
425,1695773446555,-0.23071289,-0.92926025,0.3649292,-0.390625,0.765625,0.21875
426,1695773446597,-0.22998047,-0.93756104,0.354187,-0.859375,0.46875,0.109375
427,1695773446642,-0.22558594,-0.94000244,0.3595581,-1.90625,0.875,-0.21875
428,1695773446674,-0.23706055,-0.93048096,0.3817749,-0.46875,0.8125,0.5625
429,1695773446719,-0.22631836,-0.9295044,0.35491943,-1.25,0.6875,-0.984375
430,1695773446763,-0.2121582,-0.9480591,0.35687256,-0.640625,0.5625,-0.3125
431,1695773446793,-0.22045898,-0.9326782,0.3632202,0.40625,0.109375,0.5625
432,1695773446838,-0.23071289,-0.9343872,0.3612671,-1.078125,0.125,-0.1875
433,1695773446869,-0.23657227,-0.93878174,0.36029053,-0.859375,0.359375,-0.015625
434,1695773446913,-0.22241211,-0.9302368,0.3583374,-0.53125,0.5,-0.578125
435,1695773446962,-0.21533203,-0.94659424,0.36395264,-0.625,0.296875,-0.65625
436,1695773446988,-0.2133789,-0.93096924,0.35687256,-0.078125,-0.578125,-0.03125
437,1695773447036,-0.23120117,-0.93341064,0.3583374,-0.21875,0.4375,0.421875
438,1695773447078,-0.22998047,-0.93292236,0.36175537,-0.5625,0.453125,-0.53125
439,1695773447109,-0.22485352,-0.9402466,0.3661499,0.65625,-0.15625,0.109375
440,1695773447153,-0.21606445,-0.9421997,0.35565186,0.203125,1.21875,0.03125
441,1695773447181,-0.21533203,-0.9385376,0.35858154,0.34375,0.34375,0.421875
442,1695773447226,-0.2290039,-0.944397,0.3637085,0.0,-0.40625,0.734375
443,1695773447271,-0.22827148,-0.92315674,0.36102295,-0.4375,-0.21875,-0.140625
444,1695773447301,-0.21777344,-0.94854736,0.35614014,-0.578125,0.34375,-1.078125
445,1695773447346,-0.21459961,-0.93414307,0.3649292,-0.296875,0.671875,0.3125
446,1695773447391,-0.2199707,-0.9290161,0.3463745,-1.03125,-0.53125,-0.109375
447,1695773447420,-0.21777344,-0.944397,0.35369873,-0.0625,0.484375,-1.078125
448,1695773447466,-0.22705078,-0.92803955,0.36517334,-1.203125,0.46875,0.265625
449,1695773447495,-0.22167969,-0.9356079,0.3637085,-0.375,0.875,-0.78125
450,1695773447541,-0.21484375,-0.9470825,0.35980225,-0.390625,-1.171875,-0.15625
451,1695773447587,-0.21948242,-0.9221802,0.33831787,-1.53125,-0.046875,-0.40625
452,1695773447616,-0.21386719,-0.9607544,0.34613037,-0.171875,0.59375,-0.515625
453,1695773447660,-0.23022461,-0.93048096,0.37713623,1.625,-0.265625,2.484375
454,1695773447706,-0.22070312,-0.9507446,0.33758545,-1.0,0.5625,-0.1875
455,1695773447737,-0.21459961,-0.9356079,0.35101318,0.953125,0.46875,-0.28125
456,1695773447782,-0.21386719,-0.9536743,0.3480835,0.265625,0.0,-1.25
457,1695773447812,-0.2109375,-0.93414307,0.34051514,-0.453125,0.859375,0.328125
458,1695773447858,-0.22241211,-0.9378052,0.35272217,2.03125,1.578125,2.015625
459,1695773447901,-0.22509766,-0.94781494,0.35882568,0.703125,0.34375,-0.03125
460,1695773447942,-0.22485352,-0.95269775,0.354187,-0.5,-0.125,-0.53125
461,1695773447977,-0.21362305,-0.95269775,0.33880615,-0.5625,-0.359375,1.234375
462,1695773448023,-0.203125,-0.9475708,0.34368896,0.765625,0.703125,1.671875
463,1695773448053,-0.20605469,-0.9414673,0.3444214,-0.6875,0.09375,0.09375
464,1695773448100,-0.20825195,-0.94415283,0.33563232,0.0,0.125,-0.59375
465,1695773448128,-0.20117188,-0.94073486,0.3324585,-0.1875,0.09375,-0.890625
466,1695773448171,-0.21362305,-0.9612427,0.34539795,0.625,0.328125,-0.125
467,1695773448215,-0.21313477,-0.9307251,0.33294678,1.328125,0.453125,0.796875
468,1695773448247,-0.20532227,-0.9483032,0.33270264,-0.765625,1.328125,-0.484375
469,1695773448294,-0.21362305,-0.94903564,0.33831787,-0.171875,-0.578125,0.203125
470,1695773448342,-0.20678711,-0.9385376,0.32659912,-1.328125,1.5,-0.90625
471,1695773448367,-0.19458008,-0.9570923,0.34832764,-0.09375,0.25,0.125
472,1695773448418,-0.20751953,-0.93341064,0.33319092,-1.0625,1.34375,0.625
473,1695773448445,-0.20605469,-0.94073486,0.33416748,-1.546875,0.484375,-0.078125
474,1695773448489,-0.21386719,-0.96466064,0.33929443,-0.59375,1.28125,-0.1875
475,1695773448534,-0.21240234,-0.93536377,0.33929443,-2.328125,0.875,-0.65625
476,1695773448562,-0.19213867,-0.95684814,0.34344482,-1.078125,0.0,-1.796875
477,1695773448606,-0.18579102,-0.9573364,0.33465576,-0.6875,-0.546875,-0.640625
478,1695773448654,-0.19702148,-0.94195557,0.32562256,-1.890625,-1.515625,-0.484375
479,1695773448684,-0.22192383,-0.9343872,0.3312378,-1.8125,-0.5,-0.640625
480,1695773448728,-0.20214844,-0.93341064,0.35784912,0.90625,0.359375,-0.09375
481,1695773448760,-0.21582031,-0.94976807,0.3468628,-2.265625,0.71875,0.328125
482,1695773448802,-0.21508789,-0.9378052,0.34881592,-0.515625,-0.28125,-0.390625
483,1695773448849,-0.20629883,-0.93878174,0.34124756,-1.234375,-1.0,-0.71875
484,1695773448878,-0.2109375,-0.95269775,0.3493042,-0.9375,-0.296875,-0.734375
485,1695773448928,-0.20239258,-0.94488525,0.34222412,-0.859375,-0.109375,0.484375
486,1695773448999,-0.21020508,-0.9380493,0.33880615,-0.703125,-0.046875,-0.53125
487,1695773449005,-0.21020508,-0.94732666,0.35125732,0.03125,-0.6875,0.3125
488,1695773449045,-0.2163086,-0.9319458,0.34783936,-1.90625,0.4375,-0.921875
489,1695773449081,-0.21020508,-0.95196533,0.35736084,-0.59375,-1.0,-0.28125
490,1695773449122,-0.21484375,-0.9360962,0.35614014,-0.671875,0.328125,0.53125
491,1695773449161,-0.2199707,-0.94073486,0.33880615,-1.875,-0.328125,-0.171875
492,1695773449192,-0.20361328,-0.9483032,0.34881592,-2.546875,0.015625,-0.953125
493,1695773449240,-0.20361328,-0.9302368,0.35443115,-2.765625,-1.078125,-1.28125
494,1695773449285,-0.2163086,-0.95147705,0.35150146,-1.109375,0.90625,0.28125
495,1695773449313,-0.21020508,-0.9343872,0.3468628,-1.609375,-0.234375,-0.109375
496,1695773449358,-0.22070312,-0.9351196,0.35150146,-1.984375,0.234375,-1.59375
497,1695773449434,-0.21313477,-0.9421997,0.355896,-1.015625,0.109375,-1.640625
498,1695773449437,-0.21240234,-0.94195557,0.35809326,-1.390625,-0.4375,-0.8125
499,1695773449483,-0.21704102,-0.9348755,0.35736084,-1.90625,-0.21875,-0.359375
500,1695773449509,-0.22167969,-0.94781494,0.36102295,-1.0625,-0.0625,-0.703125
501,1695773449554,-0.2265625,-0.94537354,0.35614014,-0.578125,-0.453125,-0.34375
502,1695773449628,-0.2055664,-0.9348755,0.35809326,-2.78125,0.484375,-1.734375
503,1695773449632,-0.21655273,-0.9458618,0.36639404,-1.109375,-0.09375,-0.5
504,1695773449674,-0.22167969,-0.9260864,0.3710327,0.046875,0.96875,0.40625
505,1695773449702,-0.22924805,-0.94610596,0.36541748,-1.1875,-0.234375,-0.15625
506,1695773449748,-0.22729492,-0.9290161,0.36566162,-3.46875,-0.328125,-1.78125
507,1695773449796,-0.21484375,-0.94659424,0.36932373,-1.765625,-0.8125,-0.796875
508,1695773449823,-0.20947266,-0.9192505,0.35980225,-1.6875,-1.0625,-0.84375
509,1695773449869,-0.22851562,-0.9385376,0.36541748,-1.6875,0.109375,-0.6875
510,1695773449916,-0.22338867,-0.9199829,0.36224365,-0.515625,-0.859375,0.53125
511,1695773449942,-0.22070312,-0.93463135,0.3690796,-1.078125,0.046875,-1.84375
512,1695773449987,-0.2241211,-0.9414673,0.37249756,-0.640625,0.28125,-0.734375
513,1695773450018,-0.23535156,-0.9348755,0.37054443,-0.875,-0.3125,-0.578125
514,1695773450060,-0.23022461,-0.9326782,0.3776245,-0.59375,0.703125,0.0625
515,1695773450106,-0.21435547,-0.9314575,0.37420654,-0.390625,0.3125,-0.5
516,1695773450135,-0.22070312,-0.9343872,0.36932373,-0.65625,-0.078125,-0.734375
517,1695773450181,-0.21386719,-0.9216919,0.35662842,-2.03125,1.171875,-1.109375
518,1695773450226,-0.23608398,-0.94488525,0.37713623,0.234375,0.234375,0.34375
519,1695773450257,-0.24438477,-0.9138794,0.36053467,-1.71875,0.796875,-1.0
520,1695773450300,-0.23803711,-0.9356079,0.3703003,0.859375,1.828125,-0.5625
521,1695773450331,-0.20458984,-0.9385376,0.3678589,1.546875,2.65625,-0.046875
522,1695773450375,-0.21191406,-0.94122314,0.36444092,0.8125,0.203125,-0.015625
523,1695773450421,-0.23779297,-0.9319458,0.3649292,-0.828125,-0.046875,-0.59375
524,1695773450451,-0.24414062,-0.92193604,0.3649292,0.625,1.21875,-1.140625
525,1695773450497,-0.21899414,-0.9378052,0.3546753,-0.015625,1.875,-1.8125
526,1695773450527,-0.21362305,-0.9500122,0.35760498,0.25,1.125,0.28125
527,1695773450572,-0.21191406,-0.94000244,0.3632202,0.0625,0.703125,0.5
528,1695773450619,-0.22802734,-0.9302368,0.3661499,-1.0625,-0.28125,-0.765625
529,1695773450646,-0.2277832,-0.9331665,0.36224365,-0.0625,-0.3125,-0.53125
530,1695773450694,-0.22290039,-0.94610596,0.3534546,-0.171875,0.53125,-0.640625
531,1695773450735,-0.22485352,-0.95635986,0.36566162,0.734375,0.640625,0.453125
532,1695773450766,-0.21704102,-0.9307251,0.34417725,-2.078125,0.921875,-1.0
533,1695773450812,-0.22509766,-0.9414673,0.3583374,-0.4375,-0.15625,-0.203125
534,1695773450843,-0.2253418,-0.93829346,0.35784912,-0.140625,0.796875,0.484375
535,1695773450887,-0.22583008,-0.9282837,0.36102295,-0.90625,-0.515625,-0.921875
536,1695773450932,-0.22241211,-0.95513916,0.3619995,0.140625,0.3125,-0.03125
537,1695773450966,-0.20947266,-0.92559814,0.3529663,0.5,0.484375,0.125
538,1695773451008,-0.22363281,-0.93951416,0.3427124,-1.453125,-1.0,-1.296875
539,1695773451053,-0.23876953,-0.9302368,0.36029053,-0.359375,0.21875,-0.15625
540,1695773451085,-0.22387695,-0.9492798,0.3529663,-0.390625,0.359375,0.84375
541,1695773451129,-0.21850586,-0.93829346,0.35394287,-1.3125,-0.859375,-0.484375
542,1695773451159,-0.21118164,-0.93414307,0.3583374,-0.28125,-0.96875,-0.96875
543,1695773451202,-0.23632812,-0.9421997,0.34710693,-0.734375,-0.03125,-0.109375
544,1695773451248,-0.22729492,-0.9380493,0.35028076,1.0625,-0.078125,1.234375
545,1695773451280,-0.2397461,-0.9458618,0.3583374,-0.609375,0.984375,0.71875
546,1695773451326,-0.21948242,-0.9273071,0.35247803,0.453125,1.203125,-0.21875
547,1695773451368,-0.20263672,-0.940979,0.35247803,-1.59375,0.328125,-1.625
548,1695773451399,-0.21386719,-0.9512329,0.35028076,-0.609375,-0.375,0.609375
549,1695773451445,-0.22851562,-0.9314575,0.35491943,0.53125,0.34375,1.359375
550,1695773451474,-0.234375,-0.9429321,0.3583374,-0.703125,-0.15625,0.046875
551,1695773451519,-0.23779297,-0.928772,0.35150146,-0.96875,0.421875,-0.953125
552,1695773451568,-0.21728516,-0.942688,0.34832764,-0.265625,0.890625,-0.625
553,1695773451593,-0.21484375,-0.9373169,0.35394287,-0.09375,-0.09375,-0.265625
554,1695773451639,-0.21386719,-0.942688,0.3522339,-1.25,-0.578125,-0.390625
555,1695773451685,-0.2265625,-0.94000244,0.34881592,0.296875,0.046875,0.5
556,1695773451712,-0.2265625,-0.94366455,0.34954834,-0.546875,-0.359375,-0.046875
557,1695773451759,-0.22583008,-0.92852783,0.34857178,-2.21875,-0.609375,-2.5625
558,1695773451788,-0.23022461,-0.9463501,0.35394287,-0.140625,0.140625,-0.453125
559,1695773451833,-0.22314453,-0.9282837,0.35272217,-0.78125,0.625,0.6875
560,1695773451878,-0.22875977,-0.94781494,0.33685303,-0.96875,0.09375,-0.5625
561,1695773451906,-0.22143555,-0.942688,0.35565186,-0.4375,0.125,-0.234375
562,1695773451955,-0.22143555,-0.9312134,0.34735107,0.0625,0.5,-0.5
563,1695773452001,-0.2211914,-0.9390259,0.33880615,-1.390625,0.734375,-0.96875
564,1695773452028,-0.23461914,-0.94732666,0.3517456,-1.4375,0.4375,0.734375
565,1695773452073,-0.22729492,-0.9290161,0.35638428,-0.40625,2.390625,-0.25
566,1695773452103,-0.2175293,-0.9507446,0.35076904,-0.734375,0.796875,-0.59375
567,1695773452149,-0.22070312,-0.93536377,0.355896,-0.421875,0.671875,1.140625
568,1695773452195,-0.20727539,-0.9397583,0.34246826,-0.453125,0.796875,-1.0
569,1695773452222,-0.22851562,-0.9475708,0.36273193,0.28125,0.4375,0.078125
570,1695773452272,-0.21899414,-0.925354,0.34344482,-0.984375,1.390625,-0.671875
571,1695773452317,-0.21166992,-0.9570923,0.3529663,-0.125,-0.375,0.0
572,1695773452344,-0.21240234,-0.942688,0.35491943,-1.03125,-0.375,0.921875
573,1695773452388,-0.22851562,-0.9373169,0.35321045,-0.921875,-1.15625,-0.734375
574,1695773452419,-0.23291016,-0.95025635,0.35491943,-0.34375,0.015625,-0.140625
575,1695773452463,-0.21386719,-0.9380493,0.34857178,-1.234375,0.9375,-0.8125
576,1695773452510,-0.21850586,-0.93878174,0.35125732,-0.53125,-0.484375,-1.0625
577,1695773452540,-0.2253418,-0.95977783,0.34613037,-1.90625,-0.03125,-1.09375
578,1695773452583,-0.22363281,-0.9365845,0.35101318,0.796875,0.75,0.203125
579,1695773452631,-0.2163086,-0.9338989,0.3475952,-2.125,0.953125,-1.28125
580,1695773452658,-0.2211914,-0.9348755,0.34954834,-0.203125,0.671875,-1.046875
581,1695773452704,-0.21679688,-0.9522095,0.34979248,0.890625,1.9375,1.453125
582,1695773452737,-0.22558594,-0.93341064,0.3480835,1.296875,0.75,1.046875
583,1695773452779,-0.2277832,-0.93927,0.3451538,0.734375,0.765625,-1.03125
584,1695773452824,-0.21313477,-0.93756104,0.340271,0.53125,1.65625,-1.125
585,1695773452853,-0.2163086,-0.9483032,0.33465576,0.75,1.234375,-0.71875
586,1695773452897,-0.2199707,-0.9522095,0.34857178,0.75,1.21875,0.15625
587,1695773452943,-0.22607422,-0.940979,0.33807373,2.09375,1.828125,0.21875
588,1695773452972,-0.21484375,-0.93951416,0.34295654,1.6875,1.859375,-1.3125
589,1695773453017,-0.22583008,-0.94244385,0.3427124,0.453125,0.265625,-1.03125
590,1695773453049,-0.21459961,-0.94195557,0.33343506,0.234375,1.5625,-1.171875
591,1695773453097,-0.22094727,-0.9470825,0.34320068,0.765625,-0.15625,-0.28125
592,1695773453141,-0.22485352,-0.95318604,0.3378296,0.84375,-0.03125,-0.03125
593,1695773453170,-0.22924805,-0.9360962,0.32928467,0.28125,-0.34375,-0.078125
594,1695773453219,-0.2163086,-0.944397,0.3295288,0.0,0.046875,-1.59375
595,1695773453287,-0.21679688,-0.93096924,0.3204956,-0.484375,-1.3125,-0.59375
596,1695773453289,-0.2241211,-0.9495239,0.33587646,0.03125,0.296875,-0.765625
597,1695773453331,-0.23632812,-0.95269775,0.32659912,-0.3125,-0.703125,-1.421875
598,1695773453361,-0.24023438,-0.9404907,0.3312378,-0.6875,-0.34375,-1.8125
599,1695773453407,-0.22998047,-0.93585205,0.3209839,-1.46875,-0.890625,-2.0
600,1695773453453,-0.2290039,-0.9468384,0.33587646,0.328125,0.640625,-0.4375
601,1695773453480,-0.22949219,-0.9295044,0.32611084,-0.953125,-0.484375,-1.125
602,1695773453527,-0.2434082,-0.96173096,0.33343506,-1.046875,0.78125,-1.40625
603,1695773453571,-0.23364258,-0.93414307,0.32635498,-0.640625,-0.421875,-0.40625
604,1695773453602,-0.22436523,-0.93951416,0.3336792,-1.578125,0.015625,-1.15625
605,1695773453649,-0.23706055,-0.9529419,0.33270264,-0.796875,-0.796875,0.140625
606,1695773453726,-0.23095703,-0.9324341,0.33050537,-0.90625,0.375,-0.15625
607,1695773453729,-0.23901367,-0.9463501,0.33099365,-1.78125,-1.25,-0.765625
608,1695773453767,-0.24609375,-0.9336548,0.33441162,-0.6875,-0.953125,-0.03125
609,1695773453800,-0.24169922,-0.9343872,0.3312378,-1.390625,0.3125,-1.234375
610,1695773453845,-0.22827148,-0.9570923,0.3241577,-1.0,0.171875,-0.984375
611,1695773453889,-0.23803711,-0.93292236,0.33831787,-1.34375,0.234375,-0.265625
612,1695773453922,-0.2553711,-0.9319458,0.338562,-1.375,0.75,-0.75
613,1695773453964,-0.24829102,-0.94488525,0.3336792,-2.8125,0.09375,-1.75
614,1695773453994,-0.24145508,-0.9385376,0.3361206,-1.34375,0.375,-0.875
615,1695773454038,-0.22875977,-0.9524536,0.33514404,-1.890625,0.21875,-0.875
616,1695773454088,-0.24438477,-0.9356079,0.3480835,-0.421875,-0.4375,0.03125
617,1695773454113,-0.24829102,-0.93951416,0.34075928,-1.59375,-0.296875,-0.09375
618,1695773454160,-0.2565918,-0.92852783,0.33270264,-1.9375,-0.53125,-0.515625
619,1695773454206,-0.24023438,-0.9404907,0.33880615,-1.8125,0.015625,-0.890625
620,1695773454235,-0.24023438,-0.94610596,0.3270874,-1.6875,0.859375,-0.265625
621,1695773454278,-0.23046875,-0.92633057,0.33636475,-0.5625,0.5625,0.28125
622,1695773454310,-0.24243164,-0.9458618,0.35028076,-0.734375,-0.1875,-0.59375
623,1695773454353,-0.2565918,-0.9356079,0.3361206,-1.4375,-0.03125,-0.921875
624,1695773454402,-0.23901367,-0.9365845,0.34173584,-0.9375,1.125,-1.140625
625,1695773454429,-0.24072266,-0.9451294,0.34710693,-0.78125,0.34375,-0.515625
626,1695773454473,-0.23413086,-0.92022705,0.33587646,-1.4375,0.234375,-1.03125
627,1695773454520,-0.24853516,-0.9512329,0.35736084,-0.140625,0.9375,0.265625
628,1695773454550,-0.25170898,-0.92633057,0.3397827,-1.140625,0.09375,-0.609375
629,1695773454593,-0.25341797,-0.9343872,0.3468628,-0.671875,0.140625,-1.234375
630,1695773454629,-0.23901367,-0.9492798,0.34320068,-0.5625,0.21875,-0.21875
631,1695773454669,-0.2397461,-0.93292236,0.35125732,0.34375,1.0,0.953125
632,1695773454715,-0.24316406,-0.9248657,0.3390503,-0.984375,-0.65625,-0.1875
633,1695773454746,-0.25268555,-0.94537354,0.3444214,-0.5625,0.390625,-1.609375
634,1695773454788,-0.2434082,-0.9439087,0.35443115,-1.078125,0.875,-0.0625
635,1695773454820,-0.24609375,-0.9258423,0.34735107,-0.59375,-0.234375,-0.453125
636,1695773454862,-0.24633789,-0.9417114,0.3534546,0.0,-0.421875,-0.4375
637,1695773454907,-0.25976562,-0.92510986,0.33709717,-0.703125,0.609375,0.296875
638,1695773454936,-0.24365234,-0.95025635,0.3378296,-0.859375,0.4375,-1.28125
639,1695773454984,-0.2475586,-0.9512329,0.33563232,-0.609375,0.390625,-0.609375
640,1695773455031,-0.24584961,-0.9404907,0.34710693,-1.140625,0.296875,0.21875
641,1695773455058,-0.23852539,-0.93096924,0.32757568,-2.8125,1.140625,-1.296875
642,1695773455102,-0.2529297,-0.940979,0.35247803,-0.9375,-0.125,-0.234375
643,1695773455141,-0.25219727,-0.9260864,0.35076904,-1.484375,1.140625,-0.296875
644,1695773455178,-0.23657227,-0.9295044,0.3456421,-1.671875,-0.15625,-0.765625
645,1695773455224,-0.24169922,-0.9348755,0.35882568,-1.1875,0.140625,0.0
646,1695773455251,-0.25610352,-0.9302368,0.33392334,-0.9375,0.9375,0.953125
647,1695773455297,-0.2553711,-0.91412354,0.3546753,-0.171875,0.984375,1.09375
648,1695773455342,-0.22363281,-0.93756104,0.3468628,-2.125,0.71875,-2.5625
649,1695773455376,-0.24047852,-0.9507446,0.35687256,0.265625,-0.125,0.234375
650,1695773455417,-0.24438477,-0.9265747,0.34661865,-0.5,0.484375,0.46875
651,1695773455450,-0.24511719,-0.92144775,0.35443115,-1.78125,-0.546875,-0.859375
652,1695773455494,-0.25610352,-0.94659424,0.35662842,-0.140625,0.25,0.0
653,1695773455539,-0.23120117,-0.9246216,0.34906006,-0.796875,1.203125,-0.921875
654,1695773455569,-0.23657227,-0.94195557,0.36419678,-0.375,0.65625,-0.015625
655,1695773455612,-0.24853516,-0.92852783,0.3649292,0.671875,-0.4375,0.359375
656,1695773455659,-0.2475586,-0.9348755,0.34710693,-1.265625,0.375,0.6875
657,1695773455688,-0.2446289,-0.93829346,0.355896,-1.234375,0.421875,0.890625
658,1695773455734,-0.24047852,-0.9373169,0.36468506,-1.71875,-0.875,-0.21875
659,1695773455765,-0.24707031,-0.9348755,0.3522339,-1.046875,0.65625,0.015625
660,1695773455806,-0.23486328,-0.928772,0.35247803,0.0,-0.125,0.703125
661,1695773455854,-0.24438477,-0.9229126,0.3529663,-1.34375,-0.34375,-0.15625
662,1695773455882,-0.24389648,-0.9299927,0.35369873,-1.09375,-0.296875,-1.03125
663,1695773455929,-0.24633789,-0.94000244,0.35565186,-0.421875,0.15625,-0.390625
664,1695773455973,-0.24414062,-0.9299927,0.36444092,-0.171875,0.859375,0.28125
665,1695773456003,-0.23144531,-0.9265747,0.35101318,-1.734375,-0.3125,-0.78125
666,1695773456049,-0.23950195,-0.9312134,0.36053467,0.28125,0.53125,-0.234375
667,1695773456079,-0.22192383,-0.9434204,0.355896,-0.6875,0.171875,-0.1875
668,1695773456126,-0.24267578,-0.9373169,0.35516357,-1.328125,-0.75,0.296875
669,1695773456168,-0.25048828,-0.92193604,0.35150146,-0.25,-0.3125,0.328125
670,1695773456198,-0.2475586,-0.93218994,0.3554077,0.328125,0.53125,0.0
671,1695773456247,-0.23999023,-0.9324341,0.35247803,-1.25,0.328125,-0.203125
672,1695773456290,-0.23413086,-0.9260864,0.3546753,-1.6875,0.5625,-0.984375
673,1695773456317,-0.24560547,-0.94317627,0.36419678,0.328125,0.6875,0.90625
674,1695773456364,-0.25097656,-0.93414307,0.35247803,-1.453125,0.1875,-0.546875
675,1695773456395,-0.23535156,-0.93951416,0.35858154,-1.703125,-0.015625,-0.71875
676,1695773456441,-0.22973633,-0.9199829,0.35638428,-0.203125,0.34375,1.203125
677,1695773456484,-0.22485352,-0.92803955,0.35516357,0.8125,0.0,1.15625
678,1695773456514,-0.24951172,-0.9417114,0.3600464,-1.125,-0.375,0.109375
679,1695773456559,-0.2553711,-0.92803955,0.3534546,-0.84375,0.359375,-1.328125
680,1695773456603,-0.23925781,-0.9356079,0.35882568,-1.0625,0.078125,-0.90625
681,1695773456635,-0.23657227,-0.94537354,0.35882568,-0.125,0.46875,0.234375
682,1695773456678,-0.22753906,-0.940979,0.34490967,-0.703125,0.3125,-0.40625
683,1695773456710,-0.24414062,-0.9299927,0.35980225,-0.4375,-0.203125,-0.3125
684,1695773456756,-0.24682617,-0.9260864,0.35736084,-0.46875,0.5,-0.25
685,1695773456800,-0.2241211,-0.925354,0.35906982,0.484375,-0.34375,0.234375
686,1695773456827,-0.2355957,-0.9456177,0.35687256,-1.390625,0.5625,0.515625
687,1695773456872,-0.2421875,-0.92437744,0.35150146,-1.046875,0.359375,-0.25
688,1695773456917,-0.22680664,-0.9402466,0.35980225,-0.453125,0.34375,-0.90625
689,1695773456949,-0.23803711,-0.9373169,0.35614014,-0.78125,-0.375,-0.03125
690,1695773456992,-0.2409668,-0.9343872,0.3475952,-0.21875,0.21875,-0.296875
691,1695773457024,-0.24169922,-0.9221802,0.3554077,-0.609375,0.5625,-0.0625
692,1695773457076,-0.23217773,-0.9380493,0.35247803,-0.71875,-0.28125,-0.453125
693,1695773457114,-0.23706055,-0.93878174,0.35247803,-1.9375,0.359375,-1.4375
694,1695773457147,-0.23583984,-0.9417114,0.36761475,0.5625,-0.234375,0.703125
695,1695773457190,-0.23754883,-0.92852783,0.3517456,-0.265625,-0.390625,0.421875
696,1695773457236,-0.24365234,-0.95318604,0.34661865,-0.875,-0.046875,0.234375
697,1695773457262,-0.2446289,-0.9260864,0.35443115,-0.390625,0.5,0.3125
698,1695773457308,-0.22216797,-0.9314575,0.3661499,-0.125,-0.328125,-0.671875
699,1695773457341,-0.23144531,-0.9458618,0.34735107,-1.09375,-0.515625,0.53125
700,1695773457384,-0.24072266,-0.93096924,0.35491943,-0.140625,0.609375,0.203125
701,1695773457429,-0.234375,-0.93707275,0.3444214,-1.640625,0.328125,-1.046875
702,1695773457460,-0.24072266,-0.9356079,0.36688232,-1.21875,0.015625,-0.3125
703,1695773457504,-0.23486328,-0.9356079,0.3619995,-0.3125,0.84375,0.28125
704,1695773457579,-0.24072266,-0.93463135,0.34295654,-1.859375,0.71875,-0.15625
705,1695773457584,-0.24047852,-0.93414307,0.37005615,-1.03125,1.234375,-0.84375
706,1695773457629,-0.23071289,-0.9368286,0.35369873,-0.71875,1.203125,-0.234375
707,1695773457657,-0.24072266,-0.9404907,0.35662842,-0.328125,-0.8125,1.09375
708,1695773457700,-0.23461914,-0.9299927,0.35394287,-2.125,0.03125,-0.8125
709,1695773457746,-0.22460938,-0.9319458,0.35687256,-0.640625,-0.34375,-1.03125
710,1695773457776,-0.23828125,-0.92926025,0.3619995,-0.390625,-0.5625,0.96875
711,1695773457823,-0.23901367,-0.9241333,0.3612671,-0.15625,-0.546875,0.671875
712,1695773457868,-0.23999023,-0.9290161,0.35809326,-1.3125,-0.1875,-0.859375
713,1695773457892,-0.24145508,-0.9331665,0.3661499,0.828125,0.15625,0.09375
714,1695773457936,-0.22851562,-0.9258423,0.34735107,0.4375,0.046875,0.453125
715,1695773457967,-0.234375,-0.94366455,0.35198975,-0.65625,0.46875,-0.0625
716,1695773458013,-0.2331543,-0.9199829,0.36297607,0.203125,0.0,0.0625
717,1695773458059,-0.24121094,-0.9487915,0.3600464,-0.296875,1.046875,-1.03125
718,1695773458090,-0.22021484,-0.9507446,0.35076904,-0.1875,0.15625,-0.40625
719,1695773458135,-0.22827148,-0.9343872,0.35101318,-0.828125,0.375,-0.3125
720,1695773458178,-0.2421875,-0.93096924,0.35272217,0.328125,0.796875,0.65625
721,1695773458209,-0.23925781,-0.923645,0.35614014,0.03125,0.9375,-0.4375
722,1695773458254,-0.23779297,-0.9492798,0.3554077,-1.40625,0.609375,-1.125
723,1695773458286,-0.2253418,-0.944397,0.35272217,0.3125,0.71875,0.484375
724,1695773458335,-0.23901367,-0.928772,0.34857178,0.171875,0.59375,0.90625
725,1695773458374,-0.23925781,-0.9234009,0.3475952,-0.625,1.484375,-0.140625
726,1695773458403,-0.23925781,-0.9307251,0.3517456,-0.140625,1.265625,-1.234375
727,1695773458452,-0.23339844,-0.94073486,0.34954834,-0.875,0.484375,-1.0
728,1695773458493,-0.23168945,-0.9446411,0.35003662,-0.890625,1.0625,-0.125
729,1695773458525,-0.22387695,-0.9414673,0.34466553,0.0,0.796875,-0.109375
730,1695773458569,-0.23242188,-0.93585205,0.3522339,-1.21875,0.46875,0.1875
731,1695773458602,-0.22753906,-0.9273071,0.36297607,-0.640625,0.328125,-0.90625
732,1695773458646,-0.23242188,-0.94488525,0.3546753,-1.296875,0.53125,-1.359375
733,1695773458688,-0.24243164,-0.9319458,0.35906982,-0.5625,0.46875,0.3125
734,1695773458718,-0.22729492,-0.93878174,0.3456421,-1.15625,0.78125,0.109375
735,1695773458764,-0.2241211,-0.94366455,0.35760498,-0.375,0.046875,-0.40625
736,1695773458809,-0.23046875,-0.9404907,0.35003662,-1.46875,0.1875,-0.53125
737,1695773458841,-0.25341797,-0.928772,0.35443115,0.640625,0.71875,0.953125
738,1695773458887,-0.23583984,-0.9307251,0.35614014,-0.40625,1.296875,-0.46875
739,1695773458911,-0.21679688,-0.93756104,0.35003662,-1.453125,0.53125,-1.453125
740,1695773458958,-0.23217773,-0.93707275,0.3529663,0.765625,0.5,0.546875
741,1695773459002,-0.23925781,-0.9404907,0.35125732,-0.421875,0.34375,0.421875
742,1695773459031,-0.22998047,-0.93218994,0.3554077,-1.0,0.734375,-0.765625
743,1695773459079,-0.22607422,-0.94317627,0.34246826,-0.578125,0.65625,-0.84375
744,1695773459109,-0.22583008,-0.9439087,0.35125732,-1.921875,0.9375,-0.21875
745,1695773459155,-0.2277832,-0.94122314,0.36273193,-0.15625,0.53125,0.15625
746,1695773459201,-0.22973633,-0.9360962,0.35784912,-1.9375,0.03125,-1.171875
747,1695773459228,-0.23876953,-0.9319458,0.35906982,-0.328125,0.140625,-0.203125
748,1695773459276,-0.22875977,-0.94073486,0.3571167,-0.421875,1.21875,0.296875
749,1695773459317,-0.22436523,-0.9307251,0.34783936,-1.03125,-0.359375,-0.3125
750,1695773459352,-0.22216797,-0.9414673,0.354187,-0.34375,0.265625,-0.484375
751,1695773459395,-0.23925781,-0.93585205,0.3710327,0.40625,1.0,0.5
752,1695773459423,-0.22680664,-0.9260864,0.33929443,-0.6875,-0.25,-1.296875
753,1695773459469,-0.23071289,-0.942688,0.35638428,-0.75,-0.25,-1.234375
754,1695773459515,-0.22216797,-0.9338989,0.34661865,-0.3125,0.546875,-0.140625
755,1695773459544,-0.22729492,-0.9451294,0.35125732,-0.203125,0.578125,0.078125
756,1695773459590,-0.23510742,-0.9331665,0.35272217,-1.109375,0.09375,-0.65625
757,1695773459634,-0.23632812,-0.9487915,0.3534546,-0.734375,-0.125,0.015625
758,1695773459663,-0.22045898,-0.9336548,0.34075928,-1.5,0.671875,-1.0625
759,1695773459711,-0.22265625,-0.94781494,0.3624878,-1.265625,-0.328125,-0.28125
760,1695773459739,-0.23461914,-0.9216919,0.3505249,-0.84375,-0.28125,-0.328125
761,1695773459785,-0.2446289,-0.9439087,0.35443115,-0.578125,-0.390625,1.078125
762,1695773459832,-0.23876953,-0.9175415,0.35369873,-0.6875,0.984375,0.453125
763,1695773459859,-0.22827148,-0.9483032,0.3554077,-1.03125,0.265625,-0.46875
764,1695773459903,-0.22167969,-0.9338989,0.34661865,-1.28125,-0.21875,-1.140625
765,1695773459948,-0.21972656,-0.93341064,0.35198975,-1.078125,-0.09375,-0.796875
766,1695773459980,-0.23657227,-0.940979,0.36102295,0.015625,0.484375,0.75
767,1695773460025,-0.23754883,-0.9324341,0.3522339,0.046875,0.6875,0.265625
768,1695773460054,-0.24145508,-0.9365845,0.3649292,-1.375,0.25,-2.28125
769,1695773460099,-0.23950195,-0.9373169,0.35784912,-1.75,1.078125,-3.015625
770,1695773460146,-0.2421875,-0.9326782,0.35491943,-1.046875,0.96875,-1.515625
771,1695773460174,-0.22387695,-0.94195557,0.35662842,0.5625,1.046875,-1.15625
772,1695773460219,-0.23242188,-0.9446411,0.35736084,-0.25,0.421875,-0.140625
773,1695773460264,-0.24658203,-0.9277954,0.35614014,0.265625,0.5625,1.015625
774,1695773460295,-0.2529297,-0.9314575,0.36810303,0.578125,2.0625,0.0
775,1695773460342,-0.23535156,-0.9390259,0.34490967,-0.203125,1.6875,-1.671875
776,1695773460370,-0.2133789,-0.944397,0.3522339,0.765625,0.625,-0.453125
777,1695773460414,-0.21459961,-0.9277954,0.35321045,0.640625,-0.296875,1.390625
778,1695773460458,-0.2368164,-0.93829346,0.3637085,0.53125,-1.703125,1.484375
779,1695773460492,-0.24780273,-0.9282837,0.3444214,-1.1875,-1.3125,0.421875
780,1695773460535,-0.23730469,-0.9319458,0.34490967,-0.265625,-0.28125,-0.453125
781,1695773460577,-0.21313477,-0.93096924,0.35076904,-1.078125,-0.78125,-1.328125
782,1695773460612,-0.23754883,-0.9636841,0.35101318,-0.890625,-0.890625,0.03125
783,1695773460652,-0.2290039,-0.92071533,0.33416748,-1.296875,-2.0,0.25
784,1695773460684,-0.23364258,-0.93878174,0.3475952,-1.75,-0.78125,-1.40625
785,1695773460728,-0.24804688,-0.94366455,0.34881592,-0.265625,-0.75,0.40625
786,1695773460775,-0.234375,-0.93170166,0.34344482,-0.359375,-0.6875,0.375
787,1695773460804,-0.23339844,-0.93756104,0.3439331,-3.03125,0.390625,-1.140625
788,1695773460849,-0.234375,-0.9390259,0.3517456,-1.625,-0.109375,-0.28125
789,1695773460894,-0.24316406,-0.93096924,0.354187,-0.59375,0.15625,0.234375
790,1695773460921,-0.23046875,-0.94073486,0.34613037,-1.484375,0.21875,-0.4375
791,1695773460967,-0.23095703,-0.93585205,0.35491943,-0.4375,0.65625,0.0625
792,1695773460996,-0.23217773,-0.9277954,0.3529663,-0.53125,0.671875,0.28125
793,1695773461043,-0.24560547,-0.9326782,0.35882568,-0.9375,-0.09375,0.125
794,1695773461090,-0.23510742,-0.93707275,0.35321045,-1.59375,0.703125,-1.4375
795,1695773461123,-0.24023438,-0.9500122,0.3583374,-0.953125,0.0625,-0.078125
796,1695773461168,-0.23730469,-0.9182739,0.34344482,-1.296875,0.640625,-0.609375
797,1695773461212,-0.23071289,-0.9495239,0.3661499,-1.046875,-0.46875,-0.8125
798,1695773461238,-0.23168945,-0.93170166,0.35516357,-1.34375,0.0625,-0.4375
799,1695773461283,-0.2319336,-0.9421997,0.35394287,-1.109375,-0.53125,-0.71875
800,1695773461316,-0.24047852,-0.92437744,0.35980225,-0.5,0.328125,0.765625
801,1695773461360,-0.2409668,-0.913147,0.34832764,-0.828125,-0.046875,-0.71875
802,1695773461404,-0.24243164,-0.9397583,0.36761475,-0.1875,0.640625,-0.15625
803,1695773461434,-0.2331543,-0.92974854,0.35809326,-1.546875,0.640625,-1.0
804,1695773461477,-0.23657227,-0.9343872,0.3673706,-1.484375,-0.40625,-0.953125
805,1695773461527,-0.24243164,-0.9336548,0.35906982,-1.359375,-0.015625,-0.65625
806,1695773461553,-0.23608398,-0.9338989,0.35272217,-0.546875,0.3125,-0.6875
807,1695773461599,-0.24121094,-0.9312134,0.3685913,-1.1875,0.5,0.21875
808,1695773461629,-0.24731445,-0.9404907,0.3612671,-0.375,-0.15625,0.046875
809,1695773461675,-0.23413086,-0.9429321,0.36029053,-2.703125,0.34375,-2.25
810,1695773461720,-0.24047852,-0.92388916,0.3678589,-0.796875,0.40625,-0.671875
811,1695773461747,-0.23583984,-0.9429321,0.36419678,-0.484375,0.3125,-0.03125
812,1695773461794,-0.23999023,-0.93414307,0.36468506,-1.203125,-0.421875,0.703125
813,1695773461871,-0.24438477,-0.91412354,0.35980225,-1.078125,0.125,-0.203125
814,1695773461874,-0.2421875,-0.9331665,0.3619995,-1.4375,0.25,-1.484375
815,1695773461914,-0.2397461,-0.9360962,0.3756714,0.34375,0.296875,0.375
816,1695773461943,-0.24047852,-0.92437744,0.35736084,-0.921875,0.0625,-1.125
817,1695773461989,-0.23291016,-0.93927,0.3637085,-0.6875,-0.703125,-1.203125
818,1695773462035,-0.2446289,-0.9365845,0.3619995,-0.875,0.765625,0.078125
819,1695773462063,-0.2475586,-0.9234009,0.37176514,-0.015625,0.15625,0.609375
820,1695773462110,-0.24291992,-0.93096924,0.3624878,-1.5625,0.078125,-1.609375
821,1695773462155,-0.24926758,-0.9380493,0.371521,-0.0625,0.25,0.625
822,1695773462185,-0.23657227,-0.9182739,0.36175537,-1.75,-0.375,-0.46875
823,1695773462230,-0.23632812,-0.94610596,0.36834717,0.203125,0.328125,-0.265625
824,1695773462259,-0.24023438,-0.9378052,0.36297607,0.5625,0.125,1.34375
825,1695773462304,-0.24902344,-0.92803955,0.3583374,-1.078125,0.078125,0.625
826,1695773462351,-0.23706055,-0.9380493,0.3583374,-0.421875,-0.015625,-0.125
827,1695773462378,-0.23364258,-0.9343872,0.35980225,-0.921875,-0.46875,-0.171875
828,1695773462426,-0.23608398,-0.94122314,0.35931396,-0.3125,0.1875,0.515625
829,1695773462470,-0.23852539,-0.93536377,0.36175537,-0.421875,-0.640625,0.484375
830,1695773462500,-0.23364258,-0.93536377,0.36297607,-1.296875,0.015625,-0.015625
831,1695773462549,-0.2434082,-0.9258423,0.36175537,-1.203125,-0.046875,-0.328125
832,1695773462575,-0.24633789,-0.9295044,0.37200928,-0.421875,0.46875,-0.40625
833,1695773462620,-0.23364258,-0.93292236,0.35980225,-0.40625,0.609375,-0.65625
834,1695773462663,-0.24047852,-0.9314575,0.36590576,-1.875,0.015625,-0.953125
835,1695773462694,-0.24291992,-0.928772,0.3595581,-1.015625,0.015625,-0.28125
836,1695773462739,-0.23706055,-0.93048096,0.37200928,-0.421875,-0.484375,-0.234375
837,1695773462785,-0.2421875,-0.93292236,0.37445068,-1.3125,0.625,-1.21875
838,1695773462819,-0.24389648,-0.92852783,0.35662842,-0.59375,-0.140625,-0.5625
839,1695773462860,-0.24267578,-0.9295044,0.36834717,0.03125,-0.03125,-0.078125
840,1695773462891,-0.23828125,-0.93927,0.37078857,-0.078125,-0.828125,-0.03125
841,1695773462935,-0.23925781,-0.93951416,0.35321045,-1.65625,-0.640625,-0.640625
842,1695773462979,-0.23754883,-0.9319458,0.37127686,0.28125,0.5625,-0.078125
843,1695773463011,-0.24072266,-0.92755127,0.35906982,-0.375,-0.265625,0.203125
844,1695773463057,-0.24560547,-0.9248657,0.36639404,-1.15625,-0.59375,-0.25
845,1695773463083,-0.24829102,-0.92437744,0.35882568,-0.296875,-0.453125,-0.6875
846,1695773463129,-0.24169922,-0.9380493,0.3632202,-0.171875,0.078125,0.3125
847,1695773463174,-0.25,-0.9180298,0.3619995,-0.640625,0.28125,0.140625
848,1695773463204,-0.23608398,-0.9360962,0.35321045,-1.28125,-0.125,-1.1875
849,1695773463251,-0.24194336,-0.9338989,0.3776245,-0.4375,0.3125,-0.625
850,1695773463294,-0.23168945,-0.93170166,0.3529663,0.265625,0.109375,-0.25
851,1695773463325,-0.24047852,-0.940979,0.35638428,-1.8125,1.0625,-0.46875
852,1695773463378,-0.25561523,-0.9299927,0.36566162,-0.6875,0.875,0.046875
853,1695773463398,-0.24658203,-0.9356079,0.3685913,-0.484375,0.859375,-0.828125
854,1695773463444,-0.23706055,-0.9331665,0.36151123,-1.5,0.796875,-1.875
855,1695773463489,-0.2319336,-0.940979,0.35809326,-0.40625,0.734375,-0.578125
856,1695773463521,-0.2512207,-0.9299927,0.36468506,-0.421875,-0.078125,0.703125
857,1695773463563,-0.24560547,-0.9175415,0.36273193,-0.40625,1.546875,0.015625
858,1695773463612,-0.24047852,-0.9319458,0.35662842,-0.8125,0.796875,-1.0625
859,1695773463642,-0.23291016,-0.9302368,0.37078857,0.234375,1.1875,0.359375
860,1695773463695,-0.23852539,-0.944397,0.3522339,-0.515625,0.75,-0.625
861,1695773463712,-0.24658203,-0.93707275,0.36810303,-0.40625,-0.109375,-0.046875
862,1695773463759,-0.24707031,-0.91729736,0.35931396,-0.09375,1.421875,0.125
863,1695773463804,-0.23413086,-0.9365845,0.35443115,-0.4375,1.1875,-0.78125
864,1695773463840,-0.23901367,-0.91900635,0.37127686,-0.765625,0.765625,-0.703125
865,1695773463882,-0.2319336,-0.9368286,0.37249756,0.015625,1.453125,-0.828125
866,1695773463924,-0.23510742,-0.92633057,0.35809326,-1.671875,0.265625,-0.296875
867,1695773463958,-0.23144531,-0.9216919,0.36444092,-1.3125,1.15625,-0.390625
868,1695773464001,-0.2409668,-0.9351196,0.36688232,-0.28125,0.203125,-0.484375
869,1695773464029,-0.24682617,-0.9451294,0.37298584,-0.5,0.828125,0.90625
870,1695773464074,-0.23754883,-0.92510986,0.35980225,-1.28125,0.9375,-0.109375
871,1695773464118,-0.23901367,-0.923645,0.36419678,-0.203125,0.765625,-0.734375
872,1695773464147,-0.2277832,-0.92926025,0.3751831,0.21875,0.65625,-0.1875
873,1695773464192,-0.23828125,-0.9456177,0.36566162,-0.828125,0.96875,-0.484375
874,1695773464238,-0.24365234,-0.93170166,0.3727417,0.375,0.4375,0.1875
875,1695773464267,-0.23999023,-0.9299927,0.36444092,-1.25,0.6875,-0.828125
876,1695773464312,-0.22241211,-0.9421997,0.36175537,-1.015625,0.140625,-1.546875
877,1695773464344,-0.2421875,-0.9299927,0.36346436,0.109375,0.671875,0.9375
878,1695773464388,-0.2434082,-0.9221802,0.36395264,0.015625,1.34375,0.484375
879,1695773464433,-0.23999023,-0.9356079,0.37127686,-0.59375,0.921875,-0.84375
880,1695773464466,-0.2409668,-0.9468384,0.37078857,-0.75,1.046875,-0.703125
881,1695773464511,-0.23168945,-0.9204712,0.35760498,-0.53125,0.671875,-0.96875
882,1695773464553,-0.22949219,-0.9517212,0.35906982,-2.625,0.0625,-1.359375
883,1695773464583,-0.24389648,-0.9221802,0.37200928,0.40625,1.015625,0.109375
884,1695773464629,-0.234375,-0.93414307,0.35736084,-0.78125,-0.21875,-0.9375
885,1695773464658,-0.24853516,-0.9326782,0.36761475,-1.15625,0.15625,-1.1875
886,1695773464709,-0.24975586,-0.9373169,0.3632202,-0.59375,1.09375,-0.34375
887,1695773464749,-0.23266602,-0.9324341,0.35980225,-1.90625,0.421875,-1.328125
888,1695773464778,-0.23852539,-0.93170166,0.36102295,-1.28125,0.71875,-0.3125
889,1695773464823,-0.23608398,-0.9224243,0.37078857,0.421875,1.09375,0.5625
890,1695773464868,-0.23413086,-0.93878174,0.3690796,-0.234375,0.296875,0.265625
891,1695773464898,-0.2548828,-0.9234009,0.369812,-0.953125,0.046875,-0.96875
892,1695773464946,-0.2397461,-0.9312134,0.3649292,-0.609375,1.15625,-1.328125
893,1695773464975,-0.24633789,-0.9314575,0.3600464,-0.0625,1.765625,-0.5625
894,1695773465021,-0.24243164,-0.927063,0.36541748,-0.078125,1.625,-1.359375
895,1695773465065,-0.24951172,-0.92926025,0.3690796,-1.015625,0.984375,-0.890625
896,1695773465093,-0.23168945,-0.9348755,0.36566162,-0.796875,1.078125,-1.203125
897,1695773465136,-0.22680664,-0.93585205,0.35906982,-2.0,-0.515625,-1.734375
898,1695773465184,-0.24633789,-0.9373169,0.37664795,-1.671875,-0.125,-0.125
899,1695773465214,-0.25317383,-0.92803955,0.38226318,0.03125,-0.859375,2.140625
900,1695773465263,-0.24511719,-0.9295044,0.37957764,-2.03125,-0.875,-0.234375
901,1695773465291,-0.23266602,-0.93341064,0.3739624,-2.328125,-0.53125,-0.953125
902,1695773465337,-0.23486328,-0.92926025,0.37127686,-0.84375,-0.921875,1.453125
903,1695773465383,-0.23510742,-0.9224243,0.38153076,-1.484375,-1.15625,1.015625
904,1695773465410,-0.23803711,-0.927063,0.38250732,-2.046875,-1.234375,-0.375
905,1695773465454,-0.24414062,-0.92633057,0.3739624,-0.234375,-1.421875,0.6875
906,1695773465496,-0.23852539,-0.9290161,0.3751831,-0.703125,-0.6875,1.03125
907,1695773465530,-0.23803711,-0.9282837,0.38153076,-1.515625,-1.5,-0.15625
908,1695773465574,-0.24731445,-0.92926025,0.37982178,-2.4375,-0.984375,-1.171875
909,1695773465603,-0.2512207,-0.91851807,0.37738037,-0.125,-0.328125,0.359375
910,1695773465648,-0.22729492,-0.9380493,0.3727417,-0.4375,-0.75,-0.1875
911,1695773465691,-0.23730469,-0.91534424,0.38079834,-0.8125,-0.609375,-0.625
