,timestamp,accel_x,accel_y,accel_z,gyro_x,gyro_y,gyro_z
0,1695772434311,-0.13085938,-0.96173096,0.21038818,-1.046875,-1.90625,1.109375
1,1695772434356,-0.1550293,-1.0039673,0.21575928,0.921875,-0.59375,0.03125
2,1695772434386,-0.12792969,-1.0186157,0.2098999,-2.171875,-0.53125,-1.015625
3,1695772434431,-0.115478516,-0.9768677,0.21624756,-1.453125,1.515625,-2.546875
4,1695772434476,-0.10522461,-0.9763794,0.18841553,-1.203125,2.53125,-2.03125
5,1695772434506,-0.12109375,-0.95635986,0.19354248,-1.359375,0.21875,1.0
6,1695772434551,-0.12475586,-0.9717407,0.19744873,0.109375,0.21875,1.28125
7,1695772434581,-0.10571289,-1.0149536,0.21087646,-1.734375,0.234375,-0.75
8,1695772434626,-0.10498047,-0.98883057,0.21551514,-2.421875,-0.375,-1.265625
9,1695772434672,-0.10546875,-0.97906494,0.20135498,-2.765625,-2.078125,-1.171875
10,1695772434702,-0.122558594,-0.96832275,0.2189331,1.21875,-2.28125,-0.359375
11,1695772434747,-0.14672852,-1.010315,0.2506714,2.46875,1.765625,1.09375
12,1695772434792,-0.17602539,-0.95098877,0.20697021,8.109375,4.390625,4.828125
13,1695772434822,-0.13476562,-0.9763794,0.2033081,4.625,5.84375,3.84375
14,1695772434867,-0.07421875,-0.9993286,0.1762085,0.71875,1.734375,-3.65625
15,1695772434896,-0.100097656,-1.0344849,0.19085693,-2.203125,0.0,1.265625
16,1695772434943,-0.11376953,-1.0027466,0.19915771,-0.59375,0.59375,3.15625
17,1695772434988,-0.13793945,-0.93878174,0.19329834,-1.296875,1.515625,4.625
18,1695772435017,-0.095214844,-0.98101807,0.18865967,2.671875,2.90625,1.625
19,1695772435062,-0.064697266,-0.97442627,0.19256592,0.0625,2.015625,1.0625
20,1695772435111,-0.06640625,-0.9866333,0.18328857,0.453125,0.328125,0.296875
21,1695772435139,-0.0859375,-1.0022583,0.19598389,0.484375,0.21875,0.921875
22,1695772435186,-0.100097656,-1.0095825,0.17547607,-0.046875,-0.09375,2.09375
23,1695772435214,-0.11401367,-0.9834595,0.19134521,-1.9375,0.234375,1.578125
24,1695772435259,-0.07910156,-1.0093384,0.19378662,0.953125,3.140625,1.609375
25,1695772435302,-0.07763672,-0.98931885,0.17352295,1.125,2.9375,1.109375
26,1695772435333,-0.067871094,-0.9859009,0.18572998,0.078125,3.140625,-2.015625
27,1695772435381,-0.055908203,-0.9734497,0.15618896,4.640625,1.3125,-0.15625
28,1695772435423,-0.060302734,-0.9812622,0.1630249,4.0,-1.375,0.03125
29,1695772435454,-0.08959961,-1.0025024,0.17401123,7.171875,-0.046875,4.90625
30,1695772435499,-0.06958008,-1.0137329,0.15692139,0.265625,-0.125,0.015625
31,1695772435530,-0.09106445,-1.0003052,0.14959717,-3.109375,-1.515625,-4.328125
32,1695772435574,-0.0871582,-0.99346924,0.16595459,0.90625,0.5625,-2.0625
33,1695772435620,-0.07495117,-0.99786377,0.16082764,-2.8125,0.4375,-1.96875
34,1695772435649,-0.09008789,-0.986145,0.15228271,-2.828125,-1.046875,-2.125
35,1695772435697,-0.10083008,-0.9885864,0.16668701,-1.515625,-0.953125,-1.125
36,1695772435737,-0.0949707,-0.96466064,0.15472412,-1.78125,-0.65625,0.8125
37,1695772435769,-0.087646484,-0.9656372,0.15863037,-0.6875,-0.265625,-0.265625
38,1695772435815,-0.039794922,-0.99005127,0.17181396,-2.4375,-2.359375,-5.265625
39,1695772435845,-0.095214844,-1.0508423,0.16937256,-4.21875,-4.484375,-3.03125
40,1695772435889,-0.07128906,-1.0305786,0.2111206,-0.90625,-2.734375,-5.21875
41,1695772435934,-0.16259766,-1.0025024,0.16156006,-9.453125,-10.53125,1.671875
42,1695772435963,-0.16430664,-0.92803955,0.20037842,-1.921875,1.25,5.390625
43,1695772436009,-0.09472656,-0.98321533,0.18035889,-1.015625,3.21875,-4.515625
44,1695772436055,-0.11376953,-1.0125122,0.17474365,-4.15625,1.125,-3.375
45,1695772436086,-0.123291016,-0.991272,0.21820068,2.546875,0.421875,-2.1875
46,1695772436130,-0.12866211,-1.0088501,0.19915771,-0.4375,6.875,1.3125
47,1695772436159,-0.092285156,-0.9151001,0.15057373,-1.4375,3.40625,2.78125
48,1695772436204,-0.063964844,-0.9338989,0.18328857,5.8125,-0.59375,-1.078125
49,1695772436250,-0.07861328,-1.039856,0.19158936,3.75,-0.328125,-0.25
50,1695772436278,-0.075683594,-1.005188,0.17449951,-2.46875,-2.34375,-2.125
51,1695772436322,-0.092041016,-0.9717407,0.18695068,-0.21875,-0.109375,-2.296875
52,1695772436368,-0.10424805,-1.0337524,0.1876831,-0.59375,0.265625,-2.15625
53,1695772436400,-0.1538086,-0.987854,0.17230225,-2.765625,-2.421875,6.28125
54,1695772436447,-0.12573242,-0.93414307,0.1864624,-0.328125,-0.71875,0.328125
55,1695772436473,-0.119628906,-1.0298462,0.18914795,-1.203125,1.78125,-1.234375
56,1695772436517,-0.118652344,-0.9534302,0.19378662,2.125,3.234375,3.5625
57,1695772436565,-0.10668945,-0.97320557,0.15203857,-1.59375,0.34375,-2.25
58,1695772436595,-0.068115234,-0.98272705,0.18572998,-1.359375,1.515625,-4.5
59,1695772436640,-0.068603516,-1.0442505,0.19500732,-0.828125,0.796875,-0.859375
60,1695772436672,-0.09887695,-0.9968872,0.16888428,-1.9375,-1.71875,1.21875
61,1695772436715,-0.12597656,-0.9849243,0.18035889,-1.953125,-1.28125,-0.375
62,1695772436759,-0.11425781,-0.97052,0.19818115,-0.6875,0.8125,-0.25
63,1695772436787,-0.10571289,-0.98565674,0.16278076,0.234375,0.109375,0.03125
64,1695772436831,-0.09082031,-0.97076416,0.16937256,-1.046875,-0.515625,0.125
65,1695772436877,-0.14819336,-0.9841919,0.19281006,4.046875,1.359375,4.125
66,1695772436907,-0.09716797,-1.0357056,0.1762085,0.6875,3.5625,3.359375
67,1695772436953,-0.110839844,-0.95806885,0.15472412,-2.765625,1.96875,2.984375
68,1695772436982,-0.09887695,-0.98223877,0.18157959,-0.65625,3.6875,0.5
69,1695772437027,-0.06347656,-1.03302,0.18157959,-0.5625,1.359375,-0.125
70,1695772437074,-0.030517578,-1.0020142,0.18011475,-3.90625,-0.109375,-0.171875
71,1695772437103,-0.06689453,-0.9763794,0.16497803,-2.703125,-1.4375,0.5625
72,1695772437152,-0.07763672,-0.9702759,0.17352295,-0.78125,-3.1875,0.75
73,1695772437198,-0.0925293,-0.9710083,0.19476318,-2.15625,-3.734375,0.9375
74,1695772437222,-0.09033203,-0.99053955,0.19622803,0.25,-2.6875,0.421875
75,1695772437268,-0.084472656,-0.9741821,0.2218628,0.71875,-0.53125,0.09375
76,1695772437303,-0.09350586,-0.9927368,0.17034912,-3.3125,-1.09375,-1.890625
77,1695772437343,-0.07397461,-0.9553833,0.20941162,-0.375,-0.8125,-2.21875
78,1695772437391,-0.0769043,-1.022522,0.18670654,-2.09375,0.53125,-2.59375
79,1695772437419,-0.11035156,-0.9985962,0.18670654,-2.40625,-1.109375,0.53125
80,1695772437463,-0.09057617,-0.97784424,0.19989014,-0.359375,-0.265625,-0.625
81,1695772437511,-0.07861328,-1.0029907,0.19158936,-2.875,-0.90625,-2.03125
82,1695772437539,-0.075927734,-0.9824829,0.18963623,-1.390625,-0.15625,-1.453125
83,1695772437583,-0.10546875,-0.97052,0.18597412,-1.078125,-0.140625,-0.46875
84,1695772437615,-0.09472656,-0.97442627,0.18475342,-0.578125,-0.28125,0.46875
85,1695772437662,-0.08325195,-0.98809814,0.1876831,-1.09375,-0.25,-2.25
86,1695772437706,-0.09667969,-1.0125122,0.20355225,0.703125,-0.25,-0.953125
87,1695772437735,-0.10229492,-1.0015259,0.19793701,-0.25,-0.171875,-0.59375
88,1695772437778,-0.09765625,-0.97247314,0.19036865,1.53125,1.578125,-0.125
89,1695772437823,-0.10961914,-1.0003052,0.17669678,-1.53125,1.859375,-0.390625
90,1695772437854,-0.09667969,-0.97369385,0.18621826,-3.5625,-0.671875,-0.5
91,1695772437899,-0.1081543,-0.99591064,0.19525146,-2.5625,1.5,-0.546875
92,1695772437928,-0.11254883,-0.9837036,0.20794678,0.515625,2.40625,1.421875
93,1695772437975,-0.072509766,-0.9898071,0.19158936,-3.109375,2.328125,-3.40625
94,1695772438019,-0.088378906,-0.9795532,0.1876831,-2.5,0.53125,-2.203125
95,1695772438050,-0.1171875,-0.9673462,0.21575928,1.515625,0.828125,0.671875
96,1695772438097,-0.10888672,-0.9783325,0.20770264,1.71875,3.40625,1.65625
97,1695772438140,-0.11328125,-0.9939575,0.19036865,-0.390625,1.859375,1.515625
98,1695772438169,-0.08569336,-0.9846802,0.21722412,1.8125,3.4375,-0.84375
99,1695772438215,-0.076171875,-1.0310669,0.19329834,0.96875,2.0,-1.171875
100,1695772438245,-0.09033203,-0.96710205,0.18719482,-1.21875,1.265625,1.296875
101,1695772438291,-0.08300781,-0.9702759,0.19012451,1.078125,1.71875,-2.140625
102,1695772438336,-0.09765625,-1.0027466,0.18548584,-0.96875,0.53125,0.21875
103,1695772438364,-0.107666016,-0.9841919,0.20281982,0.90625,0.28125,2.3125
104,1695772438407,-0.10449219,-0.95928955,0.20062256,0.15625,1.984375,-1.3125
105,1695772438456,-0.08081055,-0.9690552,0.1708374,-0.578125,1.109375,-2.34375
106,1695772438485,-0.08178711,-1.0064087,0.19671631,-2.078125,-2.75,-1.015625
107,1695772438532,-0.11816406,-1.0112915,0.20379639,-1.046875,-1.296875,1.09375
108,1695772438559,-0.10668945,-0.9819946,0.18719482,-0.390625,-0.078125,-0.328125
109,1695772438605,-0.08666992,-0.9780884,0.18695068,-2.953125,0.265625,-2.265625
110,1695772438650,-0.095703125,-0.9871216,0.19281006,-1.984375,-1.03125,-1.3125
111,1695772438680,-0.087890625,-0.99176025,0.1918335,-2.546875,-1.28125,-1.84375
112,1695772438726,-0.10107422,-0.9829712,0.18719482,-4.421875,-0.78125,-2.046875
113,1695772438799,-0.11035156,-0.9636841,0.2008667,2.28125,2.25,1.234375
114,1695772438803,-0.0925293,-1.0291138,0.22161865,6.578125,2.921875,0.6875
115,1695772438848,-0.13549805,-0.9800415,0.21331787,2.078125,0.703125,4.3125
116,1695772438874,-0.1171875,-1.0064087,0.18695068,3.78125,3.234375,1.78125
117,1695772438919,-0.08251953,-0.9805298,0.17938232,1.203125,3.6875,0.40625
118,1695772438964,-0.080566406,-0.9951782,0.17254639,0.171875,1.90625,-1.65625
119,1695772438995,-0.110839844,-0.97613525,0.18695068,-1.203125,1.59375,-0.734375
120,1695772439041,-0.0925293,-0.98150635,0.1671753,2.53125,2.0,0.1875
121,1695772439083,-0.0625,-0.9800415,0.14276123,-0.171875,1.796875,1.828125
122,1695772439114,-0.080566406,-0.99420166,0.16912842,3.8125,-2.34375,-0.078125
123,1695772439159,-0.115478516,-1.000061,0.17474365,0.515625,0.03125,0.84375
124,1695772439190,-0.08935547,-0.9768677,0.1618042,1.78125,0.90625,0.1875
125,1695772439234,-0.072265625,-0.96954346,0.14422607,3.328125,-2.234375,-1.578125
126,1695772439280,-0.068359375,-0.99786377,0.15032959,2.71875,-2.5625,1.03125
127,1695772439312,-0.095703125,-0.9837036,0.16864014,0.140625,-1.796875,-0.375
128,1695772439358,-0.087646484,-1.000061,0.14398193,-2.21875,-0.828125,-4.28125
129,1695772439398,-0.09399414,-1.0042114,0.14007568,-0.625,-1.40625,-2.03125
130,1695772439429,-0.09033203,-1.0115356,0.16497803,1.75,-0.140625,0.875
131,1695772439476,-0.087646484,-0.99468994,0.14105225,-2.078125,0.65625,-0.65625
132,1695772439503,-0.10864258,-0.9846802,0.15496826,-1.59375,0.78125,-0.21875
133,1695772439550,-0.104003906,-0.9573364,0.15472412,-0.640625,0.96875,-2.359375
134,1695772439594,-0.1015625,-0.9866333,0.14105225,-2.828125,-0.859375,-1.75
135,1695772439624,-0.0925293,-0.9834595,0.15301514,-1.0,-1.03125,-0.59375
136,1695772439670,-0.0925293,-1.010315,0.15447998,-2.453125,-0.5625,-0.6875
137,1695772439715,-0.12231445,-1.0081177,0.17156982,-0.890625,-0.734375,3.546875
138,1695772439742,-0.107910156,-0.9649048,0.16033936,-0.140625,2.546875,1.109375
139,1695772439789,-0.05810547,-0.9927368,0.15179443,0.375,3.078125,-1.78125
140,1695772439817,-0.067871094,-1.0054321,0.15301514,-4.0,-2.140625,-2.34375
141,1695772439863,-0.10058594,-1.0039673,0.15765381,-2.171875,-2.859375,0.296875
142,1695772439908,-0.11767578,-0.9846802,0.16082764,-1.1875,-2.359375,2.140625
143,1695772439939,-0.11254883,-0.972229,0.19525146,-2.484375,-0.734375,0.3125
144,1695772439986,-0.103515625,-1.0090942,0.16741943,1.546875,0.21875,-0.1875
145,1695772440016,-0.099121094,-0.9536743,0.16375732,-2.21875,2.28125,0.140625
146,1695772440060,-0.063964844,-0.96417236,0.1749878,-2.890625,0.765625,-2.140625
147,1695772440103,-0.060302734,-1.0317993,0.16644287,0.03125,-1.0,-0.984375
148,1695772440137,-0.09423828,-1.0386353,0.17449951,-1.375,-3.984375,1.25
149,1695772440179,-0.10498047,-0.97247314,0.16326904,-5.140625,-2.359375,-0.125
150,1695772440225,-0.10620117,-0.954895,0.17596436,-1.75,0.15625,1.109375
151,1695772440255,-0.09741211,-0.96466064,0.17816162,0.828125,0.890625,0.078125
152,1695772440300,-0.10107422,-0.9963989,0.18255615,-0.640625,-0.65625,-1.921875
153,1695772440328,-0.08642578,-1.0115356,0.18231201,-3.390625,-0.140625,-2.859375
154,1695772440376,-0.075927734,-0.99224854,0.17352295,-0.421875,0.71875,0.046875
155,1695772440417,-0.10913086,-0.97052,0.17279053,-2.859375,-0.125,1.109375
156,1695772440448,-0.11230469,-0.97735596,0.19354248,-1.03125,0.75,0.578125
157,1695772440499,-0.09375,-0.99957275,0.19598389,-1.84375,0.5625,-1.484375
158,1695772440540,-0.09667969,-0.9780884,0.18133545,-2.71875,0.6875,-0.625
159,1695772440570,-0.091796875,-0.9834595,0.19134521,1.390625,0.140625,0.671875
160,1695772440615,-0.0793457,-0.9834595,0.1876831,0.71875,0.09375,-0.578125
161,1695772440644,-0.072509766,-0.987854,0.1618042,-1.78125,-0.828125,-2.875
162,1695772440692,-0.10498047,-0.9771118,0.1942749,-1.140625,-2.625,-3.8125
163,1695772440735,-0.11401367,-1.0044556,0.19720459,1.84375,-0.65625,-1.515625
164,1695772440764,-0.14086914,-0.9800415,0.18670654,-3.65625,-0.359375,0.375
165,1695772440813,-0.119140625,-0.9829712,0.18353271,-1.15625,1.984375,0.09375
166,1695772440859,-0.11010742,-0.98638916,0.18670654,0.171875,1.078125,1.5
167,1695772440884,-0.087402344,-0.98150635,0.20159912,-1.09375,0.125,-1.03125
168,1695772440931,-0.103515625,-0.99591064,0.18035889,-4.421875,-1.171875,-2.140625
169,1695772440961,-0.10083008,-0.9644165,0.18939209,-2.9375,-0.265625,-1.75
170,1695772441005,-0.119628906,-0.9976196,0.17938232,0.25,0.390625,0.5625
171,1695772441052,-0.11352539,-0.9949341,0.18011475,-2.890625,0.90625,1.46875
172,1695772441081,-0.111572266,-0.97540283,0.22113037,0.984375,0.703125,1.78125
173,1695772441122,-0.1105957,-0.9920044,0.20892334,2.265625,4.390625,0.53125
174,1695772441170,-0.10961914,-0.9937134,0.184021,-2.234375,2.703125,-0.125
175,1695772441198,-0.1105957,-0.9505005,0.19036865,-0.953125,2.171875,1.046875
176,1695772441243,-0.095214844,-0.9846802,0.17254639,0.0625,2.921875,2.28125
177,1695772441274,-0.072021484,-1.0081177,0.19940186,1.09375,2.296875,3.21875
178,1695772441321,-0.07885742,-0.9993286,0.20892334,0.8125,2.59375,1.859375
179,1695772441367,-0.079589844,-0.9805298,0.1828003,2.78125,2.46875,-1.03125
180,1695772441395,-0.083496094,-0.956604,0.17547607,1.328125,-0.0625,0.953125
181,1695772441438,-0.0715332,-0.9920044,0.18060303,0.921875,-0.21875,-0.484375
182,1695772441483,-0.057373047,-0.99346924,0.15545654,-4.359375,-2.203125,-1.984375
183,1695772441514,-0.08251953,-1.0137329,0.20013428,0.0,-2.359375,-0.828125
184,1695772441559,-0.10083008,-0.9854126,0.16497803,-0.140625,-2.9375,0.859375
185,1695772441590,-0.1159668,-0.9529419,0.17230225,-3.171875,-1.359375,-4.21875
186,1695772441637,-0.1015625,-0.98931885,0.18670654,1.125,-1.671875,-3.84375
187,1695772441681,-0.09741211,-0.9841919,0.19573975,-2.515625,-1.625,-2.078125
188,1695772441710,-0.10913086,-0.98638916,0.1942749,-4.140625,-1.046875,-1.734375
189,1695772441757,-0.078125,-1.0308228,0.2411499,2.59375,0.8125,0.359375
190,1695772441803,-0.125,-0.9824829,0.18475342,-5.5,-4.828125,1.703125
191,1695772441831,-0.11694336,-0.9390259,0.20428467,-2.359375,-5.09375,-4.609375
192,1695772441873,-0.071777344,-1.0425415,0.15447998,-2.65625,-1.5,-2.609375
193,1695772441902,-0.091552734,-0.9312134,0.19329834,1.109375,-1.90625,0.71875
194,1695772441947,-0.13745117,-1.0374146,0.18890381,4.5,-2.796875,-1.75
195,1695772441992,-0.1303711,-0.973938,0.19451904,2.265625,1.765625,2.359375
196,1695772442030,-0.11767578,-0.9800415,0.17156982,1.15625,0.03125,1.0
197,1695772442067,-0.100097656,-0.9312134,0.14593506,1.84375,1.609375,0.25
198,1695772442114,-0.087890625,-0.98394775,0.16351318,1.703125,-1.8125,-4.09375
199,1695772442142,-0.111328125,-1.024231,0.17962646,-1.703125,-2.90625,-3.1875
200,1695772442187,-0.115234375,-1.008606,0.18328857,-3.0,1.046875,-0.71875
201,1695772442220,-0.10961914,-1.0025024,0.18353271,2.109375,1.953125,0.359375
202,1695772442264,-0.13720703,-0.95758057,0.17572021,-1.984375,1.0,-0.734375
203,1695772442310,-0.11254883,-0.9807739,0.16375732,-0.96875,1.0625,-2.40625
204,1695772442343,-0.11621094,-0.9961548,0.18353271,-0.4375,2.328125,-1.6875
205,1695772442386,-0.12646484,-0.989563,0.1786499,-0.46875,1.546875,-1.859375
206,1695772442431,-0.13305664,-1.0015259,0.17059326,-0.9375,1.328125,0.09375
207,1695772442459,-0.1315918,-0.9624634,0.1708374,-0.609375,1.5625,0.84375
208,1695772442502,-0.115478516,-0.989563,0.16473389,0.3125,0.359375,-1.1875
209,1695772442534,-0.12890625,-0.9956665,0.18914795,2.09375,0.09375,1.34375
210,1695772442584,-0.13256836,-1.0203247,0.16009521,-2.21875,1.25,-0.078125
211,1695772442625,-0.12402344,-0.9524536,0.17230225,-1.0625,2.5,0.21875
212,1695772442656,-0.14331055,-1.0149536,0.17327881,1.0625,3.34375,3.484375
213,1695772442698,-0.111328125,-0.9741821,0.16644287,0.90625,2.0,3.5
214,1695772442747,-0.07543945,-1.0025024,0.16619873,-1.390625,2.34375,-0.234375
215,1695772442775,-0.10083008,-0.99102783,0.18133545,-0.84375,1.84375,1.046875
216,1695772442821,-0.092041016,-0.9812622,0.1539917,-2.890625,-0.5625,-1.84375
217,1695772442852,-0.09741211,-0.98223877,0.17303467,-1.109375,-1.90625,-0.90625
218,1695772442896,-0.10546875,-1.0039673,0.17254639,-1.25,-1.5,-0.40625
219,1695772442940,-0.11303711,-0.9976196,0.1852417,-0.328125,-1.359375,0.234375
220,1695772442968,-0.11401367,-0.9937134,0.1786499,0.25,1.0625,-0.25
221,1695772443012,-0.099121094,-0.9741821,0.1798706,-4.375,-1.46875,-1.609375
222,1695772443058,-0.1171875,-0.95684814,0.16497803,-5.53125,-1.75,-3.71875
223,1695772443088,-0.122558594,-1.0127563,0.18231201,1.484375,-1.28125,-1.28125
224,1695772443133,-0.11645508,-1.019104,0.2008667,-1.921875,0.46875,0.859375
225,1695772443167,-0.12231445,-0.9859009,0.17327881,-4.96875,-1.078125,1.5
226,1695772443208,-0.12402344,-0.9639282,0.19793701,-0.71875,0.359375,0.5
227,1695772443254,-0.087890625,-0.9829712,0.18817139,-2.546875,-0.078125,-1.265625
228,1695772443283,-0.08935547,-0.9717407,0.18572998,-3.1875,-2.484375,-1.703125
229,1695772443329,-0.12548828,-0.99786377,0.18792725,-0.578125,-0.90625,0.8125
230,1695772443373,-0.13012695,-0.9751587,0.18548584,-0.015625,1.09375,2.421875
231,1695772443403,-0.111083984,-0.98272705,0.1876831,-1.03125,1.203125,1.078125
232,1695772443449,-0.10253906,-0.99224854,0.20770264,-0.578125,0.34375,-0.53125
233,1695772443479,-0.10058594,-1.0056763,0.16693115,-2.34375,0.453125,-1.421875
234,1695772443523,-0.0847168,-0.94976807,0.18157959,-3.359375,-0.09375,-2.15625
235,1695772443569,-0.1159668,-0.9776001,0.22113037,0.46875,-0.78125,-0.703125
236,1695772443599,-0.10546875,-1.0125122,0.2189331,2.453125,1.421875,-2.765625
237,1695772443645,-0.12939453,-1.0234985,0.17254639,-8.046875,-1.328125,-2.171875
238,1695772443676,-0.11791992,-0.96221924,0.21087646,3.53125,-2.53125,-4.375
239,1695772443720,-0.1459961,-0.97198486,0.19476318,-1.875,-1.0625,-3.65625
240,1695772443763,-0.13623047,-0.9356079,0.19573975,0.65625,1.125,-1.125
241,1695772443794,-0.110839844,-1.0474243,0.21331787,6.6875,3.078125,-2.984375
242,1695772443839,-0.15112305,-1.0144653,0.215271,2.328125,5.828125,3.546875
243,1695772443882,-0.15405273,-0.9561157,0.1954956,7.890625,4.09375,2.71875
244,1695772443912,-0.13891602,-0.94976807,0.16766357,0.46875,4.234375,-2.59375
245,1695772443960,-0.099121094,-1.0046997,0.14813232,2.4375,2.453125,2.28125
246,1695772443991,-0.110839844,-0.97076416,0.17230225,4.578125,0.625,3.125
247,1695772444035,-0.13867188,-0.97052,0.14324951,1.71875,1.03125,0.71875
248,1695772444080,-0.11328125,-0.9619751,0.15472412,3.71875,0.640625,0.796875
249,1695772444110,-0.09277344,-0.9968872,0.1281128,0.28125,0.25,-0.03125
250,1695772444158,-0.11328125,-1.003479,0.1515503,1.46875,0.453125,2.265625
251,1695772444198,-0.107910156,-0.99224854,0.16131592,-0.390625,-0.375,-0.4375
252,1695772444228,-0.10595703,-1.015686,0.15814209,-0.890625,1.765625,0.109375
253,1695772444273,-0.11816406,-0.97198486,0.137146,1.609375,0.671875,1.1875
254,1695772444305,-0.11035156,-0.9663696,0.1395874,0.734375,1.828125,-0.71875
255,1695772444349,-0.10888672,-1.0059204,0.14276123,0.34375,0.78125,-2.53125
256,1695772444395,-0.10620117,-0.99005127,0.15911865,-2.0625,-0.078125,-1.390625
257,1695772444428,-0.12841797,-1.0061646,0.13616943,-1.203125,-2.140625,0.75
258,1695772444468,-0.1105957,-0.9819946,0.12298584,-1.828125,-0.921875,-0.4375
259,1695772444514,-0.09033203,-1.0037231,0.15570068,0.515625,-0.09375,0.609375
260,1695772444542,-0.12817383,-0.9837036,0.13348389,-1.28125,-2.515625,1.578125
261,1695772444589,-0.1328125,-0.9819946,0.13885498,-3.5,-3.625,-1.4375
262,1695772444619,-0.12133789,-1.0159302,0.14007568,-1.84375,0.453125,-1.84375
263,1695772444665,-0.11279297,-0.98150635,0.14886475,-2.171875,0.421875,1.140625
264,1695772444710,-0.111572266,-0.9837036,0.1293335,-2.859375,-1.359375,0.125
265,1695772444738,-0.11230469,-0.98809814,0.15863037,-5.1875,0.265625,-0.421875
266,1695772444783,-0.09814453,-0.9927368,0.17547607,-1.546875,-1.625,0.75
267,1695772444828,-0.103759766,-1.0061646,0.16375732,-2.453125,-0.578125,2.6875
268,1695772444858,-0.10229492,-0.99542236,0.13934326,-4.375,-2.984375,1.78125
269,1695772444903,-0.10205078,-0.9717407,0.17181396,-4.0,-0.828125,1.53125
270,1695772444933,-0.11352539,-0.99053955,0.17352295,-0.796875,-1.609375,3.234375
271,1695772444980,-0.10986328,-0.98883057,0.17596436,-3.578125,-2.140625,0.0
272,1695772445025,-0.09667969,-0.99224854,0.1828003,-2.4375,-0.21875,-2.984375
273,1695772445055,-0.09692383,-0.9990845,0.1671753,-4.21875,0.265625,-0.75
274,1695772445101,-0.095458984,-0.95928955,0.18499756,-0.265625,1.5,2.328125
275,1695772445144,-0.09863281,-0.9783325,0.199646,-2.296875,-0.3125,-0.5
276,1695772445175,-0.080078125,-1.0210571,0.1930542,-3.5,0.640625,-1.0625
277,1695772445221,-0.08300781,-0.9812622,0.1930542,-1.703125,0.84375,0.0
278,1695772445248,-0.09008789,-0.9612427,0.19085693,-3.75,0.359375,-0.6875
279,1695772445294,-0.10107422,-0.98565674,0.19036865,0.515625,-0.609375,-0.09375
280,1695772445340,-0.107666016,-0.9800415,0.20184326,-3.578125,0.875,-1.671875
281,1695772445369,-0.10839844,-0.9956665,0.2008667,-0.75,-0.5625,-1.578125
282,1695772445414,-0.114746094,-0.98223877,0.22991943,1.96875,1.15625,-1.203125
283,1695772445459,-0.10571289,-1.0039673,0.18157959,4.484375,2.859375,-1.796875
284,1695772445490,-0.10595703,-0.96466064,0.16888428,-9.671875,1.171875,-0.265625
285,1695772445532,-0.11791992,-0.94244385,0.16790771,-3.578125,-0.59375,-5.765625
286,1695772445563,-0.10180664,-1.0078735,0.20721436,-0.484375,1.25,0.34375
287,1695772445610,-0.09350586,-1.0361938,0.2741089,3.546875,3.203125,0.78125
288,1695772445657,-0.119140625,-0.9990845,0.21478271,-3.546875,0.484375,3.3125
289,1695772445685,-0.0925293,-0.92803955,0.17352295,-0.71875,-1.453125,-5.40625
290,1695772445730,-0.11328125,-0.95513916,0.19915771,-2.59375,0.296875,-0.46875
291,1695772445774,-0.114990234,-1.02594,0.22918701,4.9375,-1.203125,-1.859375
292,1695772445804,-0.13549805,-1.005188,0.21551514,-5.765625,-4.6875,-4.0
293,1695772445849,-0.10449219,-0.99176025,0.2230835,7.515625,0.0,-4.6875
294,1695772445879,-0.14257812,-0.9920044,0.16864014,-1.296875,-0.421875,1.375
295,1695772445923,-0.12719727,-0.90875244,0.15032959,8.265625,0.9375,1.234375
296,1695772445967,-0.10205078,-1.0230103,0.19793701,5.25,3.046875,-2.53125
297,1695772446000,-0.13867188,-1.0383911,0.18328857,3.9375,1.484375,-0.359375
298,1695772446045,-0.14819336,-0.9295044,0.16033936,0.3125,1.296875,1.34375
299,1695772446090,-0.1328125,-0.96954346,0.137146,1.5,-0.359375,-1.421875
300,1695772446119,-0.09838867,-1.0032349,0.15008545,-0.03125,1.65625,-1.203125
301,1695772446164,-0.10473633,-1.0149536,0.17791748,1.703125,0.25,1.171875
302,1695772446242,-0.12719727,-0.9717407,0.1605835,0.21875,0.109375,-1.65625
303,1695772446245,-0.13061523,-0.9841919,0.1630249,-0.046875,-1.34375,-2.96875
304,1695772446283,-0.13598633,-1.000061,0.15838623,-1.609375,-1.59375,-0.203125
305,1695772446315,-0.12988281,-0.97906494,0.1461792,-0.890625,0.484375,0.28125
306,1695772446359,-0.12719727,-0.99468994,0.17376709,0.203125,1.015625,0.8125
307,1695772446405,-0.12768555,-0.98150635,0.17352295,0.59375,-0.59375,0.0625
308,1695772446434,-0.12207031,-0.9883423,0.15960693,-2.359375,-0.9375,-2.828125
309,1695772446480,-0.13891602,-0.9776001,0.16351318,-0.765625,1.21875,-0.34375
310,1695772446511,-0.14428711,-0.99005127,0.16473389,-1.6875,-0.375,0.90625
311,1695772446554,-0.1694336,-1.0127563,0.15960693,-3.15625,1.171875,1.9375
312,1695772446597,-0.1472168,-0.9558716,0.16204834,-2.296875,4.140625,1.109375
313,1695772446628,-0.11425781,-0.99176025,0.17596436,-0.515625,3.703125,0.171875
314,1695772446676,-0.08544922,-0.9727173,0.16009521,-1.65625,2.65625,-1.546875
315,1695772446722,-0.11352539,-1.0083618,0.16278076,-2.625,1.171875,0.203125
316,1695772446753,-0.12817383,-0.97784424,0.16107178,-0.453125,-0.609375,1.921875
317,1695772446798,-0.111083984,-0.9829712,0.18719482,-0.25,-0.546875,-0.65625
318,1695772446822,-0.12939453,-0.9985962,0.17718506,-2.53125,-2.09375,-0.234375
319,1695772446870,-0.114746094,-0.9680786,0.18060303,-1.40625,-1.109375,-1.296875
320,1695772446914,-0.122558594,-0.99664307,0.1762085,-2.75,-1.9375,-2.53125
321,1695772446944,-0.14404297,-0.9920044,0.1876831,-1.734375,-1.34375,0.28125
322,1695772446989,-0.11694336,-0.9819946,0.17108154,-1.359375,0.265625,-0.5625
323,1695772447017,-0.1430664,-0.9924927,0.18499756,-4.234375,-1.0,1.578125
324,1695772447064,-0.1303711,-0.96221924,0.19256592,-1.71875,-1.625,0.328125
325,1695772447109,-0.1328125,-1.0308228,0.19940186,-4.609375,-0.515625,-0.40625
326,1695772447138,-0.15478516,-1.0134888,0.20599365,-7.71875,-1.03125,3.171875
327,1695772447185,-0.12915039,-0.98687744,0.19012451,-2.203125,-0.1875,3.046875
328,1695772447228,-0.1340332,-0.9741821,0.19818115,-3.65625,1.140625,2.9375
329,1695772447257,-0.09838867,-0.9385376,0.18963623,-0.109375,-2.78125,3.0625
330,1695772447303,-0.07861328,-0.9944458,0.21014404,1.015625,-0.1875,-0.9375
331,1695772447334,-0.08544922,-0.98565674,0.20111084,-1.328125,-1.109375,-2.921875
332,1695772447377,-0.11767578,-0.9746704,0.18988037,-3.1875,-2.796875,-0.6875
333,1695772447424,-0.10473633,-0.96173096,0.19866943,2.078125,-1.671875,-1.515625
334,1695772447453,-0.09790039,-1.0022583,0.21722412,1.046875,1.640625,-3.59375
335,1695772447499,-0.10473633,-1.0007935,0.19598389,-1.125,0.890625,-1.84375
336,1695772447545,-0.10253906,-0.98443604,0.21600342,1.84375,-0.0625,-2.078125
337,1695772447571,-0.13476562,-0.97979736,0.21258545,1.0625,-0.46875,-2.65625
338,1695772447617,-0.15039062,-0.975647,0.18499756,-1.53125,-0.609375,-0.59375
339,1695772447649,-0.13793945,-0.96588135,0.19622803,0.421875,0.75,-1.828125
340,1695772447698,-0.12988281,-0.9849243,0.18865967,0.15625,1.578125,-2.65625
341,1695772447741,-0.13452148,-0.97857666,0.18572998,-0.21875,-0.375,-1.046875
342,1695772447775,-0.13500977,-1.0007935,0.20892334,3.40625,0.09375,-1.5625
343,1695772447815,-0.15917969,-1.0110474,0.17523193,-4.734375,-0.46875,-1.265625
344,1695772447859,-0.14746094,-0.9458618,0.18939209,-1.921875,1.171875,-0.25
345,1695772447891,-0.14233398,-0.9937134,0.20941162,2.703125,1.015625,0.671875
346,1695772447934,-0.1574707,-1.0178833,0.18695068,-1.84375,-0.25,0.890625
347,1695772447963,-0.11352539,-0.96710205,0.19085693,-1.15625,1.296875,-2.390625
348,1695772448008,-0.12817383,-0.9932251,0.1749878,0.9375,1.609375,0.015625
349,1695772448053,-0.12963867,-0.9690552,0.18817139,-0.265625,1.015625,1.875
350,1695772448085,-0.1430664,-0.9866333,0.20843506,0.421875,0.3125,0.578125
351,1695772448128,-0.14428711,-1.0122681,0.19403076,-2.296875,1.046875,1.796875
352,1695772448175,-0.12646484,-0.96295166,0.20037842,-1.796875,2.359375,0.375
353,1695772448206,-0.13549805,-0.986145,0.19085693,-0.53125,1.078125,1.546875
354,1695772448251,-0.1184082,-0.9837036,0.18621826,-2.609375,1.375,1.921875
355,1695772448280,-0.13867188,-0.9973755,0.19573975,-1.078125,1.5,5.046875
356,1695772448324,-0.10668945,-0.9480591,0.20379639,-1.03125,1.703125,2.109375
357,1695772448367,-0.10498047,-1.0134888,0.19476318,-0.125,2.140625,2.65625
358,1695772448400,-0.11328125,-0.9678345,0.1906128,-1.828125,1.984375,2.890625
359,1695772448444,-0.092285156,-0.9871216,0.20574951,-3.4375,0.625,1.09375
360,1695772448489,-0.099853516,-1.0327759,0.20599365,-3.21875,-0.390625,4.984375
361,1695772448520,-0.08544922,-0.942688,0.2218628,-2.421875,1.40625,2.109375
362,1695772448566,-0.064697266,-1.000061,0.19012451,-1.78125,3.421875,-1.046875
363,1695772448596,-0.083496094,-0.96343994,0.22210693,-0.171875,0.421875,2.796875
364,1695772448638,-0.064453125,-0.95440674,0.20843506,-3.484375,-1.046875,-0.71875
365,1695772448682,-0.068603516,-1.008606,0.21722412,-2.109375,-2.390625,-0.375
366,1695772448717,-0.10473633,-1.0042114,0.24700928,0.015625,-0.53125,1.1875
367,1695772448758,-0.09716797,-0.9697876,0.21746826,-2.71875,-0.265625,0.078125
368,1695772448803,-0.10839844,-0.960022,0.22161865,-1.21875,-0.734375,-0.90625
369,1695772448833,-0.092041016,-0.9961548,0.22015381,-1.15625,1.53125,-2.96875
370,1695772448883,-0.09448242,-0.96295166,0.2111206,-1.78125,-1.625,-2.421875
371,1695772448911,-0.087402344,-1.0090942,0.2321167,2.015625,1.015625,-2.3125
372,1695772448956,-0.08862305,-0.9939575,0.22747803,-0.375,-0.453125,-0.765625
373,1695772448999,-0.10107422,-0.958313,0.21746826,-3.09375,-0.671875,-1.296875
374,1695772449031,-0.09716797,-0.987854,0.21356201,0.359375,-0.921875,-2.109375
375,1695772449076,-0.107910156,-0.97540283,0.23944092,-0.0625,-0.5,-1.078125
376,1695772449119,-0.08203125,-0.98883057,0.22137451,-1.328125,-0.09375,-4.765625
377,1695772449148,-0.07446289,-0.9873657,0.20599365,0.4375,-1.046875,-5.875
378,1695772449198,-0.115478516,-0.97906494,0.22601318,0.15625,-1.328125,-3.34375
379,1695772449225,-0.1328125,-0.991272,0.20941162,1.328125,-0.921875,-2.890625
380,1695772449269,-0.13623047,-0.9619751,0.2514038,1.203125,-0.453125,-4.921875
381,1695772449317,-0.12084961,-1.0134888,0.17816162,-4.59375,-0.015625,-9.359375
382,1695772449343,-0.1262207,-0.96759033,0.26727295,4.234375,1.625,-4.3125
383,1695772449390,-0.17919922,-1.0164185,0.22723389,0.28125,-0.484375,-5.984375
384,1695772449466,-0.21801758,-0.9348755,0.2008667,-2.453125,-1.25,0.515625
385,1695772449469,-0.15942383,-0.95562744,0.19281006,5.765625,-0.53125,-3.140625
386,1695772449510,-0.1809082,-1.0408325,0.20159912,8.71875,3.40625,5.546875
387,1695772449539,-0.17089844,-0.91607666,0.17279053,4.109375,3.6875,0.8125
388,1695772449584,-0.16870117,-0.97906494,0.12957764,0.953125,1.921875,-2.484375
389,1695772449630,-0.13354492,-0.9456177,0.18450928,2.375,1.765625,-0.65625
390,1695772449658,-0.14379883,-1.0540161,0.17816162,-1.625,-1.890625,1.96875
391,1695772449706,-0.14916992,-0.9710083,0.1864624,4.203125,2.3125,1.8125
392,1695772449751,-0.16699219,-1.0142212,0.18133545,-1.671875,1.609375,1.171875
393,1695772449787,-0.1652832,-0.94781494,0.1642456,-0.328125,0.515625,3.140625
394,1695772449826,-0.11987305,-1.0100708,0.15985107,-1.25,-0.71875,-0.5
395,1695772449854,-0.12573242,-0.99835205,0.18841553,0.09375,2.9375,2.578125
396,1695772449898,-0.14038086,-1.0022583,0.17401123,-1.453125,2.5625,3.421875
397,1695772449946,-0.13842773,-0.95318604,0.16790771,-1.03125,2.0,2.15625
398,1695772449976,-0.10595703,-0.96588135,0.16693115,-0.46875,3.109375,-0.484375
399,1695772450019,-0.12133789,-1.0071411,0.1864624,-0.15625,2.3125,2.625
400,1695772450064,-0.13671875,-1.0007935,0.1828003,-0.890625,0.484375,3.359375
401,1695772450094,-0.13305664,-0.9758911,0.15765381,-3.359375,1.75,-0.25
402,1695772450142,-0.092041016,-0.99224854,0.18206787,-0.078125,3.578125,0.171875
403,1695772450169,-0.1159668,-0.99298096,0.16644287,-0.6875,2.03125,2.4375
404,1695772450214,-0.12207031,-0.98272705,0.17474365,-5.71875,2.09375,2.1875
405,1695772450259,-0.12060547,-1.0039673,0.1954956,-1.109375,1.171875,2.5625
406,1695772450295,-0.09863281,-0.9956665,0.1942749,-1.6875,2.265625,1.359375
407,1695772450333,-0.084472656,-0.97857666,0.19940186,-0.59375,0.953125,0.453125
408,1695772450381,-0.1027832,-0.9981079,0.19207764,-2.6875,-1.53125,-0.375
409,1695772450410,-0.09301758,-0.9595337,0.19207764,-3.875,-3.3125,1.0
410,1695772450454,-0.084228516,-1.0015259,0.20306396,-5.859375,-4.765625,1.03125
411,1695772450482,-0.08935547,-0.9795532,0.2033081,-4.234375,-4.46875,0.03125
412,1695772450530,-0.11425781,-0.9944458,0.22235107,-5.03125,-3.171875,0.09375
413,1695772450575,-0.11669922,-0.95147705,0.20892334,-3.890625,-1.3125,1.03125
414,1695772450605,-0.110839844,-0.96221924,0.21185303,-1.40625,-2.140625,0.984375
415,1695772450649,-0.11987305,-0.9578247,0.21942139,-3.625,-1.40625,-0.40625
416,1695772450678,-0.099365234,-1.0032349,0.21746826,-3.34375,-0.5,-1.796875
417,1695772450724,-0.09765625,-1.0149536,0.2453003,-0.125,0.453125,0.578125
418,1695772450775,-0.08325195,-0.9846802,0.22454834,-1.765625,1.6875,1.125
419,1695772450799,-0.0871582,-0.9480591,0.2230835,-3.40625,0.359375,-2.09375
420,1695772450845,-0.11743164,-0.987854,0.24017334,-1.328125,-0.78125,-1.078125
421,1695772450891,-0.092041016,-0.9763794,0.24041748,-1.265625,-0.6875,-1.796875
422,1695772450919,-0.07373047,-0.98101807,0.24749756,0.5625,0.140625,-1.703125
423,1695772450964,-0.0703125,-0.9727173,0.25213623,2.90625,-2.0,-2.65625
424,1695772450994,-0.11352539,-0.9602661,0.21722412,1.046875,-1.828125,-4.265625
425,1695772451040,-0.11035156,-0.9956665,0.21429443,2.890625,-2.75,-4.828125
426,1695772451087,-0.14941406,-0.99420166,0.25238037,3.6875,0.578125,-1.453125
427,1695772451116,-0.1430664,-1.0042114,0.2255249,3.640625,1.421875,-1.125
428,1695772451161,-0.16064453,-0.958313,0.21307373,2.34375,2.46875,-2.390625
429,1695772451209,-0.13085938,-0.9702759,0.19403076,4.15625,4.90625,-4.15625
430,1695772451237,-0.14624023,-0.9602661,0.18914795,2.921875,1.828125,-1.578125
431,1695772451279,-0.12719727,-1.0090942,0.1828003,3.859375,2.234375,-2.1875
432,1695772451313,-0.14111328,-0.98272705,0.18865967,3.03125,1.40625,0.765625
433,1695772451359,-0.12792969,-0.9944458,0.17034912,3.21875,1.03125,-0.28125
434,1695772451398,-0.13500977,-1.0073853,0.16546631,1.15625,-0.703125,1.453125
435,1695772451431,-0.13378906,-0.97540283,0.17523193,-0.953125,-0.75,-1.421875
436,1695772451474,-0.13598633,-1.0127563,0.16082764,0.21875,-0.265625,-1.015625
437,1695772451518,-0.13012695,-0.98321533,0.16937256,1.765625,-0.578125,-0.09375
438,1695772451547,-0.14916992,-0.989563,0.16448975,-0.96875,-0.0625,-0.4375
439,1695772451595,-0.15112305,-0.9553833,0.16204834,1.125,-0.015625,-1.0
440,1695772451620,-0.1171875,-1.0195923,0.16790771,0.140625,1.515625,-3.40625
441,1695772451666,-0.14526367,-0.9690552,0.17327881,-2.984375,0.859375,-1.46875
442,1695772451727,-0.1484375,-0.9776001,0.17547607,-1.640625,3.078125,-3.03125
443,1695772451740,-0.13549805,-0.9800415,0.18060303,0.765625,3.34375,-0.640625
444,1695772451785,-0.1352539,-0.96588135,0.1786499,0.671875,2.125,-0.90625
445,1695772451832,-0.17382812,-1.0271606,0.18157959,0.21875,0.734375,0.03125
446,1695772451861,-0.1665039,-1.0027466,0.18231201,-0.28125,1.296875,-1.03125
447,1695772451906,-0.17822266,-0.9890747,0.16595459,-2.515625,3.015625,-2.0625
448,1695772451939,-0.123535156,-0.95391846,0.1564331,0.71875,3.203125,-0.390625
449,1695772451981,-0.13916016,-0.9846802,0.15887451,-1.203125,1.25,-0.546875
450,1695772452025,-0.13598633,-0.97979736,0.17034912,-0.890625,2.421875,1.796875
451,1695772452057,-0.16601562,-0.9873657,0.17938232,2.015625,2.46875,3.984375
452,1695772452103,-0.16186523,-0.98272705,0.1630249,-1.21875,2.703125,-1.140625
453,1695772452147,-0.13378906,-0.9834595,0.1708374,-0.421875,3.78125,-0.75
454,1695772452177,-0.115234375,-0.9866333,0.17767334,3.75,2.171875,0.578125
455,1695772452221,-0.13305664,-0.98931885,0.18133545,-0.1875,1.0625,0.28125
456,1695772452250,-0.16235352,-0.9902954,0.15350342,-3.359375,-1.328125,1.859375
457,1695772452296,-0.14135742,-0.973938,0.16033936,0.125,-0.0625,-0.34375
458,1695772452342,-0.13793945,-1.0007935,0.17376709,1.984375,3.015625,1.421875
459,1695772452371,-0.12036133,-0.9973755,0.14544678,0.046875,1.875,2.203125
460,1695772452417,-0.118652344,-0.9949341,0.16375732,-0.703125,1.515625,-0.21875
461,1695772452461,-0.12426758,-0.9961548,0.14593506,1.328125,0.515625,1.453125
462,1695772452492,-0.12768555,-0.96759033,0.15545654,1.4375,1.875,-0.4375
463,1695772452539,-0.1105957,-1.0059204,0.16033936,0.40625,0.296875,-2.484375
464,1695772452567,-0.1274414,-0.9976196,0.15814209,-0.359375,-0.859375,0.140625
465,1695772452614,-0.14550781,-0.98638916,0.17327881,0.265625,-0.328125,1.40625
466,1695772452663,-0.13964844,-0.987854,0.16253662,-1.546875,1.109375,-0.015625
467,1695772452689,-0.15405273,-0.972229,0.15740967,-2.484375,1.25,-1.75
468,1695772452733,-0.12426758,-0.99298096,0.152771,-0.71875,0.0,-2.890625
469,1695772452778,-0.11376953,-1.0108032,0.15423584,-0.828125,-1.3125,-1.09375
470,1695772452808,-0.1352539,-0.9780884,0.17523193,2.921875,-0.5,1.265625
471,1695772452855,-0.1472168,-0.98272705,0.13812256,-4.46875,-1.515625,-1.578125
472,1695772452885,-0.14233398,-0.96881104,0.16497803,0.75,-0.859375,-0.140625
473,1695772452928,-0.1508789,-1.0020142,0.16522217,-1.015625,1.203125,1.59375
474,1695772452975,-0.12963867,-0.9873657,0.16937256,-1.71875,-0.03125,1.421875
475,1695772453005,-0.1340332,-0.9883423,0.1449585,-2.875,1.078125,-1.0
476,1695772453049,-0.14013672,-0.9907837,0.15106201,-2.0625,-0.34375,0.375
477,1695772453093,-0.12646484,-0.99005127,0.1708374,-0.640625,1.859375,4.125
478,1695772453124,-0.111328125,-0.99053955,0.17279053,-1.84375,0.828125,3.5
479,1695772453169,-0.13500977,-1.0154419,0.17254639,-1.546875,-0.421875,4.59375
480,1695772453198,-0.114746094,-0.9546509,0.16522217,-0.53125,1.671875,2.921875
481,1695772453244,-0.09033203,-0.9800415,0.16741943,-4.453125,-0.21875,1.46875
482,1695772453292,-0.087646484,-0.98516846,0.1774292,-2.671875,-0.953125,2.234375
483,1695772453318,-0.068847656,-0.9812622,0.17889404,-0.765625,-1.328125,0.484375
484,1695772453363,-0.099609375,-1.0147095,0.19891357,-4.171875,-5.296875,-3.96875
485,1695772453442,-0.07861328,-0.9807739,0.18255615,-3.09375,-5.78125,-5.875
486,1695772453444,-0.104003906,-0.99713135,0.17474365,-5.0,-4.3125,-5.1875
487,1695772453486,-0.12988281,-0.9639282,0.21673584,2.5625,-5.859375,-0.828125
488,1695772453512,-0.125,-0.9614868,0.19866943,-1.203125,-4.296875,-6.4375
489,1695772453557,-0.13598633,-1.0012817,0.18157959,-0.15625,-3.921875,-4.015625
490,1695772453603,-0.15551758,-0.9697876,0.19525146,1.796875,-3.375,-3.515625
491,1695772453636,-0.18432617,-0.99835205,0.18597412,-0.984375,-0.734375,-1.3125
492,1695772453676,-0.14892578,-0.9505005,0.19696045,2.75,1.59375,-2.828125
493,1695772453722,-0.15649414,-1.0205688,0.18255615,1.125,1.578125,-3.71875
494,1695772453751,-0.1743164,-0.9619751,0.16571045,-0.375,-0.578125,-1.015625
495,1695772453796,-0.1953125,-0.97979736,0.16351318,-1.578125,1.046875,0.421875
496,1695772453826,-0.17358398,-0.98687744,0.1564331,2.125,2.625,1.921875
497,1695772453871,-0.16357422,-1.0042114,0.16619873,-2.078125,2.03125,-0.609375
498,1695772453917,-0.15063477,-0.9956665,0.16741943,-1.640625,3.78125,3.5
499,1695772453948,-0.15771484,-0.9524536,0.16351318,-4.5625,1.484375,3.28125
500,1695772453993,-0.14257812,-0.97784424,0.15740967,-5.328125,3.90625,3.546875
501,1695772454023,-0.15942383,-1.038147,0.19940186,0.625,1.703125,10.015625
502,1695772454067,-0.14135742,-1.0117798,0.20648193,-4.640625,3.703125,8.0
503,1695772454112,-0.09716797,-0.98565674,0.1864624,-3.9375,3.0,4.84375
504,1695772454145,-0.05908203,-0.954895,0.19281006,-3.84375,2.453125,4.328125
505,1695772454190,-0.092041016,-0.9612427,0.20379639,-1.578125,-0.078125,6.40625
506,1695772454233,-0.048339844,-0.95977783,0.20916748,-2.640625,-1.140625,2.890625
507,1695772454265,-0.03540039,-0.9976196,0.19940186,-3.46875,-3.390625,4.515625
508,1695772454309,-0.07421875,-0.94976807,0.22479248,-3.0625,-6.296875,4.25
509,1695772454339,-0.05810547,-0.96466064,0.23895264,-0.59375,-0.828125,2.4375
510,1695772454386,-0.08520508,-0.94610596,0.25335693,3.296875,-1.515625,1.765625
511,1695772454432,-0.005126953,-1.0808716,0.27679443,-4.828125,-0.015625,-7.4375
512,1695772454457,-0.07495117,-1.0396118,0.26287842,-7.1875,-2.484375,0.6875
513,1695772454501,-0.078125,-0.9678345,0.19769287,1.09375,-0.78125,-6.96875
514,1695772454546,-0.087402344,-0.90509033,0.22113037,6.90625,-5.359375,-3.921875
515,1695772454577,-0.10839844,-1.0615845,0.24432373,3.328125,-1.671875,-2.765625
516,1695772454620,-0.10668945,-0.92144775,0.17181396,3.546875,-1.21875,1.125
517,1695772454650,-0.103515625,-0.9356079,0.1395874,5.15625,3.015625,-9.171875
518,1695772454696,-0.11254883,-0.97784424,0.19696045,9.703125,3.015625,-5.609375
519,1695772454741,-0.095947266,-1.0559692,0.20233154,7.203125,2.703125,0.859375
520,1695772454770,-0.14233398,-0.9812622,0.14056396,-4.3125,1.375,0.5625
521,1695772454815,-0.095458984,-0.9668579,0.17230225,3.296875,4.859375,-9.125
522,1695772454861,-0.11352539,-1.050354,0.16571045,1.515625,3.40625,-1.21875
523,1695772454891,-0.13842773,-0.9338989,0.1449585,2.09375,2.171875,-1.0625
524,1695772454936,-0.17626953,-0.9859009,0.14569092,-1.53125,1.53125,-3.84375
525,1695772454981,-0.13989258,-1.0244751,0.15179443,-1.53125,2.859375,-1.578125
526,1695772455010,-0.15014648,-1.0444946,0.1642456,-1.671875,2.453125,3.640625
527,1695772455056,-0.14135742,-0.97369385,0.1473999,-1.34375,4.96875,6.421875
528,1695772455085,-0.11352539,-1.013977,0.1593628,-4.328125,3.953125,4.875
529,1695772455131,-0.064208984,-1.0095825,0.16644287,-4.203125,4.390625,5.328125
530,1695772455177,-0.09082031,-0.99591064,0.17010498,-6.171875,0.328125,4.421875
531,1695772455206,-0.075927734,-0.98028564,0.18011475,-3.5,-1.09375,2.015625
532,1695772455251,-0.0703125,-0.9397583,0.20013428,-3.359375,-2.359375,1.15625
533,1695772455282,-0.06616211,-0.9727173,0.20697021,-1.34375,-2.046875,5.0625
534,1695772455326,-0.061035156,-0.9356079,0.19647217,-2.140625,-6.34375,-0.078125
535,1695772455372,-0.08227539,-0.98760986,0.18450928,-4.4375,-6.703125,-2.34375
536,1695772455402,-0.08862305,-1.0149536,0.2296753,-3.359375,-5.859375,-2.890625
537,1695772455448,-0.09375,-1.0147095,0.22210693,0.765625,-3.046875,-1.09375
538,1695772455496,-0.08300781,-0.944397,0.20281982,-0.25,-0.671875,-5.21875
539,1695772455524,-0.12402344,-0.9631958,0.18963623,-2.59375,0.078125,-2.53125
540,1695772455570,-0.1328125,-0.9507446,0.20428467,3.625,1.8125,2.0625
541,1695772455599,-0.07763672,-0.98565674,0.22479248,1.75,4.375,-3.984375
542,1695772455643,-0.06713867,-1.0505981,0.2020874,0.75,-0.03125,-4.09375
543,1695772455689,-0.109375,-0.95977783,0.18719482,-0.84375,0.140625,-0.609375
544,1695772455719,-0.107666016,-0.9834595,0.17547607,0.90625,-1.109375,-0.640625
545,1695772455764,-0.11694336,-0.956604,0.20184326,2.015625,1.140625,0.21875
546,1695772455807,-0.13208008,-1.0247192,0.19622803,1.234375,1.9375,-3.203125
547,1695772455840,-0.118896484,-0.9819946,0.16668701,-1.015625,1.640625,-4.890625
548,1695772455884,-0.1430664,-0.9661255,0.19940186,2.796875,2.34375,-0.9375
549,1695772455914,-0.1003418,-1.0393677,0.18719482,6.71875,0.09375,-1.578125
550,1695772455960,-0.15405273,-0.9758911,0.14569092,-6.5625,-4.5,1.515625
551,1695772456004,-0.10424805,-0.9534302,0.14886475,4.359375,-0.296875,-1.75
552,1695772456033,-0.09741211,-0.9859009,0.16986084,0.015625,2.46875,-0.203125
553,1695772456089,-0.11010742,-0.9819946,0.15887451,0.765625,-0.6875,-0.234375
554,1695772456122,-0.13769531,-0.9780884,0.17449951,-0.53125,-3.796875,-4.046875
555,1695772456151,-0.1352539,-1.0110474,0.15423584,-3.625,2.234375,-3.203125
556,1695772456199,-0.13183594,-1.0315552,0.19866943,1.28125,4.5625,4.984375
557,1695772456228,-0.15991211,-0.9834595,0.14031982,-5.5,4.3125,5.65625
558,1695772456278,-0.111572266,-0.9619751,0.1383667,-3.640625,4.609375,-0.390625
559,1695772456323,-0.049560547,-0.99591064,0.1930542,-0.953125,3.734375,-4.046875
560,1695772456348,-0.037841797,-0.9812622,0.18621826,-3.234375,-2.34375,-5.09375
561,1695772456395,-0.12695312,-0.9951782,0.18743896,-3.40625,-5.34375,0.34375
562,1695772456467,-0.1940918,-0.9741821,0.20941162,-2.28125,-4.40625,5.3125
563,1695772456470,-0.15283203,-0.9768677,0.21063232,-3.53125,1.296875,1.859375
564,1695772456514,-0.12548828,-0.9866333,0.20794678,-1.890625,0.234375,0.734375
565,1695772456547,-0.103515625,-0.98931885,0.20111084,-3.359375,2.65625,-4.65625
566,1695772456590,-0.09814453,-0.9871216,0.19281006,-1.390625,1.59375,-0.203125
567,1695772456634,-0.079833984,-0.9763794,0.17694092,-4.234375,-0.59375,-0.84375
568,1695772456663,-0.11791992,-0.9837036,0.20770264,-1.6875,-2.1875,3.671875
569,1695772456708,-0.12231445,-0.93170166,0.2321167,-1.953125,-2.171875,1.609375
570,1695772456771,-0.11376953,-0.98516846,0.19281006,-7.234375,-5.453125,-3.734375
571,1695772456785,-0.12231445,-1.0159302,0.22601318,0.03125,-6.921875,-3.03125
572,1695772456827,-0.109375,-1.0029907,0.23626709,-2.859375,-3.671875,-3.015625
573,1695772456857,-0.12988281,-1.0007935,0.21380615,-1.078125,-5.0,2.46875
574,1695772456904,-0.15722656,-0.94366455,0.23040771,0.34375,-4.859375,3.3125
575,1695772456949,-0.12475586,-0.956604,0.20062256,-2.96875,-0.375,-2.046875
576,1695772456979,-0.09863281,-0.9927368,0.21209717,0.515625,-1.84375,-2.109375
577,1695772457024,-0.1315918,-1.0042114,0.24456787,0.359375,-1.609375,-1.1875
578,1695772457068,-0.13964844,-0.9937134,0.2164917,-2.40625,-0.84375,-0.5
579,1695772457110,-0.1159668,-0.96832275,0.21063232,0.203125,1.15625,-2.0
580,1695772457143,-0.12548828,-0.9727173,0.21282959,0.140625,0.578125,-0.578125
581,1695772457174,-0.13305664,-0.95806885,0.21673584,0.734375,0.671875,-0.28125
582,1695772457217,-0.1171875,-0.97906494,0.21380615,1.828125,2.375,-1.921875
583,1695772457263,-0.10595703,-1.0117798,0.20721436,-1.421875,0.265625,-1.1875
584,1695772457293,-0.12084961,-1.0066528,0.20941162,0.515625,1.671875,1.5
585,1695772457337,-0.13012695,-0.9768677,0.21551514,0.53125,0.890625,-0.140625
586,1695772457382,-0.15649414,-0.9834595,0.19793701,-0.875,0.25,-3.34375
587,1695772457412,-0.13305664,-0.9768677,0.21160889,-1.546875,2.4375,-4.84375
588,1695772457456,-0.11816406,-0.98272705,0.20916748,2.390625,1.5625,-2.28125
589,1695772457487,-0.14868164,-0.9768677,0.20501709,0.234375,2.25,-0.5
590,1695772457532,-0.15283203,-0.9859009,0.2020874,-0.25,1.765625,-0.484375
591,1695772457576,-0.1394043,-0.99835205,0.21575928,1.15625,2.765625,-0.4375
592,1695772457607,-0.14160156,-0.97247314,0.20111084,-0.40625,1.90625,-0.09375
593,1695772457652,-0.13745117,-0.98565674,0.17010498,-5.140625,-0.421875,-3.421875
594,1695772457681,-0.13427734,-1.0198364,0.26507568,8.40625,4.359375,0.140625
595,1695772457727,-0.16210938,-1.045227,0.20526123,2.078125,2.03125,4.1875
596,1695772457773,-0.17749023,-0.8945923,0.17889404,0.515625,-1.75,0.65625
597,1695772457805,-0.10498047,-0.940979,0.17059326,3.59375,-0.640625,-1.953125
598,1695772457848,-0.123046875,-1.0025024,0.184021,-3.953125,0.25,-3.25
599,1695772457894,-0.14501953,-0.97076416,0.18182373,-1.609375,-3.90625,-0.796875
600,1695772457925,-0.15820312,-0.9939575,0.21185303,-1.1875,-2.03125,-3.078125
601,1695772457967,-0.13598633,-1.0032349,0.19647217,-0.734375,0.6875,-1.46875
602,1695772457999,-0.1472168,-0.9553833,0.17230225,-3.015625,-0.75,1.0
603,1695772458045,-0.16455078,-0.9746704,0.19891357,-0.015625,-2.015625,0.875
604,1695772458090,-0.17260742,-0.9819946,0.21038818,-2.828125,-1.46875,-2.453125
605,1695772458120,-0.15942383,-1.0054321,0.20721436,-0.3125,2.1875,-2.1875
606,1695772458161,-0.1496582,-0.9873657,0.19818115,-0.8125,1.125,0.5625
607,1695772458206,-0.15307617,-0.96173096,0.19012451,-0.625,0.09375,1.203125
608,1695772458236,-0.15063477,-0.9783325,0.18988037,-1.484375,-0.125,-0.84375
609,1695772458281,-0.14868164,-0.9990845,0.20379639,-0.375,-0.046875,-0.09375
610,1695772458311,-0.12548828,-0.9927368,0.19769287,-1.3125,-0.078125,-1.765625
611,1695772458356,-0.15454102,-0.989563,0.20404053,-0.234375,-0.25,0.984375
612,1695772458401,-0.15625,-0.95269775,0.19451904,-0.09375,0.203125,1.328125
613,1695772458431,-0.15307617,-0.97076416,0.19085693,-2.34375,-0.1875,-1.421875
614,1695772458476,-0.14355469,-0.9932251,0.19744873,0.53125,-0.125,-0.828125
615,1695772458521,-0.13574219,-0.99005127,0.21209717,0.71875,-0.09375,-1.125
616,1695772458551,-0.14575195,-0.9817505,0.19720459,0.53125,0.140625,-0.96875
617,1695772458596,-0.1484375,-0.9434204,0.19329834,-1.078125,-0.359375,-3.3125
618,1695772458626,-0.140625,-0.9780884,0.19647217,2.65625,-0.875,-2.296875
619,1695772458671,-0.18334961,-1.0020142,0.18377686,0.359375,-1.265625,0.78125
620,1695772458717,-0.18017578,-0.99713135,0.19378662,-0.734375,0.078125,-1.828125
621,1695772458746,-0.16992188,-0.97491455,0.19085693,1.984375,2.34375,-2.28125
622,1695772458794,-0.1887207,-0.98760986,0.18035889,2.953125,1.390625,-0.328125
623,1695772458837,-0.18896484,-0.97369385,0.16888428,0.734375,4.125,0.625
624,1695772458867,-0.16772461,-0.99884033,0.15325928,-3.234375,2.859375,-0.046875
625,1695772458912,-0.16577148,-1.008606,0.18060303,0.875,3.75,4.78125
626,1695772458941,-0.14892578,-0.9849243,0.17645264,-2.28125,2.21875,2.140625
627,1695772458987,-0.12963867,-0.960022,0.1942749,0.265625,2.359375,0.296875
628,1695772459031,-0.1550293,-1.0320435,0.18890381,-1.265625,2.953125,5.1875
629,1695772459061,-0.19750977,-0.94488525,0.19915771,-0.703125,-1.015625,7.765625
630,1695772459107,-0.11230469,-0.989563,0.18743896,2.0625,3.671875,0.015625
631,1695772459153,-0.08300781,-1.0071411,0.18597412,1.21875,4.609375,2.390625
632,1695772459182,-0.11621094,-0.940979,0.1852417,-3.328125,1.6875,0.828125
633,1695772459229,-0.11401367,-0.9793091,0.17327881,-1.5625,-2.125,-0.171875
634,1695772459258,-0.11376953,-1.013977,0.19256592,-2.015625,-1.078125,2.140625
635,1695772459305,-0.110839844,-1.0022583,0.1918335,-2.671875,-2.828125,0.90625
636,1695772459351,-0.10668945,-0.98931885,0.18255615,-2.578125,-0.890625,-2.75
637,1695772459381,-0.14428711,-0.9746704,0.18817139,-1.1875,-1.1875,-0.515625
638,1695772459427,-0.14453125,-0.95391846,0.18548584,-0.328125,-1.4375,0.90625
639,1695772459469,-0.11450195,-0.98443604,0.20697021,2.40625,1.171875,-1.1875
640,1695772459498,-0.115234375,-1.0054321,0.20159912,1.734375,0.421875,-0.015625
641,1695772459545,-0.100097656,-0.97857666,0.17376709,-3.125,-1.265625,-4.296875
642,1695772459576,-0.1484375,-0.9807739,0.18548584,-2.9375,-1.015625,-3.171875
643,1695772459624,-0.12939453,-1.003479,0.20892334,2.328125,0.09375,-0.78125
644,1695772459667,-0.12207031,-0.9788208,0.18817139,0.28125,1.421875,0.28125
645,1695772459695,-0.12451172,-0.9898071,0.16278076,0.640625,-0.625,-1.75
646,1695772459738,-0.1652832,-0.98272705,0.20501709,-0.109375,0.734375,-0.890625
647,1695772459791,-0.16430664,-0.96466064,0.17352295,-0.25,3.28125,-0.46875
648,1695772459814,-0.13085938,-0.9866333,0.1696167,1.328125,1.890625,-2.640625
649,1695772459860,-0.122558594,-1.0071411,0.19647217,3.46875,3.546875,0.3125
650,1695772459890,-0.14282227,-0.9973755,0.18109131,0.578125,1.53125,-0.390625
651,1695772459934,-0.14819336,-0.96466064,0.16522217,-0.34375,2.53125,-2.359375
652,1695772459979,-0.14013672,-0.95977783,0.16912842,2.875,2.609375,-1.15625
653,1695772460010,-0.12060547,-1.0161743,0.17767334,0.65625,1.359375,0.703125
654,1695772460058,-0.15283203,-1.0117798,0.17181396,-1.359375,1.828125,2.5625
655,1695772460098,-0.15722656,-0.96954346,0.17303467,0.046875,2.921875,0.8125
656,1695772460131,-0.1352539,-0.975647,0.15008545,-2.53125,2.40625,-1.6875
657,1695772460171,-0.14404297,-0.98931885,0.16009521,-0.78125,0.328125,1.640625
658,1695772460209,-0.13354492,-0.9817505,0.1720581,-3.09375,0.84375,-0.109375
659,1695772460249,-0.13720703,-1.0056763,0.16864014,-3.046875,0.171875,0.46875
660,1695772460294,-0.14404297,-0.97613525,0.1876831,0.921875,1.671875,1.796875
661,1695772460323,-0.13720703,-0.9846802,0.17010498,-2.078125,1.015625,-0.53125
662,1695772460368,-0.12475586,-0.97662354,0.1618042,-1.890625,0.15625,1.0
663,1695772460412,-0.11279297,-0.98394775,0.17425537,-3.703125,0.546875,-0.390625
664,1695772460445,-0.14331055,-1.0061646,0.20037842,-1.609375,-0.78125,3.53125
665,1695772460488,-0.14477539,-0.9859009,0.19940186,-4.296875,-0.640625,2.734375
666,1695772460517,-0.099609375,-0.97442627,0.17694092,-7.28125,-0.6875,-1.40625
667,1695772460563,-0.10205078,-0.9751587,0.22821045,-0.34375,-0.0625,-2.296875
668,1695772460608,-0.099609375,-1.0337524,0.21380615,0.609375,-0.703125,1.015625
669,1695772460638,-0.17211914,-0.93707275,0.17645264,-4.171875,-7.09375,1.875
670,1695772460684,-0.10913086,-0.9951782,0.21185303,2.625,-2.25,-3.640625
671,1695772460728,-0.111816406,-1.0064087,0.20892334,1.734375,1.375,0.765625
672,1695772460758,-0.13232422,-0.95318604,0.17401123,-0.625,-0.03125,2.296875
673,1695772460803,-0.1550293,-0.92388916,0.1749878,-3.59375,-0.546875,-0.65625
674,1695772460834,-0.091796875,-0.9841919,0.17327881,-0.34375,-1.296875,-5.09375
675,1695772460879,-0.0871582,-1.0249634,0.21795654,-0.765625,-2.34375,-1.921875
676,1695772460923,-0.15209961,-1.0337524,0.22454834,-1.328125,-1.265625,2.03125
677,1695772460953,-0.15844727,-0.96295166,0.18865967,-1.03125,-0.890625,0.96875
678,1695772460999,-0.11743164,-0.93951416,0.17401123,-1.4375,1.125,-4.5
679,1695772461044,-0.10620117,-0.9902954,0.20111084,-0.1875,-0.015625,-4.140625
680,1695772461076,-0.12573242,-0.9639282,0.21331787,2.609375,-1.03125,-2.15625
681,1695772461125,-0.15454102,-0.9885864,0.19207764,-0.984375,0.109375,-3.5
682,1695772461149,-0.1496582,-0.9907837,0.18060303,-1.703125,-0.171875,-0.953125
683,1695772461192,-0.15307617,-0.97613525,0.19622803,1.859375,1.28125,0.390625
684,1695772461239,-0.16015625,-0.98760986,0.18157959,0.015625,1.515625,-3.46875
685,1695772461270,-0.14477539,-1.0286255,0.2020874,-0.796875,2.515625,-3.140625
686,1695772461318,-0.1772461,-0.98101807,0.20111084,0.59375,2.421875,1.125
687,1695772461348,-0.17749023,-0.954895,0.16693115,2.03125,0.359375,1.140625
688,1695772461388,-0.14526367,-0.94854736,0.18353271,2.921875,2.796875,-0.53125
689,1695772461433,-0.12792969,-0.9993286,0.16204834,-3.75,0.15625,-1.59375
690,1695772461470,-0.15576172,-0.98101807,0.1918335,-1.15625,-2.109375,-1.4375
691,1695772461509,-0.1628418,-0.99835205,0.18231201,-0.359375,-1.5,0.125
692,1695772461556,-0.15722656,-0.99957275,0.19500732,-1.890625,0.671875,0.25
693,1695772461584,-0.15673828,-0.9956665,0.19354248,-1.125,2.5,2.515625
694,1695772461629,-0.15625,-0.944397,0.17401123,-1.875,0.5,1.765625
695,1695772461660,-0.14404297,-0.99102783,0.21136475,0.015625,-0.75,0.0625
696,1695772461703,-0.14794922,-0.99786377,0.20477295,-2.953125,-1.140625,-1.1875
697,1695772461747,-0.14477539,-0.9800415,0.18450928,-4.265625,0.078125,-1.265625
698,1695772461777,-0.14501953,-0.956604,0.18353271,0.71875,0.015625,2.125
699,1695772461821,-0.14331055,-0.99224854,0.20428467,1.234375,-0.5,2.484375
700,1695772461866,-0.140625,-0.989563,0.20306396,-3.34375,0.375,0.828125
701,1695772461897,-0.14648438,-0.98565674,0.20037842,-2.703125,0.890625,0.671875
702,1695772461952,-0.1459961,-0.9824829,0.20013428,0.015625,1.34375,2.84375
703,1695772461972,-0.13574219,-0.97540283,0.20111084,-2.1875,0.375,3.171875
704,1695772462018,-0.14111328,-0.98883057,0.21160889,-1.609375,-0.078125,2.484375
705,1695772462062,-0.12573242,-0.9817505,0.18841553,-4.59375,0.0625,1.1875
706,1695772462093,-0.12695312,-0.954895,0.20111084,-1.078125,-0.484375,2.875
707,1695772462139,-0.11669922,-1.0090942,0.20770264,-0.015625,0.359375,0.484375
708,1695772462184,-0.10839844,-0.9751587,0.23040771,-2.484375,0.015625,0.3125
709,1695772462215,-0.09790039,-0.9795532,0.20892334,-2.984375,1.015625,-1.875
710,1695772462257,-0.09106445,-0.9651489,0.19378662,-2.734375,1.03125,-2.953125
711,1695772462287,-0.09838867,-1.0383911,0.25946045,5.28125,-0.28125,-0.03125
712,1695772462333,-0.15966797,-0.9512329,0.23016357,-4.453125,-4.890625,-1.4375
713,1695772462380,-0.11816406,-0.98150635,0.184021,-0.046875,-2.375,-3.703125
714,1695772462410,-0.12719727,-0.9507446,0.20550537,8.1875,2.125,2.46875
715,1695772462454,-0.095947266,-0.98883057,0.19158936,4.03125,2.296875,-0.328125
716,1695772462498,-0.13476562,-0.96954346,0.18060303,-1.5625,-2.234375,-3.015625
717,1695772462528,-0.1340332,-0.9751587,0.19256592,-2.0625,-2.109375,-5.921875
718,1695772462572,-0.11303711,-1.020813,0.21209717,1.90625,-0.9375,-8.171875
719,1695772462602,-0.15185547,-0.9873657,0.18914795,-0.1875,-0.4375,-2.78125
720,1695772462648,-0.19897461,-0.97857666,0.19378662,-1.390625,-0.359375,-2.984375
721,1695772462693,-0.17529297,-0.9673462,0.19622803,1.546875,2.65625,-1.453125
722,1695772462724,-0.1538086,-0.98272705,0.1762085,-0.109375,1.40625,-1.34375
723,1695772462768,-0.15551758,-0.95880127,0.18231201,2.140625,1.546875,0.5
724,1695772462817,-0.171875,-0.9944458,0.16815186,-1.1875,0.03125,-0.984375
725,1695772462848,-0.17749023,-0.9981079,0.18011475,-1.734375,0.453125,1.28125
726,1695772462887,-0.18286133,-1.0066528,0.2111206,-1.296875,-1.1875,1.3125
727,1695772462919,-0.18408203,-0.9973755,0.20037842,-3.40625,2.140625,3.1875
728,1695772462963,-0.15698242,-0.9429321,0.17132568,-2.78125,1.828125,2.8125
729,1695772463007,-0.12597656,-0.9746704,0.19696045,1.015625,3.546875,1.421875
730,1695772463042,-0.12133789,-0.9817505,0.18695068,-0.109375,0.90625,1.515625
731,1695772463083,-0.14477539,-0.9951782,0.19158936,-1.0,-0.703125,4.9375
732,1695772463128,-0.12060547,-0.99420166,0.2033081,0.296875,1.03125,5.078125
733,1695772463162,-0.107421875,-0.9849243,0.19354248,-0.140625,0.515625,4.1875
734,1695772463202,-0.1315918,-0.98883057,0.18133545,-1.765625,-0.28125,4.734375
735,1695772463231,-0.1105957,-0.9483032,0.18719482,0.25,-1.21875,1.046875
736,1695772463279,-0.11328125,-0.9812622,0.19769287,-1.046875,-0.8125,0.78125
737,1695772463324,-0.099365234,-0.99224854,0.20648193,1.609375,-0.703125,1.03125
738,1695772463356,-0.10888672,-1.0015259,0.19769287,-0.640625,-1.375,0.09375
739,1695772463400,-0.09448242,-0.97662354,0.19573975,1.328125,0.640625,-1.5625
740,1695772463447,-0.08276367,-0.97076416,0.20404053,1.078125,-0.390625,-2.890625
741,1695772463475,-0.10986328,-0.9824829,0.20013428,-1.203125,0.015625,-4.421875
742,1695772463521,-0.11010742,-0.9976196,0.18328857,1.921875,-0.890625,-2.046875
743,1695772463550,-0.115722656,-0.99176025,0.1930542,1.65625,0.234375,-3.4375
744,1695772463593,-0.13574219,-1.0220337,0.17645264,-0.203125,0.328125,-1.125
745,1695772463641,-0.15258789,-0.9324341,0.18939209,0.4375,0.953125,-0.515625
746,1695772463676,-0.16796875,-0.9768677,0.17596436,0.78125,1.515625,-3.65625
747,1695772463716,-0.13061523,-1.0029907,0.15472412,-1.484375,0.09375,-2.09375
748,1695772463762,-0.13012695,-0.99786377,0.17816162,1.53125,2.015625,0.40625
749,1695772463789,-0.13696289,-0.9898071,0.17279053,-0.296875,-0.40625,-0.53125
750,1695772463835,-0.13330078,-0.98272705,0.18963623,-2.15625,-1.265625,-2.28125
751,1695772463907,-0.15917969,-1.0112915,0.2020874,-0.609375,1.65625,-0.484375
752,1695772463910,-0.1315918,-1.0437622,0.19256592,0.375,3.140625,1.203125
753,1695772463955,-0.15551758,-0.8989868,0.15130615,-3.390625,-0.328125,1.203125
754,1695772463983,-0.11010742,-0.98443604,0.17669678,7.734375,-0.515625,0.59375
755,1695772464027,-0.11035156,-0.98687744,0.17791748,6.6875,1.90625,2.03125
756,1695772464075,-0.12695312,-0.9939575,0.14105225,-3.359375,-0.6875,-3.09375
757,1695772464106,-0.13452148,-0.98638916,0.16766357,-2.328125,-0.9375,-3.359375
758,1695772464150,-0.13867188,-0.9981079,0.15228271,0.265625,-0.484375,-3.28125
759,1695772464186,-0.13842773,-0.99542236,0.17303467,-0.109375,0.078125,-1.671875
760,1695772464224,-0.15576172,-0.9768677,0.15545654,0.5625,0.9375,-0.15625
761,1695772464267,-0.14648438,-0.98443604,0.15374756,-3.03125,-0.109375,-1.859375
762,1695772464301,-0.11645508,-0.95806885,0.15252686,-1.921875,-1.234375,-5.28125
763,1695772464346,-0.17089844,-1.0056763,0.16815186,-2.78125,-1.71875,-3.609375
764,1695772464391,-0.19824219,-0.9920044,0.2062378,0.40625,0.328125,-1.546875
765,1695772464420,-0.17211914,-0.9907837,0.18157959,-2.265625,1.515625,-4.453125
766,1695772464470,-0.15234375,-0.9668579,0.15740967,-1.5625,0.765625,-1.734375
767,1695772464496,-0.1784668,-0.95977783,0.16204834,-2.96875,-0.546875,-2.875
768,1695772464540,-0.16357422,-0.9729614,0.17010498,-2.203125,0.421875,-4.109375
769,1695772464584,-0.17993164,-1.0183716,0.18988037,0.765625,0.25,0.21875
770,1695772464614,-0.17529297,-0.96881104,0.19573975,1.40625,2.359375,-1.0625
771,1695772464660,-0.18286133,-0.97784424,0.15765381,-1.359375,0.421875,-1.828125
772,1695772464698,-0.19384766,-0.95318604,0.16400146,-4.484375,2.09375,-1.9375
773,1695772464734,-0.18798828,-1.000061,0.18060303,-2.375,-1.140625,-0.359375
774,1695772464781,-0.24267578,-1.0010376,0.18792725,-4.015625,0.96875,6.28125
775,1695772464812,-0.20336914,-0.98687744,0.18084717,-3.484375,2.6875,3.765625
776,1695772464855,-0.16088867,-0.98272705,0.17596436,-3.578125,2.40625,2.953125
777,1695772464900,-0.11450195,-0.9607544,0.1749878,-0.125,0.109375,3.375
778,1695772464926,-0.13183594,-0.9793091,0.19866943,-1.84375,-4.140625,2.0625
779,1695772464973,-0.1574707,-0.9829712,0.20111084,-3.40625,-4.0,2.71875
780,1695772465003,-0.15527344,-0.99005127,0.20281982,-2.8125,-3.96875,1.703125
781,1695772465047,-0.14208984,-0.99542236,0.21673584,0.09375,0.078125,1.0
782,1695772465093,-0.13769531,-0.9558716,0.1942749,-2.984375,-0.0625,-1.171875
783,1695772465122,-0.12597656,-0.96466064,0.19818115,-1.78125,0.0625,-2.171875
784,1695772465167,-0.12548828,-1.0066528,0.21234131,0.734375,-0.75,-1.03125
785,1695772465212,-0.14892578,-0.9920044,0.20843506,-1.09375,0.21875,1.09375
786,1695772465243,-0.18408203,-0.98101807,0.21502686,-1.453125,0.15625,-0.859375
787,1695772465290,-0.17382812,-0.9585571,0.18695068,-1.171875,1.640625,-4.0625
788,1695772465316,-0.1508789,-0.97320557,0.18939209,-1.765625,2.921875,-2.734375
789,1695772465363,-0.12597656,-0.9956665,0.21575928,1.765625,0.953125,-1.984375
790,1695772465407,-0.14282227,-0.9807739,0.20672607,-0.53125,-2.109375,-3.828125
791,1695772465440,-0.16894531,-0.9624634,0.2008667,-1.078125,-2.671875,-3.828125
792,1695772465482,-0.20654297,-0.9993286,0.20355225,-1.75,-3.5,-2.421875
793,1695772465528,-0.20532227,-0.9631958,0.22332764,2.984375,0.5625,0.578125
794,1695772465556,-0.16674805,-0.95440674,0.19476318,-0.140625,2.171875,-4.109375
795,1695772465601,-0.17407227,-1.0105591,0.20355225,0.875,2.515625,-2.21875
796,1695772465632,-0.17358398,-0.99298096,0.19598389,-0.59375,2.140625,1.515625
797,1695772465677,-0.17138672,-0.95806885,0.17547607,-0.28125,0.84375,0.8125
798,1695772465722,-0.18798828,-0.9619751,0.18035889,0.265625,2.1875,0.6875
799,1695772465753,-0.17138672,-0.99713135,0.18963623,-0.859375,-0.015625,-2.046875
800,1695772465795,-0.17749023,-0.96466064,0.19403076,-3.46875,-0.375,-2.1875
801,1695772465842,-0.203125,-0.97247314,0.2164917,2.3125,1.3125,1.65625
802,1695772465870,-0.20922852,-1.0271606,0.20526123,-2.515625,0.9375,0.109375
803,1695772465915,-0.15820312,-0.9290161,0.20672607,2.140625,4.078125,1.328125
804,1695772465945,-0.13208008,-1.0054321,0.18841553,1.125,1.21875,-6.296875
805,1695772465993,-0.140625,-0.9685669,0.18328857,7.796875,0.515625,-3.6875
806,1695772466035,-0.2006836,-0.98394775,0.17913818,-1.4375,-1.609375,-0.9375
807,1695772466067,-0.21411133,-0.9780884,0.168396,-3.328125,0.5625,-0.96875
808,1695772466113,-0.21118164,-0.960022,0.17449951,0.8125,2.90625,2.390625
809,1695772466157,-0.18481445,-0.9758911,0.18499756,0.171875,1.265625,-0.34375
810,1695772466189,-0.16918945,-1.0088501,0.20111084,-2.984375,-0.890625,-0.46875
811,1695772466234,-0.22363281,-0.9788208,0.168396,-9.953125,-4.140625,0.5
812,1695772466265,-0.24291992,-0.96661377,0.18548584,-1.4375,1.78125,6.515625
813,1695772466306,-0.15161133,-1.024231,0.26849365,-1.453125,6.8125,5.109375
814,1695772466353,-0.15063477,-0.9656372,0.21600342,-7.609375,-3.546875,5.25
815,1695772466383,-0.13891602,-0.9819946,0.18817139,-3.8125,-5.109375,-1.1875
816,1695772466431,-0.114746094,-0.9487915,0.20770264,5.796875,-3.265625,-0.09375
817,1695772466474,-0.18725586,-0.9976196,0.22747803,5.375,-4.046875,7.140625
818,1695772466502,-0.17553711,-0.96051025,0.18353271,-2.15625,-1.1875,4.765625
819,1695772466548,-0.16113281,-0.9434204,0.19012451,1.34375,5.15625,7.453125
820,1695772466580,-0.1381836,-0.95562744,0.20404053,1.484375,3.640625,2.46875
821,1695772466626,-0.08227539,-1.0039673,0.18963623,2.03125,-1.375,1.375
822,1695772466671,-0.07470703,-1.0291138,0.1984253,-1.3125,-1.28125,-3.265625
823,1695772466699,-0.17260742,-1.0161743,0.18988037,-3.25,-3.0625,4.828125
824,1695772466743,-0.18188477,-0.93048096,0.18988037,-0.46875,-3.328125,5.640625
825,1695772466791,-0.12133789,-0.97125244,0.20257568,0.78125,0.890625,0.46875
826,1695772466819,-0.111572266,-0.9734497,0.18963623,-1.8125,1.59375,-0.390625
827,1695772466864,-0.0871582,-0.99713135,0.20281982,-1.984375,0.8125,-4.265625
828,1695772466895,-0.12915039,-0.99591064,0.19085693,-1.28125,-2.203125,-1.859375
829,1695772466941,-0.12133789,-0.989563,0.17840576,0.375,1.65625,-0.34375
830,1695772466982,-0.11743164,-0.9976196,0.21234131,-0.34375,1.171875,0.53125
831,1695772467012,-0.14672852,-0.9780884,0.20477295,-1.859375,1.28125,1.25
832,1695772467059,-0.13500977,-0.944397,0.17303467,-1.4375,1.75,-1.75
833,1695772467136,-0.11279297,-1.0056763,0.1876831,1.9375,2.171875,-5.25
834,1695772467141,-0.123291016,-1.013977,0.21209717,-2.5,1.265625,-1.9375
835,1695772467183,-0.1303711,-0.97613525,0.20672607,-1.078125,-0.28125,0.484375
836,1695772467212,-0.1459961,-0.9968872,0.18841553,0.328125,-0.078125,-0.578125
837,1695772467255,-0.13012695,-0.9673462,0.18792725,-1.109375,0.421875,-3.609375
838,1695772467298,-0.12060547,-0.99346924,0.16693115,-0.421875,-0.265625,-7.234375
839,1695772467330,-0.14648438,-0.95684814,0.18841553,-1.359375,1.546875,-7.84375
840,1695772467376,-0.15332031,-0.98223877,0.21014404,3.578125,1.75,-4.53125
841,1695772467418,-0.19018555,-0.98883057,0.21307373,-0.5625,1.0625,1.203125
842,1695772467449,-0.17700195,-0.9973755,0.1954956,-0.5625,0.90625,0.328125
843,1695772467495,-0.15795898,-1.0022583,0.18572998,-0.328125,1.125,-0.6875
844,1695772467524,-0.140625,-0.97003174,0.18157959,0.265625,0.59375,-1.984375
845,1695772467570,-0.15991211,-0.972229,0.16912842,-2.953125,-2.40625,-3.203125
846,1695772467615,-0.17773438,-0.95758057,0.1774292,-2.78125,-2.0,-2.796875
847,1695772467645,-0.19873047,-1.0076294,0.18988037,-1.15625,-1.59375,0.015625
848,1695772467690,-0.18334961,-0.954895,0.19696045,0.09375,1.359375,1.109375
849,1695772467733,-0.16381836,-0.97442627,0.19696045,-0.296875,0.84375,-2.078125
850,1695772467771,-0.17675781,-0.9998169,0.18963623,-1.40625,-1.4375,-3.015625
851,1695772467811,-0.18017578,-0.9898071,0.21282959,-1.5,-1.390625,-1.1875
852,1695772467839,-0.17871094,-0.97247314,0.2020874,-1.5,-0.015625,1.453125
853,1695772467884,-0.17260742,-0.96954346,0.18328857,0.375,-0.59375,1.65625
854,1695772467928,-0.16772461,-0.96759033,0.1828003,-1.34375,-0.078125,-1.328125
855,1695772467957,-0.16210938,-0.99005127,0.20159912,-1.875,-0.203125,-1.265625
856,1695772468008,-0.19018555,-0.9871216,0.20819092,-0.34375,0.71875,1.3125
857,1695772468046,-0.18603516,-0.9512329,0.17669678,-1.640625,0.8125,-0.921875
858,1695772468077,-0.15649414,-0.9673462,0.1954956,-0.5625,0.40625,-2.390625
859,1695772468122,-0.16357422,-1.0037231,0.20648193,0.125,-1.359375,-0.734375
860,1695772468155,-0.1953125,-0.99468994,0.19940186,-2.46875,-1.296875,0.21875
861,1695772468198,-0.1887207,-0.9680786,0.18035889,-2.21875,0.515625,-0.546875
862,1695772468244,-0.17675781,-0.97491455,0.199646,0.609375,0.8125,0.484375
863,1695772468275,-0.16235352,-0.9717407,0.2086792,0.265625,0.640625,-0.21875
864,1695772468320,-0.1640625,-0.96539307,0.19915771,-2.25,0.109375,-1.71875
865,1695772468347,-0.1850586,-0.9837036,0.19281006,-0.40625,-1.015625,-2.53125
866,1695772468396,-0.1928711,-0.98028564,0.20526123,-0.484375,0.125,-1.8125
867,1695772468440,-0.19970703,-0.9932251,0.20501709,0.375,-0.4375,1.203125
868,1695772468469,-0.18774414,-0.9837036,0.18988037,3.15625,1.421875,1.890625
869,1695772468514,-0.19165039,-0.99591064,0.19281006,-0.21875,2.8125,3.28125
870,1695772468561,-0.1899414,-0.93951416,0.1696167,-1.90625,2.4375,1.40625
871,1695772468591,-0.17504883,-0.9795532,0.19329834,-1.75,1.078125,-0.09375
872,1695772468632,-0.16796875,-0.9973755,0.2062378,0.109375,0.46875,3.078125
873,1695772468662,-0.18579102,-0.9771118,0.20306396,-3.28125,1.15625,2.75
874,1695772468707,-0.15820312,-0.9829712,0.19720459,0.421875,1.625,2.625
875,1695772468753,-0.1484375,-0.98638916,0.18914795,-4.1875,0.875,4.96875
876,1695772468784,-0.14160156,-0.9780884,0.21380615,-0.734375,0.234375,6.140625
877,1695772468831,-0.14086914,-1.0081177,0.19940186,-3.421875,1.265625,4.515625
878,1695772468873,-0.11254883,-0.98028564,0.20941162,-2.671875,0.234375,2.9375
879,1695772468906,-0.13378906,-1.0056763,0.21453857,-2.984375,0.5,3.453125
880,1695772468949,-0.14892578,-0.92755127,0.2086792,-4.640625,1.390625,5.75
881,1695772468982,-0.1237793,-0.9807739,0.22747803,-0.796875,2.5625,1.59375
882,1695772469024,-0.12133789,-1.0271606,0.20159912,-0.671875,3.171875,4.09375
883,1695772469068,-0.07397461,-0.98809814,0.21502686,1.890625,5.84375,9.390625
884,1695772469098,-0.05444336,-0.95196533,0.20770264,1.453125,2.390625,5.734375
885,1695772469141,-0.05444336,-0.96099854,0.20697021,-0.875,-0.4375,-0.640625
886,1695772469188,-0.06225586,-1.0015259,0.21380615,-3.25,-1.34375,-2.21875
887,1695772469219,-0.076171875,-0.97320557,0.21307373,-3.25,-2.046875,-3.734375
888,1695772469263,-0.09838867,-0.9812622,0.23699951,0.765625,0.46875,0.453125
889,1695772469292,-0.07885742,-0.96173096,0.24749756,1.828125,0.65625,-2.859375
890,1695772469337,-0.07910156,-1.0149536,0.21942139,-2.03125,-0.53125,-6.59375
891,1695772469382,-0.07543945,-0.96832275,0.21160889,1.5625,-2.265625,-6.1875
892,1695772469412,-0.080078125,-0.9812622,0.21185303,1.46875,-1.859375,-9.578125
893,1695772469456,-0.16796875,-1.0112915,0.22381592,0.3125,-2.375,-3.21875
894,1695772469502,-0.15014648,-0.975647,0.21331787,2.765625,0.1875,-4.953125
895,1695772469532,-0.14916992,-0.96954346,0.19818115,1.828125,1.84375,-8.171875
896,1695772469578,-0.14331055,-0.973938,0.17425537,1.265625,0.265625,-7.46875
897,1695772469607,-0.1652832,-0.97320557,0.199646,1.359375,0.25,-3.203125
898,1695772469653,-0.11816406,-0.97003174,0.18475342,-3.75,-1.203125,-5.484375
899,1695772469697,-0.12231445,-1.0405884,0.1918335,-2.734375,-5.15625,4.5
900,1695772469726,-0.1394043,-1.0357056,0.20428467,1.703125,-7.265625,10.265625
901,1695772469773,-0.22216797,-0.97906494,0.18206787,-2.0625,-7.96875,10.90625
902,1695772469818,-0.24145508,-0.9685669,0.15716553,-5.671875,-6.453125,3.265625
903,1695772469848,-0.26000977,-0.92852783,0.22161865,-4.625,-0.546875,-0.609375
904,1695772469892,-0.15820312,-0.95684814,0.17889404,-1.109375,4.28125,1.828125
905,1695772469922,-0.064453125,-1.0134888,0.21356201,-1.921875,-3.40625,3.171875
906,1695772469966,-0.103515625,-0.987854,0.22625732,-6.3125,-2.203125,4.484375
907,1695772470012,-0.12646484,-0.9746704,0.19354248,-3.453125,-0.359375,1.515625
