,timestamp,accel_x,accel_y,accel_z,gyro_x,gyro_y,gyro_z
0,1695773139487,-0.1730957,-0.93170166,0.20819092,1.015625,-0.5,-2.828125
1,1695773139533,-0.10913086,-1.0134888,0.21478271,3.96875,0.015625,1.5
2,1695773139578,-0.18896484,-0.9649048,0.21258545,-0.390625,-4.984375,5.375
3,1695773139608,-0.22241211,-0.9573364,0.24725342,1.703125,-1.859375,1.28125
4,1695773139652,-0.16894531,-0.99713135,0.22113037,0.140625,-0.109375,-0.84375
5,1695773139682,-0.18139648,-0.96221924,0.20941162,-2.609375,-2.1875,-1.046875
6,1695773139728,-0.19946289,-0.97613525,0.22015381,5.203125,3.359375,1.046875
7,1695773139773,-0.18530273,-0.96954346,0.17327881,9.953125,12.078125,5.265625
8,1695773139803,-0.17871094,-0.9595337,0.18865967,8.078125,10.125,5.109375
9,1695773139849,-0.1743164,-1.1126099,0.15350342,4.203125,15.78125,2.21875
10,1695773139893,-0.13720703,-0.8345337,0.14447021,5.921875,17.875,4.4375
11,1695773139922,-0.122558594,-1.1900024,0.262146,-2.421875,5.1875,-1.359375
12,1695773139970,-0.2097168,-0.9273071,0.10394287,-3.3125,4.359375,4.875
13,1695773139997,-0.17993164,-1.0110474,0.19451904,8.609375,9.96875,0.0
14,1695773140043,-0.16821289,-0.9976196,0.18988037,13.625,18.203125,16.09375
15,1695773140088,-0.07910156,-0.91192627,0.058044434,-4.953125,7.171875,3.109375
16,1695773140118,-0.055664062,-1.0808716,0.21697998,4.28125,10.578125,9.703125
17,1695773140164,-0.14355469,-0.8965454,0.038513184,-2.359375,11.984375,5.328125
18,1695773140209,-0.10473633,-0.98883057,0.27093506,8.21875,25.859375,1.09375
19,1695773140239,-0.030517578,-1.0735474,0.20037842,7.4375,9.3125,5.65625
20,1695773140284,0.016601562,-0.8843384,0.13031006,-8.4375,-2.546875,-5.40625
21,1695773140317,-0.1315918,-1.085022,0.24554443,1.5625,-19.015625,-1.078125
22,1695773140359,-0.18188477,-0.93585205,0.24383545,1.984375,0.59375,5.234375
23,1695773140406,-0.041992188,-0.9500122,0.062194824,-19.515625,0.015625,-17.046875
24,1695773140435,-0.07519531,-1.0759888,0.215271,-5.140625,-8.625,-8.140625
25,1695773140479,-0.140625,-1.1226196,0.27191162,0.859375,-11.4375,-0.0625
26,1695773140524,-0.1159668,-0.8772583,0.10418701,4.828125,12.171875,4.671875
27,1695773140555,-0.12475586,-1.0049438,0.04876709,12.328125,-1.734375,-5.5
28,1695773140600,-0.056884766,-0.9907837,0.49456787,7.109375,23.640625,5.703125
29,1695773140628,-0.1303711,-0.9834595,-0.020568848,-16.0625,-3.796875,-3.484375
30,1695773140674,-0.12890625,-0.8008423,0.22821045,-16.28125,-1.703125,-15.90625
31,1695773140719,-0.16503906,-1.0261841,0.14935303,6.9375,-15.859375,-2.328125
32,1695773140750,-0.2121582,-1.2627563,0.4574585,16.09375,2.734375,11.9375
33,1695773140795,0.021240234,-0.8833618,-0.057434082,-15.890625,7.921875,-21.015625
34,1695773140841,-0.1328125,-0.84576416,0.039978027,-13.671875,0.390625,-12.359375
35,1695773140871,-0.109375,-0.84869385,0.23382568,9.171875,-18.78125,-14.4375
36,1695773140915,-0.24951172,-1.4119263,0.38079834,15.765625,-3.828125,14.125
37,1695773140945,-0.03466797,-0.7546997,0.04876709,1.828125,16.84375,-1.96875
38,1695773140991,-0.123046875,-0.95806885,0.050964355,-22.265625,-8.578125,-14.203125
39,1695773141035,-0.20800781,-0.8609009,0.12249756,17.203125,-15.484375,-4.578125
40,1695773141065,-0.38989258,-1.427063,0.6600952,11.078125,-6.21875,14.53125
41,1695773141110,-0.03564453,-0.6782837,-0.17828369,-9.90625,25.046875,-15.796875
42,1695773141157,-0.114746094,-0.9734497,0.13079834,-20.765625,-17.1875,-20.53125
43,1695773141189,-0.21142578,-1.0078735,0.09857178,9.890625,-19.390625,10.046875
44,1695773141232,-0.5029297,-1.0669556,0.5687866,29.265625,29.59375,33.9375
45,1695773141265,-0.01953125,-0.92071533,-0.14093018,-12.9375,14.875,-20.75
46,1695773141306,-0.22265625,-0.83258057,0.20135498,-16.328125,-11.53125,-9.234375
47,1695773141350,-0.16967773,-1.2153931,0.097351074,-22.390625,-38.484375,0.671875
48,1695773141390,-0.2919922,-0.79888916,0.3842163,12.8125,50.828125,18.5
49,1695773141428,-0.095214844,-0.9871216,-0.07159424,-8.953125,-7.046875,-17.578125
50,1695773141471,-0.17285156,-0.8308716,0.26116943,5.359375,3.75,-2.203125
51,1695773141502,-0.29833984,-1.2666626,0.22259521,-16.75,-33.734375,5.875
52,1695773141547,-0.19628906,-0.8074341,0.20941162,6.859375,39.09375,6.3125
53,1695773141575,-0.080566406,-0.93634033,0.020446777,-9.28125,-6.09375,-22.96875
54,1695773141619,-0.1784668,-1.0120239,0.3060913,-2.84375,8.296875,-0.125
55,1695773141668,-0.27416992,-0.9702759,0.10614014,-5.46875,-23.375,3.4375
56,1695773141698,-0.2602539,-0.94000244,0.20892334,5.34375,22.8125,12.1875
57,1695773141743,-0.052490234,-0.93218994,0.14276123,-6.140625,3.15625,-22.578125
58,1695773141771,-0.20825195,-1.1963501,0.3085327,-7.59375,-5.453125,-0.328125
59,1695773141815,-0.26464844,-0.8052368,0.22869873,-14.6875,1.421875,8.734375
60,1695773141861,-0.38183594,-0.9932251,0.25238037,-28.296875,-29.109375,-7.765625
61,1695773141890,-0.16772461,-0.9776001,0.2946167,-14.359375,-0.25,-9.078125
62,1695773141937,-0.14770508,-0.99468994,0.24749756,-4.671875,-20.734375,-0.4375
63,1695773141982,-0.26098633,-1.0437622,0.22650146,5.109375,-7.84375,14.671875
64,1695773142009,-0.25463867,-0.79693604,0.22650146,1.46875,0.578125,9.953125
65,1695773142055,-0.24780273,-0.89630127,0.19134521,10.265625,3.203125,1.890625
66,1695773142085,-0.12792969,-0.956604,0.23919678,4.328125,5.1875,-0.5
67,1695773142134,-0.1730957,-1.0100708,0.20941162,-0.34375,-0.484375,3.453125
68,1695773142174,-0.20117188,-1.024231,0.22528076,2.90625,5.921875,-1.609375
69,1695773142209,-0.1899414,-1.0095825,0.18011475,6.390625,16.5,1.1875
70,1695773142253,-0.15991211,-0.925354,0.2970581,16.375,31.03125,-3.5625
71,1695773142297,-0.18579102,-1.036438,0.199646,7.3125,9.078125,7.6875
72,1695773142326,-0.14282227,-0.81500244,0.19158936,-2.34375,0.921875,-2.875
73,1695773142372,-0.15600586,-1.0664673,0.32122803,-8.59375,-15.21875,-1.5
74,1695773142401,-0.23828125,-1.1050415,0.17816162,-6.6875,-12.828125,4.578125
75,1695773142447,-0.16918945,-0.9011841,0.20257568,-9.140625,-1.484375,2.078125
76,1695773142490,-0.12963867,-0.9534302,0.21917725,-8.0625,-4.609375,-0.703125
77,1695773142520,-0.16894531,-0.99224854,0.2086792,-9.90625,-5.90625,-0.359375
78,1695773142564,-0.1340332,-0.9378052,0.21209717,13.578125,3.234375,2.234375
79,1695773142613,-0.16699219,-1.0352173,0.28289795,4.625,-1.796875,6.46875
80,1695773142650,-0.068359375,-1.109436,0.24066162,-12.0,-6.078125,-13.09375
81,1695773142685,-0.27856445,-0.8989868,0.20135498,-6.875,-14.59375,9.0
82,1695773142717,-0.20703125,-0.86383057,0.15594482,-12.046875,-9.75,-2.65625
83,1695773142761,-0.22265625,-0.8447876,0.35076904,6.265625,13.9375,2.15625
84,1695773142805,-0.099853516,-1.1619263,0.26654053,15.890625,10.25,2.921875
85,1695773142834,-0.14746094,-0.9927368,0.2609253,3.90625,-2.6875,9.5625
86,1695773142880,-0.19726562,-0.96832275,0.25506592,-28.15625,-9.28125,3.921875
87,1695773142926,-0.3076172,-0.9614868,0.2399292,4.390625,-11.71875,5.65625
88,1695773142954,-0.06982422,-0.9817505,0.30560303,-0.421875,4.59375,5.328125
89,1695773142999,-0.06323242,-0.92437744,0.15716553,-14.484375,-11.515625,-6.265625
90,1695773143029,-0.13305664,-0.97125244,0.17352295,6.3125,-4.71875,-3.625
91,1695773143075,-0.1394043,-0.9607544,0.28070068,2.9375,-3.765625,9.875
92,1695773143119,-0.24023438,-0.9795532,0.22137451,-2.59375,-4.125,-0.859375
93,1695773143152,-0.16040039,-0.96173096,0.20404053,-3.625,6.4375,-8.65625
94,1695773143196,-0.10498047,-0.98516846,0.2489624,-1.203125,9.59375,-3.15625
95,1695773143243,-0.07910156,-1.0073853,0.2609253,4.328125,8.359375,3.515625
96,1695773143269,-0.13427734,-0.93829346,0.23577881,1.6875,4.84375,-1.046875
97,1695773143316,-0.171875,-0.9417114,0.11566162,-4.125,11.484375,-6.6875
98,1695773143347,-0.087890625,-1.0100708,0.34100342,6.140625,19.0625,-8.4375
99,1695773143390,-0.10668945,-1.0774536,0.2694702,13.59375,10.140625,11.984375
100,1695773143444,-0.22021484,-0.73638916,0.2062378,-2.03125,6.4375,0.03125
101,1695773143466,-0.13134766,-1.0838013,0.23822021,0.46875,-4.953125,-3.8125
102,1695773143510,-0.14160156,-0.91363525,0.14031982,3.640625,-6.265625,-5.53125
103,1695773143553,-0.084472656,-1.2312622,0.401062,20.0,13.15625,9.953125
104,1695773143587,-0.13696289,-0.7930298,0.08026123,-1.28125,3.5625,10.21875
105,1695773143632,-0.059814453,-0.9351196,0.08905029,-4.734375,-13.109375,-16.515625
106,1695773143664,-0.19458008,-1.0379028,0.11541748,-2.3125,-15.3125,-1.125
107,1695773143707,-0.22192383,-1.1880493,0.48724365,18.71875,16.34375,8.59375
108,1695773143755,-0.17529297,-0.8230591,0.058044434,-1.9375,3.953125,3.390625
109,1695773143783,-0.08276367,-0.79156494,0.04901123,-1.921875,-7.25,-9.390625
110,1695773143826,-0.13183594,-1.1221313,0.21380615,2.03125,-9.25,2.546875
111,1695773143872,-0.203125,-1.0747681,0.22137451,-10.078125,-4.296875,-6.984375
112,1695773143902,-0.13183594,-0.9014282,0.29193115,12.171875,17.46875,3.890625
113,1695773143944,-0.0925293,-0.848938,0.012634277,-8.015625,-5.40625,-10.578125
114,1695773143976,-0.1496582,-1.0366821,0.16790771,0.484375,-9.0,1.03125
115,1695773144025,-0.2722168,-1.0894165,0.24481201,-10.546875,-14.15625,-1.8125
116,1695773144065,-0.23657227,-0.95928955,0.30633545,6.1875,24.46875,4.75
117,1695773144099,-0.084472656,-0.8804321,0.029968262,-1.234375,6.046875,-10.390625
118,1695773144140,-0.08251953,-1.0855103,0.1984253,-11.625,-1.5625,-2.59375
119,1695773144187,-0.2397461,-0.9336548,0.22113037,-4.890625,-3.0625,3.953125
120,1695773144216,-0.29296875,-0.96099854,0.2518921,-1.234375,8.640625,-1.1875
121,1695773144262,-0.12988281,-0.94415283,0.22796631,2.59375,4.75,-6.46875
122,1695773144293,-0.05078125,-1.0901489,0.19256592,-5.390625,-6.890625,-1.1875
123,1695773144339,-0.17041016,-0.9663696,0.22845459,-9.28125,-2.140625,1.09375
124,1695773144380,-0.25195312,-0.9434204,0.21234131,-8.375,-1.5,-5.671875
125,1695773144410,-0.22680664,-0.97442627,0.27288818,-9.046875,4.625,-8.015625
126,1695773144459,-0.099609375,-0.98760986,0.22406006,-26.21875,1.1875,-7.828125
127,1695773144531,-0.24951172,-0.91656494,0.23480225,-28.171875,-38.734375,-10.25
128,1695773144540,-0.1772461,-1.0755005,0.5470581,10.640625,3.0,9.15625
129,1695773144579,-0.21777344,-0.84625244,0.15863037,-9.71875,-0.046875,0.40625
130,1695773144605,-0.19946289,-0.96710205,0.22747803,3.3125,-7.453125,-5.125
131,1695773144651,-0.1640625,-0.94244385,0.30584717,4.984375,-4.40625,4.828125
132,1695773144698,-0.2529297,-0.9402466,0.24822998,8.21875,-3.9375,3.984375
133,1695773144726,-0.24243164,-0.94610596,0.2675171,10.703125,1.0,0.109375
134,1695773144772,-0.20288086,-0.92437744,0.27264404,5.796875,2.53125,-0.953125
135,1695773144819,-0.21459961,-0.9817505,0.23114014,3.265625,-1.59375,-0.421875
136,1695773144846,-0.19702148,-0.97369385,0.23431396,-2.046875,-0.703125,0.1875
137,1695773144890,-0.16552734,-0.9788208,0.22381592,-0.890625,-1.125,-0.046875
138,1695773144921,-0.18310547,-0.973938,0.2374878,2.53125,-0.296875,0.546875
139,1695773144966,-0.2109375,-0.9585571,0.2518921,-0.265625,-2.96875,-1.78125
140,1695773145011,-0.23828125,-0.93414307,0.22259521,-5.109375,-2.625,-4.953125
141,1695773145040,-0.22045898,-0.9871216,0.23260498,1.0625,1.171875,-1.71875
142,1695773145086,-0.22753906,-0.95806885,0.23284912,1.71875,4.828125,0.4375
143,1695773145133,-0.23242188,-0.99542236,0.25360107,1.625,7.890625,-0.78125
144,1695773145164,-0.16455078,-1.0093384,0.04437256,4.1875,12.390625,-2.15625
145,1695773145210,-0.15454102,-0.99591064,0.4611206,7.765625,20.296875,5.75
146,1695773145235,-0.25097656,-0.927063,0.13616943,1.578125,6.53125,12.296875
147,1695773145281,-0.1472168,-0.8088989,0.18792725,-6.578125,0.46875,-13.125
148,1695773145324,-0.23608398,-1.0789185,0.23895264,8.234375,-9.296875,-0.09375
149,1695773145355,-0.21948242,-1.1550903,0.37664795,16.21875,4.0,9.65625
150,1695773145401,-0.15405273,-0.89141846,0.10736084,-4.78125,6.625,3.265625
151,1695773145448,-0.23144531,-0.80181885,0.1227417,-22.1875,-7.1875,-8.703125
152,1695773145476,-0.2614746,-1.03302,0.26312256,2.734375,-15.359375,-5.75
153,1695773145519,-0.2475586,-1.1165161,0.34613037,6.40625,11.453125,7.859375
154,1695773145549,-0.048828125,-0.86383057,0.07659912,-7.015625,10.890625,-9.3125
155,1695773145593,-0.15942383,-0.9307251,0.13470459,-18.421875,-11.859375,-12.1875
156,1695773145639,-0.27539062,-0.8550415,0.27557373,6.953125,0.71875,6.890625
157,1695773145668,-0.37670898,-1.2512817,0.3866577,19.421875,-12.671875,6.859375
158,1695773145713,-0.23388672,-0.82354736,0.086120605,0.328125,27.078125,10.515625
159,1695773145758,-0.015625,-1.0593872,0.26531982,-5.546875,-9.953125,-19.40625
160,1695773145791,-0.22851562,-0.9429321,0.2489624,-0.71875,15.703125,16.03125
161,1695773145836,-0.29467773,-0.92803955,0.25653076,-13.6875,-1.171875,3.84375
162,1695773145865,-0.2265625,-0.80474854,0.12884521,-11.203125,2.40625,-13.46875
163,1695773145917,-0.11352539,-1.1953735,0.33685303,10.625,-1.953125,-5.9375
164,1695773145958,-0.13085938,-0.9685669,0.15789795,9.125,-2.25,6.53125
165,1695773145986,-0.19995117,-1.1358032,0.23626709,-0.125,-1.25,8.796875
166,1695773146031,-0.2614746,-0.7918091,0.2736206,-3.484375,12.234375,1.8125
167,1695773146060,-0.2006836,-1.0737915,0.18450928,-4.953125,-7.28125,-10.40625
168,1695773146105,-0.1574707,-0.8596802,0.2814331,-30.34375,0.203125,-6.75
169,1695773146149,-0.16625977,-1.0403442,0.13885498,-26.5625,-27.15625,-13.609375
170,1695773146181,-0.1977539,-0.98516846,0.49334717,6.0,5.65625,10.234375
171,1695773146226,-0.17041016,-0.9788208,0.17254639,-18.578125,-8.359375,-1.125
172,1695773146274,-0.28222656,-0.85040283,0.26922607,-1.609375,-11.0,2.171875
173,1695773146302,-0.18823242,-1.0044556,0.33148193,6.078125,-0.953125,4.171875
174,1695773146347,-0.17626953,-0.86846924,0.13616943,15.90625,-3.84375,-1.9375
175,1695773146375,-0.13378906,-1.0679321,0.3053589,21.609375,2.234375,5.578125
176,1695773146420,-0.1940918,-0.8982544,0.25238037,3.140625,4.40625,8.25
177,1695773146465,-0.25,-0.9319458,0.2074585,-8.484375,-3.65625,-0.984375
178,1695773146494,-0.15258789,-0.9944458,0.22039795,-7.078125,-4.578125,-9.28125
179,1695773146540,-0.17578125,-1.0269165,0.27679443,-0.515625,-3.5,-0.96875
180,1695773146584,-0.2175293,-0.99542236,0.23919678,-0.578125,6.171875,2.0
181,1695773146621,-0.23999023,-0.9697876,0.20037842,5.890625,8.765625,2.890625
182,1695773146661,-0.19213867,-1.0100708,0.16278076,5.875,11.71875,-3.1875
183,1695773146690,-0.13061523,-0.9573364,0.39691162,8.5625,21.390625,4.171875
184,1695773146734,-0.2758789,-0.94903564,0.19891357,-2.21875,3.0,10.25
185,1695773146782,-0.13891602,-0.8296509,0.18377686,-9.4375,0.65625,-10.0
186,1695773146812,-0.19458008,-1.0476685,0.3007202,-8.125,-0.71875,-5.09375
187,1695773146856,-0.14135742,-1.02594,0.11517334,3.328125,-5.015625,-9.71875
188,1695773146900,-0.2319336,-1.1372681,0.45721436,5.8125,-2.203125,9.3125
189,1695773146933,-0.06933594,-0.9351196,0.11981201,-7.1875,2.09375,5.015625
190,1695773146976,-0.39208984,-0.64141846,0.1852417,-0.90625,7.125,5.171875
191,1695773147009,-0.13500977,-1.1636353,0.2218628,-7.390625,-5.828125,-11.328125
192,1695773147050,-0.14916992,-0.98638916,0.39935303,-1.03125,-1.8125,-8.453125
193,1695773147094,-0.076171875,-1.1228638,0.34539795,8.09375,8.09375,7.109375
194,1695773147126,-0.2861328,-0.65338135,0.0016479492,3.453125,2.5625,6.140625
195,1695773147168,-0.15356445,-1.069397,0.29071045,3.828125,-15.71875,-4.34375
196,1695773147214,-0.30737305,-0.9546509,0.29486084,1.46875,3.046875,4.015625
197,1695773147242,-0.23901367,-1.072815,0.35516357,1.1875,4.6875,-10.796875
198,1695773147288,-0.024169922,-1.0444946,0.24334717,4.21875,12.140625,0.59375
199,1695773147320,-0.22949219,-0.8213501,0.09588623,-8.578125,-7.515625,8.015625
200,1695773147363,-0.23583984,-0.9038696,0.2074585,-19.375,0.28125,-11.484375
201,1695773147410,-0.25439453,-1.0125122,0.31781006,5.84375,-23.546875,-20.8125
202,1695773147441,-0.19970703,-1.3045044,0.24066162,-0.171875,11.765625,10.34375
203,1695773147486,-0.027832031,-0.677063,0.21209717,0.046875,9.515625,8.15625
204,1695773147531,-0.37060547,-1.0484009,0.15301514,-9.3125,0.234375,4.03125
205,1695773147561,-0.27172852,-0.8555298,0.33270264,0.59375,3.15625,-2.59375
206,1695773147607,-0.19921875,-0.8677368,0.20794678,-1.546875,-5.65625,-18.28125
207,1695773147635,-0.26708984,-1.47052,0.35369873,-6.421875,-5.78125,1.015625
208,1695773147683,0.1003418,-0.74053955,0.2387085,-5.734375,13.53125,10.0625
209,1695773147725,-0.3840332,-0.7703247,0.13739014,-8.28125,-8.625,5.703125
210,1695773147772,-0.28515625,-0.86431885,0.24334717,6.890625,3.390625,-2.015625
211,1695773147800,-0.26513672,-1.0425415,0.26800537,-0.296875,-13.765625,-15.953125
212,1695773147849,-0.15917969,-1.0725708,0.27459717,13.1875,16.828125,6.796875
213,1695773147876,-0.11376953,-1.0750122,0.3710327,2.0625,16.234375,6.59375
214,1695773147922,-0.16845703,-0.78790283,0.073913574,1.484375,5.0625,2.84375
215,1695773147950,-0.2355957,-0.9109497,0.26507568,6.484375,3.34375,5.40625
216,1695773147996,-0.21508789,-0.8648071,0.20233154,-3.359375,0.859375,-11.8125
217,1695773148041,-0.2097168,-1.2373657,0.35198975,4.546875,-16.90625,-20.34375
218,1695773148069,-0.119628906,-0.9585571,0.13861084,-3.515625,-0.8125,-6.546875
219,1695773148115,-0.12133789,-0.92559814,0.20037842,-3.671875,-7.71875,-4.796875
220,1695773148159,-0.30932617,-1.0818481,0.29974365,3.90625,1.546875,16.015625
221,1695773148191,-0.30786133,-0.897522,0.22235107,9.296875,7.703125,14.359375
222,1695773148235,-0.19189453,-0.895813,0.13861084,-6.65625,6.0625,-7.40625
223,1695773148267,-0.1574707,-0.9692993,0.1828003,-8.5625,-4.640625,-11.6875
224,1695773148315,-0.16308594,-1.0935669,0.29193115,-0.203125,0.953125,1.75
225,1695773148356,-0.2421875,-0.9104614,0.18890381,-5.875,-1.203125,5.9375
226,1695773148385,-0.2536621,-0.9915161,0.26068115,-1.03125,-2.703125,1.921875
227,1695773148430,-0.15478516,-0.9524536,0.21038818,-5.296875,-2.3125,0.078125
228,1695773148474,-0.17529297,-0.989563,0.27679443,-15.9375,-6.34375,-3.25
229,1695773148504,-0.1887207,-0.92926025,0.22723389,-20.28125,-5.625,-0.015625
230,1695773148552,-0.2685547,-0.9026489,0.24969482,-9.75,-25.421875,-7.453125
231,1695773148582,-0.16479492,-1.1177368,0.48919678,7.640625,3.171875,9.65625
232,1695773148626,-0.24951172,-0.90875244,0.19110107,-5.4375,-8.9375,8.125
233,1695773148670,-0.30249023,-0.8713989,0.21551514,-3.25,-12.40625,-1.578125
234,1695773148700,-0.14819336,-0.9002075,0.22576904,5.328125,1.1875,-3.53125
235,1695773148746,-0.19897461,-1.0725708,0.29022217,5.671875,-3.203125,3.109375
236,1695773148791,-0.1821289,-0.9312134,0.20672607,-1.578125,2.765625,1.484375
237,1695773148828,-0.19604492,-0.97735596,0.27996826,-2.609375,-1.9375,1.0
238,1695773148865,-0.21948242,-0.95513916,0.27166748,0.515625,-2.0,4.6875
239,1695773148896,-0.2097168,-0.94903564,0.22576904,-2.109375,-1.390625,-0.40625
240,1695773148942,-0.18701172,-0.95928955,0.24481201,-3.609375,-1.234375,-3.515625
241,1695773148990,-0.19360352,-1.0142212,0.28338623,-0.359375,-2.75,1.8125
242,1695773149014,-0.19335938,-0.9619751,0.2616577,1.4375,2.03125,3.1875
243,1695773149059,-0.2084961,-0.94854736,0.24505615,-0.078125,1.125,0.78125
244,1695773149104,-0.21484375,-0.93463135,0.20941162,1.84375,9.8125,-1.40625
245,1695773149135,-0.20800781,-0.95513916,0.26776123,2.859375,9.125,-1.375
246,1695773149182,-0.19921875,-0.9680786,0.20355225,0.609375,13.515625,2.78125
247,1695773149210,-0.15820312,-1.038147,0.3703003,4.6875,3.09375,-1.984375
248,1695773149257,-0.17993164,-0.9915161,0.23944092,5.296875,7.09375,9.59375
249,1695773149299,-0.16552734,-0.87677,0.1954956,6.28125,1.453125,2.546875
250,1695773149330,-0.12670898,-1.046936,0.29486084,5.828125,-0.296875,5.421875
251,1695773149374,-0.15893555,-0.9038696,0.12225342,-6.890625,2.171875,3.4375
252,1695773149421,-0.21582031,-0.954895,0.29486084,0.875,2.046875,-1.953125
253,1695773149449,-0.1184082,-1.0628052,0.2555542,5.71875,0.34375,3.75
254,1695773149498,-0.123291016,-0.93096924,0.23309326,-1.875,-2.375,2.640625
255,1695773149527,-0.15332031,-1.0527954,0.27703857,-30.40625,-16.625,2.28125
256,1695773149570,-0.2529297,-0.8789673,0.22210693,-13.75,-14.4375,-2.984375
257,1695773149618,-0.1274414,-1.055481,0.35198975,-1.28125,-6.234375,1.375
258,1695773149650,-0.1694336,-0.9338989,0.277771,-0.984375,-4.703125,3.109375
259,1695773149693,-0.15454102,-0.92437744,0.21160889,5.59375,0.6875,0.078125
260,1695773149736,-0.13354492,-0.93829346,0.2975464,-1.15625,-1.6875,0.765625
261,1695773149765,-0.15454102,-0.9968872,0.28289795,-5.734375,-7.625,0.78125
262,1695773149816,-0.1706543,-0.94000244,0.23919678,-8.0625,-6.125,-1.453125
263,1695773149840,-0.12670898,-1.0137329,0.3053589,-5.765625,-0.59375,-5.921875
264,1695773149886,-0.15161133,-0.96417236,0.27947998,-0.609375,-0.53125,0.484375
265,1695773149933,-0.15356445,-0.93829346,0.27581787,-0.1875,2.390625,-2.65625
266,1695773149961,-0.1628418,-0.9602661,0.27825928,-3.203125,6.8125,-2.0625
267,1695773150006,-0.1899414,-0.9873657,0.26971436,-1.40625,7.953125,-1.109375
268,1695773150038,-0.17114258,-1.0054321,0.23114014,-7.765625,16.796875,3.828125
269,1695773150081,-0.1652832,-0.9216919,0.36566162,7.953125,17.28125,4.25
270,1695773150123,-0.095458984,-1.0076294,0.3258667,15.140625,15.734375,12.046875
271,1695773150157,-0.13793945,-0.8311157,0.29974365,2.78125,6.9375,7.046875
272,1695773150202,-0.044433594,-1.0523071,0.30462646,-4.59375,-5.46875,-11.046875
273,1695773150251,-0.12963867,-0.89849854,0.23480225,-3.03125,-9.453125,-12.453125
274,1695773150275,-0.16918945,-1.0217896,0.30194092,11.453125,-3.546875,-2.859375
275,1695773150322,-0.17700195,-1.0020142,0.32537842,11.8125,2.15625,9.375
276,1695773150350,-0.13696289,-0.92803955,0.15423584,-8.078125,0.578125,-5.84375
277,1695773150398,-0.10205078,-0.9924927,0.22845459,-3.3125,-4.0625,-10.59375
278,1695773150441,-0.13793945,-1.0217896,0.3673706,11.625,12.671875,1.25
279,1695773150472,-0.15307617,-1.0164185,0.22088623,7.859375,1.3125,7.15625
280,1695773150517,-0.14428711,-0.87213135,0.04144287,-9.0625,-1.34375,-5.390625
281,1695773150562,-0.15600586,-1.0889282,0.4454956,12.828125,11.234375,-0.09375
282,1695773150592,-0.11303711,-0.9199829,0.23797607,11.296875,0.421875,6.375
283,1695773150635,-0.15820312,-0.8616333,0.184021,-1.03125,-11.84375,0.71875
284,1695773150665,-0.17602539,-0.9819946,0.3139038,-18.46875,-11.671875,-10.453125
285,1695773150709,-0.30200195,-1.0005493,0.2296753,-19.234375,-12.15625,-0.421875
286,1695773150754,-0.21850586,-0.8501587,0.33563232,-5.96875,-4.875,-1.984375
287,1695773150790,-0.05126953,-1.1511841,0.37469482,-12.984375,-1.640625,-0.40625
288,1695773150833,-0.13183594,-0.99835205,0.21063232,-15.390625,-8.609375,2.265625
289,1695773150874,-0.16967773,-0.80792236,0.20550537,9.84375,0.921875,-0.671875
290,1695773150906,-0.12646484,-1.0132446,0.3192749,16.46875,14.296875,4.984375
291,1695773150947,-0.19116211,-0.9585571,0.28656006,-7.953125,-8.453125,-0.078125
292,1695773150977,-0.21411133,-0.95684814,0.28216553,-7.796875,0.734375,-9.90625
293,1695773151024,-0.110839844,-1.0598755,0.32684326,-0.21875,-0.578125,-5.859375
294,1695773151071,-0.16967773,-0.90167236,0.2694702,4.0625,1.640625,2.3125
295,1695773151102,-0.15722656,-0.9373169,0.2855835,-0.734375,-4.25,-1.78125
296,1695773151145,-0.21240234,-0.95806885,0.3139038,-1.890625,-3.203125,2.625
297,1695773151189,-0.19970703,-0.986145,0.23699951,9.15625,5.75,2.328125
298,1695773151221,-0.09399414,-1.1853638,0.20941162,10.84375,8.765625,-0.84375
299,1695773151265,-0.061767578,-0.85601807,0.2975464,14.0625,26.859375,0.046875
300,1695773151295,-0.26049805,-0.9048462,0.25164795,1.671875,-6.3125,10.859375
301,1695773151341,-0.19067383,-0.7732544,0.2633667,-4.4375,-2.28125,-10.40625
302,1695773151383,-0.19555664,-1.1262817,0.30316162,-5.515625,-9.578125,-6.015625
303,1695773151417,-0.11010742,-1.0115356,0.2682495,-0.171875,-1.546875,-8.171875
304,1695773151465,-0.1665039,-0.97247314,0.28070068,8.5625,-4.453125,7.734375
305,1695773151507,-0.18139648,-0.9446411,0.24847412,1.4375,5.0625,10.28125
306,1695773151535,-0.1928711,-0.9961548,0.19940186,-0.125,-1.21875,0.453125
307,1695773151584,-0.10522461,-1.0117798,0.1593628,-1.328125,0.796875,-1.703125
308,1695773151626,-0.16699219,-0.9324341,0.3307495,3.046875,19.71875,0.828125
309,1695773151656,-0.1862793,-0.92633057,0.17254639,5.734375,-4.75,6.265625
310,1695773151701,-0.11621094,-0.9216919,0.25457764,5.53125,2.203125,-5.546875
311,1695773151736,-0.13012695,-1.081604,0.16937256,10.15625,-20.046875,-1.015625
312,1695773151780,-0.21557617,-1.0088501,0.38031006,20.578125,22.203125,21.390625
313,1695773151824,-0.06298828,-0.93170166,0.109802246,-13.421875,-5.640625,-10.5625
314,1695773151850,-0.20458984,-0.8435669,0.20355225,-10.234375,-9.9375,-8.609375
315,1695773151896,-0.19262695,-1.1074829,0.262146,5.53125,-19.359375,-4.296875
316,1695773151928,-0.19750977,-1.0264282,0.30047607,12.28125,3.296875,10.265625
317,1695773151972,0.0068359375,-0.9065552,0.08001709,-2.171875,4.78125,-6.609375
318,1695773152017,-0.13916016,-0.98883057,0.11639404,-5.65625,-23.171875,-10.765625
319,1695773152060,-0.3347168,-1.0679321,0.30096436,-0.734375,-3.6875,14.046875
320,1695773152089,-0.27685547,-0.86846924,0.16156006,2.203125,9.3125,3.625
321,1695773152136,-0.1430664,-1.0911255,0.15618896,5.09375,0.328125,-11.515625
322,1695773152165,-0.07495117,-0.96710205,0.18548584,-0.703125,17.28125,2.265625
323,1695773152210,-0.11791992,-0.9924927,0.14324951,-17.25,-6.953125,-2.984375
324,1695773152247,-0.28686523,-0.94317627,0.23822021,-13.546875,7.640625,0.5
325,1695773152288,-0.19482422,-0.8718872,0.16278076,-16.25,-1.609375,-15.9375
326,1695773152331,-0.17871094,-1.1043091,0.37127686,-13.3125,-2.0,-7.9375
327,1695773152362,-0.15063477,-1.008606,0.28411865,-25.140625,5.515625,-1.53125
328,1695773152404,-0.3071289,-0.86065674,0.26141357,-14.3125,-10.359375,5.453125
329,1695773152450,-0.17626953,-1.0606079,0.30755615,-6.421875,-5.484375,0.140625
330,1695773152486,-0.16015625,-0.9590454,0.3307495,0.671875,9.84375,11.140625
331,1695773152525,-0.1821289,-0.9133911,0.22796631,4.953125,-0.21875,5.953125
332,1695773152562,-0.080078125,-0.96099854,0.30316162,0.265625,0.65625,2.34375
333,1695773152600,-0.14575195,-0.9002075,0.27923584,-3.5,5.890625,-1.09375
334,1695773152648,-0.18261719,-0.881897,0.29266357,12.078125,6.359375,-7.546875
335,1695773152676,-0.10986328,-1.0569458,0.36419678,5.15625,-6.25,-3.359375
336,1695773152723,-0.18847656,-0.9727173,0.24676514,-6.421875,-5.78125,0.40625
337,1695773152798,-0.19970703,-0.94537354,0.31536865,-3.96875,-4.53125,3.78125
338,1695773152804,-0.21459961,-0.96173096,0.29437256,1.015625,-4.8125,3.515625
339,1695773152840,-0.18774414,-0.9019165,0.29241943,-0.296875,2.453125,-3.6875
340,1695773152871,-0.13452148,-1.050354,0.26287842,2.6875,-0.484375,-3.171875
341,1695773152915,-0.16455078,-0.925354,0.23675537,-4.25,-2.390625,-0.375
342,1695773152958,-0.20336914,-0.9590454,0.31097412,-1.34375,-2.5,-0.390625
343,1695773152988,-0.24609375,-0.96221924,0.34344482,6.328125,4.8125,3.4375
344,1695773153033,-0.14819336,-0.9619751,0.27386475,1.765625,4.078125,0.734375
345,1695773153079,-0.1274414,-0.93829346,0.25579834,-5.984375,-0.765625,-5.734375
346,1695773153109,-0.20336914,-1.0122681,0.3139038,0.3125,0.265625,-1.890625
347,1695773153155,-0.21289062,-0.9277954,0.28729248,1.09375,3.703125,1.078125
348,1695773153231,-0.15576172,-0.9365845,0.2723999,-2.9375,4.171875,-3.328125
349,1695773153234,-0.13574219,-1.0176392,0.32073975,3.625,-2.5625,-3.484375
350,1695773153276,-0.18286133,-0.9360962,0.293396,5.515625,5.625,2.671875
351,1695773153307,-0.16186523,-1.2039185,0.15447998,4.28125,0.3125,-5.71875
352,1695773153351,-0.15844727,-0.8262329,0.35150146,16.828125,16.28125,0.859375
353,1695773153428,-0.20239258,-1.0193481,0.1786499,-1.5625,-0.9375,5.96875
354,1695773153430,-0.17578125,-0.8652954,0.2243042,0.21875,1.046875,-1.75
355,1695773153476,-0.1875,-1.1265259,0.3817749,8.875,6.90625,15.8125
356,1695773153507,-0.111816406,-0.85406494,0.2062378,-7.71875,5.171875,-1.828125
357,1695773153546,-0.095703125,-1.0066528,0.20355225,-22.3125,-15.0,-13.0625
358,1695773153593,-0.15966797,-0.9336548,0.28070068,-10.421875,-6.03125,-2.65625
359,1695773153620,-0.16015625,-0.97247314,0.2597046,-11.1875,-8.484375,-0.015625
360,1695773153665,-0.1965332,-0.91729736,0.28216553,-22.015625,-10.984375,-5.609375
361,1695773153711,-0.22851562,-0.9771118,0.37835693,-23.421875,-10.5625,-5.9375
362,1695773153740,-0.25830078,-1.0288696,0.4100952,-15.4375,-15.8125,7.046875
363,1695773153785,-0.22314453,-0.94195557,0.3991089,-2.984375,-1.796875,12.1875
364,1695773153817,-0.23291016,-0.87042236,0.32684326,5.453125,6.453125,7.8125
365,1695773153861,-0.09301758,-0.91973877,0.30316162,11.359375,5.21875,5.484375
366,1695773153906,-0.1472168,-0.93536377,0.277771,3.140625,1.078125,-1.140625
367,1695773153935,-0.13500977,-0.9854126,0.3710327,4.84375,3.703125,-1.625
368,1695773153980,-0.17138672,-0.9680786,0.371521,2.65625,1.40625,2.53125
369,1695773154035,-0.15185547,-0.958313,0.2819214,-4.21875,-2.734375,-1.59375
370,1695773154058,-0.16625977,-0.94000244,0.3204956,3.203125,2.96875,2.8125
371,1695773154101,-0.13720703,-0.98516846,0.3480835,2.828125,2.671875,2.453125
372,1695773154136,-0.17407227,-0.89801025,0.33685303,-2.359375,3.015625,-0.265625
373,1695773154175,-0.12573242,-0.9463501,0.3168335,0.734375,6.109375,-4.078125
374,1695773154221,-0.12011719,-0.95025635,0.32733154,2.25,4.140625,-3.640625
375,1695773154249,-0.12768555,-0.97198486,0.3048706,-1.5,9.765625,2.09375
376,1695773154296,-0.17944336,-0.9463501,0.32806396,-3.890625,1.09375,-8.015625
377,1695773154327,-0.13769531,-1.0010376,0.31976318,7.453125,7.015625,3.890625
378,1695773154371,-0.19042969,-0.88067627,0.3366089,9.015625,8.296875,-1.65625
379,1695773154415,-0.1262207,-1.0784302,0.36175537,10.421875,2.5,-2.234375
380,1695773154448,-0.21044922,-0.84747314,0.21746826,-1.328125,1.15625,2.109375
381,1695773154491,-0.061035156,-1.0442505,0.34906006,2.171875,0.828125,-10.359375
382,1695773154543,-0.16601562,-0.95196533,0.25701904,0.078125,-3.046875,4.0
383,1695773154565,-0.19091797,-0.93170166,0.34490967,4.984375,-1.921875,-5.203125
384,1695773154614,-0.23925781,-0.9529419,0.3024292,-1.171875,-8.65625,1.578125
385,1695773154642,-0.106933594,-0.9221802,0.22625732,1.328125,4.171875,-7.546875
386,1695773154686,-0.103027344,-1.1204224,0.30096436,9.8125,-1.890625,-1.265625
387,1695773154735,-0.21655273,-0.94366455,0.27825928,-1.9375,-2.625,7.734375
388,1695773154759,-0.24658203,-0.848938,0.2850952,-17.75,-14.421875,-7.34375
389,1695773154805,-0.21313477,-1.0667114,0.307312,-5.296875,-11.15625,-6.875
390,1695773154851,-0.14111328,-0.9795532,0.28094482,1.8125,3.21875,4.515625
391,1695773154883,-0.20507812,-0.9180298,0.25335693,6.34375,1.359375,3.328125
392,1695773154925,-0.13500977,-0.9846802,0.30218506,6.21875,-0.546875,2.296875
393,1695773154966,-0.16015625,-0.9299927,0.26898193,-5.25,-7.03125,3.0
394,1695773155002,-0.17749023,-0.95684814,0.2098999,-6.5,-6.40625,-5.078125
395,1695773155048,-0.17553711,-0.97320557,0.2880249,-4.578125,-1.09375,-5.65625
396,1695773155074,-0.18164062,-1.0237427,0.338562,0.171875,3.546875,-0.125
397,1695773155120,-0.19995117,-0.92266846,0.24066162,-0.96875,3.921875,2.375
398,1695773155168,-0.21899414,-0.9421997,0.27386475,6.75,12.59375,0.578125
399,1695773155196,-0.1262207,-1.1272583,0.2748413,-1.78125,10.3125,-1.953125
400,1695773155238,-0.13720703,-0.96099854,0.2645874,5.328125,14.671875,-3.203125
401,1695773155274,-0.25268555,-0.7390747,0.24505615,3.984375,7.34375,8.140625
402,1695773155316,-0.045410156,-0.9631958,0.27703857,-1.65625,-3.78125,-12.90625
403,1695773155360,-0.20947266,-1.0427856,0.25872803,-2.84375,-2.15625,1.140625
404,1695773155391,-0.18457031,-1.112854,0.41278076,8.203125,-0.46875,0.3125
405,1695773155435,-0.12548828,-0.94976807,0.19378662,-4.53125,2.53125,2.140625
406,1695773155481,-0.24023438,-0.78863525,0.18841553,1.234375,0.625,1.953125
407,1695773155514,-0.2019043,-1.0305786,0.25775146,11.3125,2.421875,3.0
408,1695773155558,-0.22998047,-1.0889282,0.354187,-1.65625,-0.84375,-2.578125
409,1695773155588,-0.030273438,-0.96466064,0.26654053,1.75,7.4375,-4.578125
410,1695773155630,-0.12597656,-0.83135986,0.13470459,-5.4375,-9.5625,-2.78125
411,1695773155674,-0.17211914,-0.97613525,0.28338623,5.34375,-4.125,5.25
412,1695773155708,-0.28515625,-1.086731,0.2670288,1.46875,-12.234375,4.9375
413,1695773155750,-0.06347656,-0.8845825,0.2321167,7.71875,20.75,-1.515625
414,1695773155800,-0.12524414,-0.9155884,0.1486206,-6.53125,-3.53125,-5.8125
415,1695773155824,-0.17089844,-1.0022583,0.28875732,-4.328125,-4.046875,-1.90625
416,1695773155885,-0.28979492,-1.036438,0.26019287,-9.875,-10.828125,-1.15625
417,1695773155901,-0.14746094,-0.97442627,0.2699585,-10.03125,9.53125,-8.15625
418,1695773155944,-0.11767578,-0.989563,0.2526245,-29.875,-10.21875,-3.046875
419,1695773156000,-0.20507812,-0.99713135,0.31341553,-12.015625,-20.125,7.015625
420,1695773156020,-0.22387695,-0.91241455,0.35736084,-5.984375,-3.765625,13.140625
421,1695773156067,-0.17602539,-0.86431885,0.22161865,12.640625,4.828125,-9.375
422,1695773156111,-0.09448242,-1.0276489,0.27069092,10.359375,4.21875,-4.46875
423,1695773156141,-0.14990234,-0.88848877,0.2609253,-1.53125,0.484375,0.5625
424,1695773156186,-0.19970703,-0.9973755,0.28656006,-2.09375,-4.609375,-0.765625
425,1695773156218,-0.19848633,-0.97320557,0.2814331,-0.125,-1.765625,-2.546875
426,1695773156266,-0.17089844,-0.94659424,0.26483154,3.28125,3.53125,-4.0625
427,1695773156306,-0.16455078,-0.99224854,0.28753662,2.953125,2.53125,-2.375
428,1695773156336,-0.19335938,-0.9221802,0.30169678,3.515625,1.828125,-1.734375
429,1695773156381,-0.20092773,-1.0593872,0.09051514,4.328125,4.328125,-1.09375
430,1695773156436,-0.14111328,-0.9192505,0.41497803,10.484375,15.96875,3.09375
431,1695773156456,-0.123535156,-1.0320435,0.17767334,2.59375,2.203125,0.9375
432,1695773156502,-0.2055664,-0.76397705,0.24432373,1.125,0.828125,-4.109375
433,1695773156533,-0.19604492,-1.0806274,0.30511475,-4.109375,-12.671875,-3.515625
434,1695773156580,-0.21313477,-0.9055786,0.2411499,-0.890625,-6.453125,-3.390625
435,1695773156622,-0.23852539,-1.1082153,0.3534546,1.8125,0.6875,1.046875
436,1695773156651,-0.2121582,-0.9585571,0.19378662,0.6875,1.015625,9.703125
437,1695773156696,-0.2607422,-0.87384033,0.2086792,-4.875,-0.609375,1.203125
438,1695773156739,-0.21826172,-0.9780884,0.2819214,4.109375,4.421875,-3.328125
439,1695773156769,-0.13964844,-1.0020142,0.26898193,2.71875,0.53125,-8.0
440,1695773156812,-0.12231445,-1.0339966,0.24383545,-8.296875,-6.65625,-1.765625
441,1695773156843,-0.2512207,-0.9819946,0.2333374,-5.875,-11.9375,6.96875
442,1695773156887,-0.22192383,-0.9397583,0.27923584,-6.09375,-5.71875,5.546875
443,1695773156933,-0.24487305,-0.8689575,0.16766357,-4.359375,-4.328125,-4.921875
444,1695773156963,-0.13183594,-1.0300903,0.2567749,11.484375,6.890625,-4.59375
445,1695773157007,-0.19970703,-0.9885864,0.26190186,0.8125,3.546875,4.5625
446,1695773157084,-0.21728516,-0.92681885,0.21063232,-4.5625,-0.78125,-0.09375
447,1695773157086,-0.19921875,-0.97442627,0.25579834,-2.03125,0.828125,0.625
448,1695773157126,-0.21240234,-0.96759033,0.2374878,0.0,2.296875,2.453125
449,1695773157157,-0.19262695,-0.95806885,0.2543335,1.28125,4.421875,-1.0625
450,1695773157203,-0.19067383,-1.0227661,0.24920654,-0.5625,4.59375,-1.484375
451,1695773157248,-0.15429688,-0.9553833,0.11444092,-1.921875,11.734375,-2.5
452,1695773157277,-0.15429688,-1.0203247,0.36590576,5.421875,19.0625,0.78125
453,1695773157322,-0.21533203,-0.909729,0.2033081,4.234375,6.625,10.671875
454,1695773157367,-0.14697266,-0.92803955,0.29632568,-4.203125,-1.375,-5.46875
455,1695773157397,-0.20996094,-0.92022705,0.16986084,2.828125,1.296875,-1.125
456,1695773157442,-0.16137695,-0.9937134,0.31536865,1.828125,1.890625,-6.3125
457,1695773157472,-0.18066406,-1.0322876,0.2958374,6.546875,5.28125,1.875
458,1695773157519,-0.21044922,-0.9163208,0.12225342,-6.234375,-0.203125,-1.828125
459,1695773157562,-0.19018555,-1.0569458,0.23529053,0.234375,-5.140625,0.34375
460,1695773157594,-0.1105957,-0.94122314,0.31951904,13.21875,20.15625,3.34375
461,1695773157638,-0.1784668,-0.8423462,0.09588623,3.1875,0.734375,-2.046875
462,1695773157683,-0.22216797,-1.0505981,0.2543335,-4.015625,-14.859375,-6.390625
463,1695773157715,-0.18481445,-1.041565,0.34539795,4.125,8.46875,4.375
464,1695773157762,-0.15771484,-0.8911743,0.1437378,-1.375,-5.578125,-2.9375
465,1695773157790,-0.24047852,-0.9849243,0.31585693,7.109375,-2.15625,5.3125
466,1695773157835,-0.1850586,-0.9898071,0.17327881,-8.765625,0.890625,0.453125
467,1695773157881,-0.17773438,-1.0437622,0.22918701,-17.6875,-6.84375,-4.34375
468,1695773157912,-0.14428711,-0.76568604,0.16815186,-19.828125,-16.453125,-16.265625
469,1695773157956,-0.28125,-1.3013306,0.46966553,-8.9375,-23.0625,5.5
470,1695773158001,-0.10644531,-0.8399048,0.15887451,0.453125,9.5,12.109375
471,1695773158032,-0.22998047,-0.9434204,0.16619873,-6.921875,-15.390625,-0.5
472,1695773158074,-0.22998047,-0.85113525,0.29144287,13.75,4.0625,9.140625
473,1695773158105,-0.21118164,-1.0081177,0.29144287,0.578125,3.90625,1.40625
474,1695773158150,-0.17138672,-0.9258423,0.20721436,-2.03125,-0.0625,-6.328125
475,1695773158197,-0.14672852,-1.0361938,0.2975464,-3.21875,-4.140625,-5.15625
476,1695773158223,-0.19677734,-0.97662354,0.2387085,-1.296875,1.25,4.6875
477,1695773158270,-0.20751953,-0.9194946,0.22137451,-1.078125,3.078125,-0.140625
478,1695773158299,-0.18847656,-0.9985962,0.2789917,3.78125,5.265625,0.0625
479,1695773158347,-0.1862793,-0.99591064,0.25482178,-0.453125,4.703125,1.203125
480,1695773158391,-0.1586914,-0.9434204,0.21429443,-2.796875,3.21875,-1.796875
481,1695773158422,-0.17773438,-0.9717407,0.26776123,1.71875,3.90625,-0.421875
482,1695773158466,-0.19580078,-0.97076416,0.23577881,0.515625,5.796875,1.671875
483,1695773158512,-0.21118164,-0.909729,0.20037842,-5.203125,10.625,-3.71875
484,1695773158540,-0.14355469,-1.0825806,0.33831787,3.21875,5.796875,-8.515625
485,1695773158586,-0.13378906,-0.9636841,0.26190186,0.8125,8.703125,-0.125
486,1695773158618,-0.22558594,-0.8635864,0.17767334,-1.734375,3.71875,3.796875
487,1695773158661,-0.1809082,-0.94122314,0.3143921,-4.984375,-1.109375,-6.546875
488,1695773158706,-0.18798828,-1.0410767,0.35736084,7.203125,-0.828125,-4.65625
489,1695773158735,-0.19873047,-0.93341064,0.16668701,-2.03125,3.234375,-1.75
490,1695773158781,-0.17236328,-0.9932251,0.2506714,-2.0625,-2.28125,-5.125
491,1695773158826,-0.25512695,-1.0100708,0.32513428,7.0625,3.6875,10.390625
492,1695773158855,-0.17504883,-0.8796997,0.20355225,-6.171875,2.203125,-3.4375
493,1695773158901,-0.19726562,-0.98028564,0.2975464,2.6875,-3.296875,-3.578125
494,1695773158945,-0.13720703,-0.97442627,0.26849365,2.5,0.953125,1.359375
495,1695773158975,-0.12573242,-1.0532837,0.28582764,-12.609375,-15.21875,0.9375
496,1695773159019,-0.25732422,-0.9780884,0.2477417,-16.890625,-18.15625,4.75
497,1695773159050,-0.3125,-0.8987427,0.27435303,-0.40625,-9.953125,1.234375
498,1695773159092,-0.18237305,-0.93829346,0.25457764,7.28125,6.625,-1.296875
499,1695773159139,-0.16870117,-0.9595337,0.21575928,2.71875,-3.125,-0.734375
500,1695773159169,-0.12451172,-0.96832275,0.24090576,4.9375,3.28125,5.5625
501,1695773159213,-0.2253418,-0.9963989,0.28289795,0.53125,0.546875,7.953125
502,1695773159248,-0.20947266,-0.911438,0.23260498,-1.46875,0.015625,-2.03125
503,1695773159290,-0.16845703,-0.97979736,0.23846436,-5.265625,-2.109375,-6.015625
504,1695773159335,-0.17773438,-0.9817505,0.27752686,-0.875,-0.890625,0.65625
505,1695773159366,-0.21191406,-0.97320557,0.25946045,-0.375,2.671875,2.9375
506,1695773159412,-0.21875,-0.96466064,0.26531982,3.296875,5.640625,1.625
507,1695773159456,-0.19433594,-0.97662354,0.24285889,-1.421875,7.40625,0.40625
508,1695773159488,-0.16479492,-1.0344849,0.16741943,-9.734375,10.890625,-2.625
509,1695773159532,-0.068359375,-0.8508911,0.322937,-3.859375,12.546875,-5.265625
510,1695773159558,-0.17797852,-1.0383911,0.27801514,5.0625,-0.09375,7.078125
511,1695773159603,-0.19458008,-0.86309814,0.30340576,0.671875,-2.6875,-3.359375
512,1695773159648,-0.21484375,-0.9998169,0.26483154,-1.09375,-5.78125,-0.4375
513,1695773159681,-0.1953125,-0.97003174,0.21087646,-5.796875,-0.984375,-0.984375
514,1695773159726,-0.1538086,-0.9985962,0.3776245,1.359375,7.203125,-4.671875
515,1695773159775,-0.21264648,-0.91485596,0.21502686,0.671875,2.890625,3.671875
516,1695773159799,-0.16577148,-0.9324341,0.16082764,-1.28125,-3.015625,-5.90625
517,1695773159845,-0.15698242,-1.0942993,0.45159912,14.234375,8.890625,2.65625
518,1695773159883,-0.16992188,-0.9480591,0.25164795,-0.078125,0.640625,5.15625
519,1695773159919,-0.24438477,-0.8364868,0.15789795,-1.78125,-5.15625,-5.0
520,1695773159969,-0.1743164,-1.0359497,0.29241943,-3.90625,-1.15625,-5.390625
521,1695773159994,-0.18188477,-1.0310669,0.30926514,1.859375,-1.25,-3.078125
522,1695773160038,-0.10644531,-0.9807739,0.2711792,4.53125,7.640625,3.40625
523,1695773160083,-0.2434082,-0.88775635,0.15570068,-2.65625,-2.0625,6.609375
524,1695773160118,-0.13720703,-0.93951416,0.26800537,-1.75,-3.890625,-5.796875
525,1695773160161,-0.2319336,-1.0261841,0.2741089,1.375,-6.34375,0.21875
526,1695773160191,-0.19165039,-0.9089966,0.2616577,4.90625,7.328125,1.84375
527,1695773160236,-0.1303711,-1.0020142,0.21966553,-9.6875,-3.3125,-2.15625
528,1695773160284,-0.19506836,-1.0125122,0.2662964,-5.984375,-4.828125,0.828125
529,1695773160309,-0.20922852,-0.98638916,0.2555542,0.546875,4.09375,3.421875
530,1695773160354,-0.2290039,-0.88360596,0.27264404,-2.015625,5.875,-2.421875
531,1695773160399,-0.15551758,-1.0134888,0.24749756,1.046875,9.484375,-1.28125
532,1695773160431,-0.114746094,-0.98321533,0.2819214,-8.421875,-1.3125,-2.28125
533,1695773160474,-0.25830078,-1.0344849,0.3222046,-12.125,-11.921875,-0.5
534,1695773160503,-0.18896484,-0.89849854,0.29266357,-8.359375,-7.84375,-2.609375
535,1695773160547,-0.18774414,-0.9981079,0.2975464,-2.796875,-7.328125,1.65625
536,1695773160593,-0.16577148,-0.9429321,0.2687378,0.46875,0.59375,5.875
537,1695773160622,-0.19677734,-0.94073486,0.26263428,-8.265625,-7.6875,-2.4375
538,1695773160667,-0.18896484,-0.93634033,0.2567749,3.59375,0.515625,-3.015625
539,1695773160712,-0.123535156,-0.9841919,0.29779053,6.359375,3.578125,1.296875
540,1695773160746,-0.1875,-0.96343994,0.31414795,-0.96875,-3.546875,2.640625
541,1695773160787,-0.19335938,-0.9324341,0.21795654,-5.078125,-4.53125,-3.796875
542,1695773160816,-0.16430664,-0.96221924,0.2609253,-6.6875,-4.4375,-3.3125
543,1695773160862,-0.17285156,-0.99420166,0.31756592,0.796875,-2.1875,-0.9375
544,1695773160908,-0.18457031,-0.9734497,0.28753662,4.171875,2.53125,-0.765625
545,1695773160941,-0.23754883,-0.9248657,0.27020264,3.90625,2.671875,-1.046875
546,1695773160983,-0.23242188,-0.9390259,0.30999756,-1.53125,2.453125,-6.21875
547,1695773161027,-0.19384766,-0.9397583,0.18670654,-8.5625,3.0,-13.703125
548,1695773161056,-0.20263672,-1.013977,0.38568115,1.265625,5.625,-12.265625
549,1695773161102,-0.20239258,-0.98150635,0.29681396,4.078125,8.609375,7.84375
550,1695773161133,-0.19702148,-0.9011841,0.23358154,-5.34375,-2.015625,-3.796875
551,1695773161178,-0.24121094,-1.0059204,0.37786865,16.3125,8.859375,5.78125
552,1695773161222,-0.2788086,-0.91607666,0.23919678,6.0,7.125,4.359375
553,1695773161257,-0.18676758,-0.89678955,0.22064209,-11.890625,-3.28125,-8.40625
554,1695773161299,-0.16064453,-1.1167603,0.39691162,11.46875,6.421875,-0.25
555,1695773161344,-0.24609375,-0.8508911,0.23040771,3.578125,7.078125,10.203125
556,1695773161372,-0.18823242,-0.90338135,0.25408936,-3.0625,-5.515625,-2.015625
557,1695773161420,-0.21289062,-0.9849243,0.30828857,6.125,0.625,-0.640625
558,1695773161453,-0.22802734,-0.973938,0.24749756,5.375,2.265625,1.453125
559,1695773161496,-0.22558594,-1.0283813,0.32269287,6.234375,0.75,3.015625
560,1695773161542,-0.24804688,-0.9541626,0.2765503,-12.03125,-7.578125,3.640625
561,1695773161572,-0.1730957,-0.9170532,0.19232178,-11.953125,-12.640625,-4.609375
562,1695773161617,-0.17773438,-1.0593872,0.33514404,0.890625,-3.125,5.875
563,1695773161665,-0.18188477,-0.89019775,0.17010498,-1.671875,-2.015625,2.78125
564,1695773161696,-0.15600586,-0.9151001,0.2387085,6.84375,2.078125,1.0
565,1695773161735,-0.1586914,-1.0213013,0.31878662,0.359375,-2.3125,4.84375
566,1695773161765,-0.23095703,-0.9092407,0.23406982,-3.140625,-7.328125,2.796875
567,1695773161812,-0.19335938,-0.9771118,0.24822998,-8.65625,-4.84375,-7.90625
568,1695773161855,-0.1862793,-1.0112915,0.28900146,-0.015625,-1.65625,-0.8125
569,1695773161885,-0.21411133,-0.94195557,0.27191162,-0.953125,-0.125,1.484375
570,1695773161930,-0.20483398,-0.9661255,0.262146,-0.125,-1.234375,-1.5
571,1695773161976,-0.18847656,-0.9631958,0.26605225,-2.109375,1.0625,-2.546875
572,1695773162006,-0.21362305,-0.99835205,0.23065186,-3.46875,3.515625,-2.28125
573,1695773162049,-0.18066406,-0.9570923,0.29119873,3.484375,8.140625,-1.671875
574,1695773162080,-0.18237305,-0.9819946,0.2633667,0.609375,2.765625,-0.703125
575,1695773162123,-0.1628418,-0.9534302,0.21160889,-8.59375,-4.703125,-6.515625
576,1695773162172,-0.20776367,-0.9812622,0.36151123,-2.84375,-10.328125,0.171875
577,1695773162201,-0.2668457,-0.8555298,0.21697998,-3.5,-1.578125,-3.40625
578,1695773162246,-0.2397461,-0.94659424,0.3012085,5.96875,5.53125,-3.484375
579,1695773162294,-0.19018555,-1.0252075,0.30633545,7.46875,5.765625,1.390625
580,1695773162318,-0.19360352,-0.909729,0.21429443,-0.640625,3.828125,2.828125
581,1695773162364,-0.22998047,-0.9985962,0.3241577,1.96875,-1.171875,-1.640625
582,1695773162393,-0.25585938,-0.9456177,0.23431396,1.21875,4.578125,0.109375
583,1695773162441,-0.19433594,-0.89312744,0.19793701,-3.796875,5.15625,-5.859375
584,1695773162488,-0.15039062,-1.098938,0.3378296,5.953125,-1.484375,-6.265625
585,1695773162514,-0.23168945,-0.9680786,0.26971436,1.515625,2.21875,10.3125
586,1695773162563,-0.234375,-0.92437744,0.27142334,-11.609375,-7.609375,2.375
587,1695773162593,-0.2927246,-0.9607544,0.27313232,-6.65625,-8.75,-2.578125
588,1695773162635,-0.19677734,-0.9949341,0.30267334,0.65625,-1.03125,2.828125
589,1695773162679,-0.18652344,-0.9216919,0.22503662,-2.859375,-1.203125,-0.609375
590,1695773162709,-0.17382812,-0.9663696,0.26116943,0.625,0.03125,2.25
591,1695773162753,-0.22827148,-0.95635986,0.31097412,-3.203125,-7.40625,3.265625
592,1695773162797,-0.22143555,-0.9651489,0.25628662,-5.0,-3.4375,1.875
593,1695773162828,-0.18579102,-0.9729614,0.2765503,-3.921875,-1.484375,-2.4375
594,1695773162873,-0.2133789,-0.97076416,0.30218506,-2.53125,0.875,1.53125
595,1695773162904,-0.22729492,-0.94000244,0.2741089,-2.890625,-0.65625,0.5625
596,1695773162949,-0.20678711,-0.9553833,0.2855835,0.0,1.4375,-0.640625
597,1695773162993,-0.21411133,-0.9414673,0.2843628,-0.71875,7.953125,0.53125
598,1695773163024,-0.19238281,-0.96832275,0.24505615,-3.359375,9.0,0.015625
599,1695773163069,-0.1928711,-0.9480591,0.36029053,3.265625,6.1875,-4.015625
600,1695773163114,-0.1628418,-0.97491455,0.2189331,-5.40625,7.578125,1.28125
601,1695773163144,-0.22680664,-0.9048462,0.32781982,-4.078125,-3.625,-5.578125
602,1695773163188,-0.17797852,-1.0183716,0.28582764,4.40625,5.046875,-1.078125
603,1695773163218,-0.20751953,-0.880188,0.30926514,2.4375,3.71875,-0.03125
604,1695773163262,-0.20385742,-1.0374146,0.33319092,6.890625,-0.078125,0.109375
605,1695773163308,-0.22216797,-0.91851807,0.21453857,2.890625,2.75,3.984375
606,1695773163338,-0.15112305,-0.9602661,0.29315186,3.078125,-2.328125,-2.4375
607,1695773163383,-0.19042969,-1.0044556,0.31170654,8.109375,-0.796875,6.3125
608,1695773163428,-0.20288086,-0.9138794,0.24822998,-3.0625,-2.796875,-2.984375
609,1695773163457,-0.17749023,-1.006897,0.28460693,3.828125,-6.875,-2.625
610,1695773163503,-0.15820312,-1.0081177,0.31903076,1.484375,-6.484375,2.34375
611,1695773163534,-0.2319336,-0.9324341,0.24554443,-9.078125,-15.828125,3.265625
612,1695773163578,-0.25097656,-1.0078735,0.2826538,-8.546875,-6.421875,2.359375
613,1695773163624,-0.21484375,-0.8687134,0.2230835,6.109375,-2.96875,0.71875
614,1695773163655,-0.22094727,-1.0142212,0.3258667,5.25,2.765625,2.125
615,1695773163700,-0.16625977,-0.9451294,0.2086792,4.1875,2.421875,-2.671875
616,1695773163745,-0.18457031,-0.9468384,0.25994873,2.78125,5.65625,2.75
617,1695773163777,-0.23266602,-1.0203247,0.19476318,-4.4375,4.734375,-3.15625
618,1695773163831,-0.18066406,-0.9326782,0.2687378,1.515625,14.453125,-2.40625
619,1695773163851,-0.1940918,-1.0979614,0.23284912,7.265625,11.96875,-1.25
620,1695773163896,-0.18701172,-0.86846924,0.24334717,4.625,14.828125,2.5625
621,1695773163939,-0.16894531,-1.017395,0.31341553,2.6875,-3.453125,0.859375
622,1695773163971,-0.21557617,-0.7854614,0.082458496,2.328125,4.34375,0.078125
623,1695773164016,-0.22192383,-1.1465454,0.4208374,7.09375,-3.34375,-5.109375
624,1695773164061,-0.22973633,-1.0322876,0.19403076,-3.265625,7.953125,5.046875
625,1695773164092,-0.15942383,-0.86383057,0.16326904,-6.890625,-1.453125,-7.578125
626,1695773164136,-0.17578125,-0.95318604,0.2098999,9.28125,-7.96875,4.765625
627,1695773164165,-0.3239746,-0.96539307,0.3764038,11.59375,8.796875,10.359375
628,1695773164209,-0.083984375,-0.94659424,0.07562256,-7.671875,5.328125,-8.40625
629,1695773164258,-0.13500977,-1.0855103,0.2592163,-2.890625,-8.5625,-9.59375
630,1695773164287,-0.23828125,-0.8933716,0.23406982,9.421875,2.84375,13.40625
631,1695773164330,-0.3461914,-1.019104,0.29388428,4.09375,2.296875,10.453125
632,1695773164375,-0.14404297,-0.9368286,0.12786865,-5.03125,2.828125,-8.953125
633,1695773164408,-0.08959961,-0.9199829,0.1593628,-3.1875,8.171875,-0.3125
634,1695773164451,-0.13183594,-1.1275024,0.28411865,-2.203125,-0.265625,-0.84375
635,1695773164483,-0.2253418,-0.909729,0.22113037,5.59375,6.21875,4.203125
636,1695773164542,-0.13891602,-0.90460205,0.18719482,-0.15625,0.265625,-14.53125
637,1695773164571,-0.20410156,-1.03302,0.25286865,1.125,-11.34375,-9.5625
638,1695773164600,-0.25341797,-0.9561157,0.1954956,-7.625,-1.5625,4.109375
639,1695773164647,-0.14111328,-1.0420532,0.23797607,-13.6875,-7.609375,-6.796875
640,1695773164691,-0.234375,-1.0003052,0.2592163,0.546875,-4.96875,4.59375
641,1695773164721,-0.1550293,-0.8591919,0.18353271,-2.84375,0.015625,-1.375
642,1695773164764,-0.17773438,-1.0032349,0.24310303,-12.015625,-3.890625,-8.53125
643,1695773164797,-0.20751953,-0.98760986,0.26385498,-7.125,-9.625,-6.125
644,1695773164842,-0.29370117,-0.9500122,0.28411865,-10.234375,-23.6875,-2.328125
645,1695773164887,-0.28076172,-0.9932251,0.35394287,-6.28125,-13.203125,1.453125
646,1695773164916,-0.19970703,-0.9434204,0.2255249,-4.46875,-3.0,-3.8125
647,1695773164962,-0.18725586,-0.9487915,0.2020874,1.84375,-7.125,-1.921875
648,1695773165006,-0.22241211,-0.9468384,0.23724365,1.890625,-6.359375,-1.359375
649,1695773165035,-0.25927734,-0.9920044,0.2921753,-2.921875,-6.125,0.34375
650,1695773165081,-0.27954102,-0.9170532,0.25360107,-7.5,-8.71875,-4.140625
651,1695773165110,-0.27246094,-0.9468384,0.25408936,-10.828125,-7.71875,-10.09375
652,1695773165157,-0.28100586,-0.9678345,0.27947998,0.921875,-2.0,-3.484375
653,1695773165201,-0.2783203,-0.9451294,0.30511475,-3.453125,-0.109375,0.78125
654,1695773165239,-0.27319336,-0.94415283,0.26654053,-3.0625,-1.609375,-0.5625
655,1695773165291,-0.27685547,-0.960022,0.30926514,-2.5,-0.640625,2.015625
656,1695773165352,-0.27514648,-0.9121704,0.26116943,0.0,2.3125,0.3125
657,1695773165358,-0.30664062,-0.95440674,0.3139038,2.90625,6.96875,1.609375
658,1695773165402,-0.27441406,-0.8965454,0.26483154,-0.140625,11.890625,5.140625
659,1695773165430,-0.28100586,-0.99005127,0.2819214,-1.15625,6.453125,-1.421875
660,1695773165473,-0.22998047,-0.9624634,0.29071045,8.203125,13.1875,3.625
661,1695773165515,-0.2619629,-0.95513916,0.33172607,9.890625,9.671875,5.53125
662,1695773165548,-0.26293945,-0.8880005,0.20794678,-2.34375,8.640625,1.734375
663,1695773165591,-0.1862793,-1.0161743,0.31414795,3.359375,2.328125,-7.546875
664,1695773165636,-0.22875977,-0.98443604,0.27923584,7.078125,12.203125,10.359375
665,1695773165668,-0.22705078,-0.86968994,0.2374878,0.890625,7.0625,4.796875
666,1695773165712,-0.22875977,-1.0098267,0.3085327,7.140625,2.625,2.21875
667,1695773165740,-0.21875,-0.94195557,0.24578857,3.328125,5.078125,4.375
668,1695773165786,-0.17553711,-1.036438,0.3139038,-1.875,-6.8125,3.671875
669,1695773165831,-0.25683594,-0.9595337,0.2531128,-14.0625,-6.15625,8.203125
670,1695773165864,-0.22094727,-0.9043579,0.24847412,-3.8125,-6.78125,-0.8125
671,1695773165906,-0.16259766,-1.0198364,0.26263428,9.484375,1.390625,0.25
672,1695773165953,-0.1616211,-0.91241455,0.24456787,3.84375,3.796875,4.03125
673,1695773165979,-0.1862793,-0.9673462,0.23968506,-7.078125,-7.046875,0.3125
674,1695773166025,-0.21166992,-0.9380493,0.25604248,-3.96875,-1.625,-1.609375
675,1695773166056,-0.18115234,-1.0271606,0.29534912,-1.59375,1.0625,-2.84375
676,1695773166100,-0.19433594,-0.9402466,0.25213623,-2.21875,0.328125,-0.171875
677,1695773166145,-0.2133789,-0.9417114,0.26434326,-3.359375,-1.046875,-2.0
678,1695773166176,-0.18383789,-0.9729614,0.26531982,1.53125,4.703125,-1.140625
679,1695773166222,-0.19165039,-0.97076416,0.27142334,-2.03125,3.78125,1.46875
680,1695773166266,-0.23339844,-0.9805298,0.20233154,-3.046875,12.296875,2.96875
681,1695773166296,-0.15112305,-0.9956665,0.27630615,-1.515625,12.5,-1.015625
682,1695773166340,-0.09448242,-1.0459595,0.33050537,17.90625,14.625,4.265625
683,1695773166369,-0.20825195,-0.81988525,0.23822021,7.34375,1.140625,10.203125
684,1695773166414,-0.13354492,-1.0264282,0.2189331,-6.375,-7.390625,-11.484375
685,1695773166462,-0.23022461,-0.8904419,0.26605225,-15.15625,-12.40625,-19.15625
686,1695773166489,-0.16210938,-1.1170044,0.35272217,10.46875,4.546875,-5.359375
687,1695773166537,-0.24243164,-0.86187744,0.18988037,0.4375,4.140625,8.09375
688,1695773166582,-0.1418457,-0.95562744,0.18377686,-10.671875,-9.890625,-8.671875
689,1695773166610,-0.25634766,-1.0234985,0.37200928,6.03125,2.734375,1.546875
690,1695773166657,-0.2253418,-0.93585205,0.19671631,3.265625,4.640625,3.78125
691,1695773166686,-0.14428711,-0.86602783,0.17718506,-7.1875,-8.3125,-12.8125
692,1695773166730,-0.19213867,-1.0618286,0.37371826,5.296875,-2.828125,1.328125
693,1695773166775,-0.23022461,-0.90948486,0.2062378,7.421875,3.90625,12.609375
694,1695773166806,-0.24194336,-0.9837036,0.29730225,10.515625,0.0,5.734375
695,1695773166852,-0.21508789,-0.98931885,0.25115967,-15.453125,-2.625,-1.703125
696,1695773166882,-0.18139648,-0.84552,0.18572998,-22.375,-17.515625,-12.5
697,1695773166935,-0.23120117,-1.2363892,0.40447998,0.109375,-15.796875,-0.234375
698,1695773166971,-0.19140625,-0.88067627,0.15496826,-6.75,6.59375,10.90625
699,1695773167001,-0.2529297,-0.82769775,0.1930542,2.84375,-3.09375,-2.78125
700,1695773167055,-0.14501953,-1.0901489,0.30926514,9.640625,3.859375,-0.171875
701,1695773167089,-0.12792969,-0.9265747,0.25042725,-6.59375,3.9375,6.203125
702,1695773167119,-0.25146484,-0.9824829,0.26239014,-1.796875,-5.359375,-0.484375
703,1695773167169,-0.19091797,-1.0166626,0.2897339,-0.265625,-1.859375,-0.625
704,1695773167196,-0.22363281,-0.93634033,0.2218628,-1.65625,5.1875,1.90625
705,1695773167240,-0.17700195,-0.944397,0.24627686,0.234375,5.109375,-1.0625
706,1695773167287,-0.19213867,-0.9644165,0.2814331,3.75,4.09375,-2.3125
707,1695773167317,-0.12426758,-1.0874634,0.14837646,-2.078125,3.640625,-2.0
708,1695773167360,-0.13842773,-0.9338989,0.34906006,6.296875,14.953125,2.734375
709,1695773167407,-0.26635742,-0.9390259,0.20672607,-4.890625,-3.0,3.6875
710,1695773167439,-0.20825195,-0.8882446,0.27557373,-2.15625,-0.8125,-9.015625
711,1695773167481,-0.20654297,-0.9439087,0.2687378,-1.21875,0.90625,-2.296875
712,1695773167513,-0.16748047,-1.0220337,0.25360107,-2.09375,-0.40625,-5.203125
713,1695773167557,-0.21411133,-0.9871216,0.26898193,5.421875,2.296875,4.109375
714,1695773167601,-0.203125,-0.97003174,0.2399292,-3.28125,4.8125,8.703125
715,1695773167633,-0.18701172,-0.93463135,0.2736206,-9.515625,0.71875,-9.3125
716,1695773167675,-0.17626953,-0.9673462,0.22747803,4.125,5.515625,-6.5625
717,1695773167722,-0.16699219,-1.0115356,0.36663818,10.90625,7.859375,6.0
718,1695773167749,-0.21508789,-0.9475708,0.20892334,0.484375,0.828125,7.703125
719,1695773167797,-0.20703125,-0.93170166,0.18450928,3.8125,-0.078125,2.65625
720,1695773167826,-0.19726562,-1.0188599,0.30389404,-3.015625,8.171875,-0.625
721,1695773167870,-0.1706543,-1.2044067,0.34124756,-5.78125,-1.328125,-6.46875
722,1695773167915,-0.041503906,-0.8074341,0.15911865,1.015625,13.90625,0.3125
723,1695773167949,-0.31347656,-0.7588501,0.27386475,6.953125,-5.609375,7.1875
724,1695773167992,-0.1303711,-1.0171509,0.2645874,-2.734375,-2.890625,-3.78125
725,1695773168038,-0.19555664,-1.022522,0.22235107,-11.28125,-15.640625,-4.21875
726,1695773168066,-0.17504883,-0.97076416,0.29486084,11.5625,5.59375,1.90625
727,1695773168112,-0.06713867,-0.98394775,0.24749756,-6.078125,-3.796875,0.765625
728,1695773168143,-0.13842773,-1.0044556,0.23358154,-20.59375,-17.65625,2.875
729,1695773168186,-0.265625,-0.90802,0.27972412,0.609375,-16.515625,-3.046875
730,1695773168230,-0.20385742,-1.0552368,0.33270264,-1.65625,-5.234375,-0.53125
731,1695773168262,-0.2097168,-0.88897705,0.23724365,-11.234375,-13.203125,-11.109375
732,1695773168306,-0.14331055,-0.9998169,0.20697021,7.65625,-1.296875,-6.8125
733,1695773168351,-0.14331055,-0.95977783,0.25701904,7.546875,5.21875,14.765625
734,1695773168384,-0.2548828,-0.9373169,0.2616577,-4.59375,-4.234375,6.640625
735,1695773168428,-0.22143555,-0.9404907,0.23699951,-7.28125,-6.5625,-6.75
736,1695773168457,-0.1706543,-0.97198486,0.26605225,-7.453125,-0.546875,-7.390625
737,1695773168501,-0.16748047,-1.0151978,0.28338623,-2.546875,0.984375,0.328125
738,1695773168545,-0.20776367,-0.9439087,0.2506714,-2.578125,3.65625,1.015625
739,1695773168575,-0.21508789,-0.9529419,0.2929077,-6.609375,3.328125,-0.515625
740,1695773168622,-0.2541504,-1.0100708,0.26678467,-8.515625,13.0625,1.078125
741,1695773168665,-0.1508789,-0.89727783,0.32391357,-8.28125,10.15625,0.609375
742,1695773168696,-0.110839844,-1.0183716,0.33026123,12.921875,13.234375,-1.671875
743,1695773168742,-0.2265625,-0.78692627,0.33807373,15.84375,5.65625,11.5
744,1695773168771,-0.18554688,-1.0064087,0.34417725,2.15625,-4.5625,-0.234375
745,1695773168816,-0.2331543,-0.8909302,0.13153076,-11.3125,-7.796875,-15.828125
746,1695773168862,-0.1159668,-1.1187134,0.4328003,6.625,3.5,-10.265625
747,1695773168890,-0.17089844,-0.9614868,0.28289795,3.796875,7.375,7.21875
748,1695773168935,-0.18383789,-0.89678955,0.24945068,-1.0,-5.203125,0.6875
749,1695773168981,-0.20776367,-0.9505005,0.28167725,10.53125,-5.3125,2.21875
750,1695773169010,-0.30078125,-0.9133911,0.23260498,6.25,10.28125,6.15625
751,1695773169055,-0.06518555,-1.123352,0.19744873,-7.90625,0.640625,-17.859375
752,1695773169086,-0.15820312,-0.98443604,0.30975342,8.515625,1.078125,4.5625
753,1695773169130,-0.20947266,-0.89312744,0.19915771,-2.84375,5.078125,10.96875
754,1695773169175,-0.20703125,-0.94073486,0.2741089,-8.109375,-5.5,-6.703125
755,1695773169206,-0.22143555,-0.9656372,0.2736206,-2.921875,6.796875,-10.640625
756,1695773169251,-0.1394043,-0.95098877,0.26654053,-15.90625,-5.03125,-12.234375
757,1695773169297,-0.26367188,-0.989563,0.35369873,-20.609375,-22.765625,-0.671875
758,1695773169326,-0.2084961,-1.0715942,0.40008545,4.25,-7.53125,10.09375
759,1695773169374,-0.18945312,-0.90167236,0.23480225,-7.515625,0.625,6.609375
760,1695773169402,-0.2241211,-0.8987427,0.26385498,-4.0,-8.078125,0.53125
761,1695773169446,-0.2163086,-0.9116821,0.2958374,0.53125,-0.4375,0.296875
762,1695773169492,-0.13183594,-1.053772,0.27825928,8.59375,3.84375,4.265625
763,1695773169520,-0.1730957,-0.9429321,0.28167725,1.296875,0.109375,8.0625
764,1695773169566,-0.24365234,-0.91973877,0.27752686,2.171875,-0.125,-1.3125
765,1695773169612,-0.19848633,-0.9475708,0.26361084,-1.515625,2.15625,-2.703125
766,1695773169655,-0.18115234,-0.9692993,0.2999878,-3.859375,-1.265625,-6.875
767,1695773169689,-0.16210938,-1.0300903,0.32513428,0.3125,0.84375,2.890625
768,1695773169719,-0.18701172,-0.9277954,0.26483154,0.46875,3.390625,4.4375
769,1695773169761,-0.19042969,-0.9458618,0.27215576,-0.421875,1.5,1.03125
770,1695773169804,-0.19116211,-0.9524536,0.30706787,-0.84375,4.703125,-1.015625
771,1695773169838,-0.1899414,-0.9290161,0.1906128,-4.1875,7.0625,-2.25
772,1695773169881,-0.17602539,-1.010315,0.3973999,3.953125,7.671875,-4.578125
773,1695773169925,-0.14941406,-0.9697876,0.2633667,-0.25,6.546875,1.875
774,1695773169956,-0.16625977,-0.8855591,0.24090576,0.953125,-1.125,-2.578125
775,1695773170002,-0.18798828,-1.0567017,0.39422607,4.734375,-4.859375,2.53125
776,1695773170034,-0.23828125,-0.8706665,0.18792725,15.140625,-1.890625,1.140625
777,1695773170076,-0.2043457,-0.98223877,0.36834717,4.90625,10.875,0.546875
778,1695773170122,-0.12890625,-0.93585205,0.14349365,-10.53125,-0.921875,-9.828125
779,1695773170153,-0.18725586,-0.99420166,0.35565186,-9.34375,-10.359375,-5.9375
780,1695773170196,-0.24414062,-1.0552368,0.2831421,6.796875,-4.34375,4.171875
781,1695773170241,-0.25976562,-0.9414673,0.32855225,18.78125,12.234375,8.390625
782,1695773170271,-0.0847168,-1.0186157,0.19744873,-3.109375,-4.21875,-3.75
783,1695773170317,-0.16259766,-0.78448486,0.12445068,-13.359375,-2.953125,-6.21875
784,1695773170348,-0.19726562,-1.1326294,0.3781128,9.96875,-5.703125,2.21875
785,1695773170392,-0.30249023,-0.9627075,0.3312378,13.03125,4.515625,8.1875
786,1695773170434,-0.13061523,-0.9468384,0.19207764,-3.3125,5.265625,-3.75
787,1695773170468,-0.15356445,-0.9302368,0.1774292,-17.9375,-9.265625,-7.796875
788,1695773170509,-0.20239258,-0.98272705,0.30950928,2.734375,4.890625,7.25
789,1695773170552,-0.25683594,-0.96417236,0.31072998,11.625,4.703125,9.109375
790,1695773170582,-0.16577148,-1.02594,0.23699951,17.140625,-7.609375,4.9375
791,1695773170628,-0.14892578,-1.0386353,0.22039795,3.375,3.609375,10.875
792,1695773170659,-0.20678711,-0.8977661,0.22161865,-15.140625,1.296875,-2.5625
793,1695773170703,-0.25097656,-0.8670044,0.168396,-14.75,1.8125,-11.734375
794,1695773170748,-0.05517578,-1.0779419,0.2975464,-6.4375,-2.4375,-10.671875
795,1695773170777,-0.076660156,-1.0303345,0.21160889,-3.21875,2.5625,-1.90625
796,1695773170823,-0.15795898,-0.9024048,0.18548584,-1.40625,-1.4375,1.234375
797,1695773170851,-0.26879883,-0.911438,0.28411865,-13.828125,-3.296875,-5.03125
798,1695773170897,-0.28686523,-0.8911743,0.30413818,-10.28125,-0.734375,-7.0
799,1695773170944,-0.23046875,-1.1707153,0.40057373,-6.3125,-18.90625,-0.125
800,1695773170976,-0.11010742,-0.9854126,0.28704834,1.546875,7.578125,7.734375
801,1695773171017,-0.21508789,-0.8701782,0.25946045,-7.515625,-1.4375,-0.09375
802,1695773171064,-0.19213867,-1.0134888,0.3139038,3.59375,0.453125,-1.859375
803,1695773171092,-0.18066406,-0.8687134,0.25091553,0.546875,-3.59375,-0.546875
804,1695773171138,-0.20458984,-1.031311,0.26068115,7.25,-3.3125,-1.34375
805,1695773171167,-0.16479492,-0.89678955,0.25750732,8.59375,2.484375,0.578125
806,1695773171213,-0.15356445,-0.99224854,0.29266357,3.59375,-2.625,4.359375
807,1695773171256,-0.20288086,-0.92633057,0.26141357,-3.234375,-9.03125,-2.359375
808,1695773171288,-0.19726562,-0.986145,0.25628662,-10.140625,-9.78125,-8.65625
809,1695773171333,-0.18896484,-0.9902954,0.2531128,-9.9375,-5.28125,-7.046875
810,1695773171379,-0.23461914,-0.98223877,0.26849365,1.671875,-0.25,-0.296875
811,1695773171407,-0.24169922,-0.95880127,0.23651123,3.125,9.875,-0.78125
812,1695773171455,-0.22729492,-0.93536377,0.11907959,-4.75,20.28125,-4.609375
813,1695773171489,-0.19482422,-0.9924927,0.36639404,2.9375,12.75,-12.46875
814,1695773171530,-0.21801758,-1.1060181,0.31585693,15.6875,9.84375,4.59375
815,1695773171574,-0.29492188,-0.798645,0.27630615,5.796875,12.484375,10.328125
816,1695773171605,-0.09814453,-1.022522,0.26312256,3.90625,0.28125,-7.9375
817,1695773171653,-0.24633789,-0.6838989,0.2086792,0.25,12.0625,-1.6875
818,1695773171697,-0.21948242,-1.1089478,0.3222046,-7.453125,-17.875,-11.203125
819,1695773171724,-0.2680664,-1.0137329,0.37347412,14.109375,12.875,11.578125
820,1695773171772,-0.16699219,-0.9380493,0.089538574,-11.84375,-5.40625,-6.4375
821,1695773171801,-0.25634766,-0.9780884,0.30682373,1.78125,-0.484375,-4.265625
822,1695773171845,-0.26904297,-0.9763794,0.34222412,8.25,8.1875,6.421875
823,1695773171889,-0.20629883,-0.9089966,0.24163818,-13.265625,3.953125,0.375
824,1695773171920,-0.16552734,-0.9168091,0.24969482,-22.1875,-5.421875,-19.4375
825,1695773171965,-0.3059082,-1.0325317,0.32928467,-17.65625,-20.078125,-2.09375
826,1695773172014,-0.25732422,-1.0755005,0.4352417,13.921875,-1.09375,15.125
827,1695773172040,-0.24414062,-0.8792114,0.2543335,-4.765625,-3.78125,5.625
828,1695773172086,-0.28125,-0.8899536,0.24310303,2.15625,-2.46875,-1.1875
829,1695773172116,-0.123046875,-0.93170166,0.262146,6.40625,-0.703125,0.859375
830,1695773172162,-0.18457031,-1.0122681,0.27581787,0.5625,-8.734375,5.625
831,1695773172205,-0.2709961,-0.9277954,0.2909546,0.265625,-8.0625,-1.625
832,1695773172235,-0.23071289,-0.9871216,0.29974365,3.484375,0.171875,2.390625
833,1695773172286,-0.22558594,-0.93585205,0.2645874,1.40625,1.515625,3.71875
834,1695773172331,-0.23168945,-0.9429321,0.23724365,1.09375,-2.15625,-1.25
835,1695773172357,-0.2241211,-0.9639282,0.31488037,-2.171875,-2.140625,-1.734375
836,1695773172401,-0.23291016,-0.9932251,0.27972412,1.34375,-0.1875,0.9375
837,1695773172429,-0.19628906,-0.95635986,0.2538452,0.15625,3.28125,2.171875
838,1695773172475,-0.24365234,-0.9651489,0.22821045,0.234375,7.578125,2.890625
839,1695773172520,-0.21362305,-0.8933716,0.25408936,-5.265625,6.875,-1.53125
840,1695773172550,-0.23046875,-1.0466919,0.25213623,-0.78125,12.5625,-4.46875
841,1695773172596,-0.12475586,-0.9065552,0.340271,0.5625,12.671875,-4.0625
842,1695773172640,-0.24609375,-1.0049438,0.27972412,0.34375,4.25,10.890625
843,1695773172670,-0.20800781,-0.84991455,0.23626709,-8.296875,-1.53125,-5.953125
844,1695773172714,-0.17700195,-1.0601196,0.33587646,3.109375,-0.34375,2.6875
845,1695773172748,-0.19018555,-0.90826416,0.22576904,-6.0,-1.578125,-3.5625
846,1695773172791,-0.18579102,-1.0391235,0.36712646,6.046875,7.625,-2.421875
847,1695773172838,-0.27124023,-0.9373169,0.24334717,3.171875,0.71875,9.625
848,1695773172870,-0.1928711,-0.8945923,0.27996826,-8.53125,0.84375,-6.296875
849,1695773172915,-0.14501953,-1.0518188,0.3451538,8.296875,2.921875,-2.59375
850,1695773172957,-0.2697754,-0.86920166,0.20819092,5.71875,4.828125,7.5
851,1695773172986,-0.19360352,-0.9133911,0.27630615,-10.734375,-9.953125,-8.765625
852,1695773173033,-0.18530273,-1.0715942,0.32733154,7.078125,1.9375,-0.71875
853,1695773173061,-0.22241211,-0.92681885,0.26190186,13.15625,6.609375,8.453125
854,1695773173106,-0.17993164,-0.99957275,0.32244873,7.9375,2.90625,5.34375
855,1695773173150,-0.22851562,-0.8731079,0.1930542,-17.5625,-16.125,-1.296875
856,1695773173181,-0.23364258,-1.0928345,0.34466553,-9.9375,-23.28125,-4.734375
857,1695773173228,-0.15136719,-1.0056763,0.27874756,-0.890625,0.765625,4.25
858,1695773173270,-0.20043945,-0.8899536,0.17401123,-5.765625,-6.546875,0.671875
859,1695773173302,-0.13769531,-0.9768677,0.2399292,2.09375,0.359375,1.203125
860,1695773173345,-0.17529297,-0.9221802,0.2921753,2.25,-1.328125,1.296875
861,1695773173378,-0.25170898,-0.9871216,0.26678467,0.984375,-3.15625,-1.34375
862,1695773173422,-0.19824219,-0.94317627,0.25531006,-2.828125,-0.890625,-6.765625
863,1695773173466,-0.16479492,-1.0505981,0.2982788,-0.046875,1.71875,0.296875
864,1695773173499,-0.21777344,-0.93756104,0.24725342,1.0625,0.609375,4.71875
865,1695773173544,-0.22875977,-0.92803955,0.27044678,-4.5625,-1.28125,-1.53125
866,1695773173616,-0.20166016,-0.9631958,0.29364014,-2.40625,0.8125,-3.78125
867,1695773173620,-0.16870117,-0.9734497,0.25872803,-1.0625,1.3125,-1.828125
868,1695773173662,-0.17480469,-0.9717407,0.21868896,-4.328125,5.0625,1.75
869,1695773173695,-0.18603516,-0.9138794,0.30511475,-6.171875,3.0625,-2.625
870,1695773173739,-0.21484375,-0.9871216,0.22406006,-6.421875,7.375,-3.203125
871,1695773173781,-0.14135742,-0.9314575,0.34124756,5.390625,2.984375,-8.546875
872,1695773173812,-0.26220703,-0.9663696,0.30291748,3.59375,6.703125,3.515625
873,1695773173857,-0.24243164,-0.8809204,0.26849365,-8.078125,-3.703125,-9.578125
874,1695773173902,-0.20581055,-1.0151978,0.3390503,-0.125,-1.15625,-9.671875
875,1695773173931,-0.20703125,-0.97442627,0.2975464,2.453125,-0.59375,0.09375
876,1695773173977,-0.22631836,-0.96710205,0.27850342,-1.546875,-5.734375,1.75
877,1695773174051,-0.23925781,-0.9939575,0.36932373,-6.0,-5.015625,0.25
878,1695773174056,-0.24609375,-0.8945923,0.2802124,-12.8125,-11.890625,0.890625
879,1695773174096,-0.31811523,-0.93927,0.31243896,-9.0,-5.578125,6.875
880,1695773174126,-0.2043457,-0.94195557,0.28851318,6.65625,0.109375,-0.421875
881,1695773174172,-0.18701172,-0.9570923,0.30633545,7.09375,2.96875,4.0
882,1695773174247,-0.17089844,-0.92022705,0.2753296,0.4375,-2.984375,1.546875
883,1695773174250,-0.21142578,-0.9229126,0.28729248,-5.203125,-9.8125,-1.75
884,1695773174293,-0.25341797,-0.9885864,0.32122803,-3.625,-7.078125,-2.46875
885,1695773174320,-0.24169922,-0.96221924,0.32489014,2.921875,2.84375,-0.0625
886,1695773174365,-0.2548828,-0.9273071,0.2843628,1.40625,2.640625,0.46875
887,1695773174409,-0.2565918,-0.928772,0.2892456,1.25,2.4375,-2.796875
888,1695773174440,-0.20239258,-0.9714966,0.2814331,2.640625,9.71875,-2.546875
889,1695773174488,-0.1887207,-0.9819946,0.28582764,-4.546875,5.359375,-1.921875
890,1695773174531,-0.2421875,-0.9158325,0.29193115,-2.953125,3.71875,-3.34375
891,1695773174562,-0.23364258,-0.9651489,0.2970581,2.203125,4.859375,-4.46875
892,1695773174605,-0.2536621,-0.95635986,0.28070068,0.796875,5.15625,-10.71875
893,1695773174634,-0.23925781,-0.9002075,0.34002686,12.53125,10.5625,-6.71875
894,1695773174683,-0.28442383,-1.0161743,0.30096436,5.390625,1.375,-0.984375
895,1695773174725,-0.24243164,-0.8538208,0.24163818,-3.203125,4.203125,-7.734375
896,1695773174758,-0.25830078,-0.98565674,0.32855225,1.828125,2.28125,-4.671875
897,1695773174799,-0.2788086,-0.94732666,0.31488037,1.8125,1.828125,1.296875
898,1695773174845,-0.26660156,-0.91607666,0.21575928,-3.484375,0.8125,-6.0
899,1695773174874,-0.17919922,-0.99957275,0.30926514,-7.734375,3.21875,-8.96875
900,1695773174919,-0.3232422,-0.8936157,0.3060913,-20.75,-5.03125,3.71875
901,1695773174949,-0.33520508,-0.8584595,0.27508545,-0.625,-13.75,-3.90625
902,1695773174992,-0.31640625,-1.0713501,0.42962646,2.765625,-6.3125,0.140625
903,1695773175037,-0.28393555,-0.9109497,0.29608154,-3.921875,0.109375,-1.421875
