,timestamp,accel_x,accel_y,accel_z,gyro_x,gyro_y,gyro_z,mag_x,mag_y,mag_z
0,1695809792847,0.4609375,0.8652344,-0.045898438,-24.71875,39.21875,-29.125,0.0,0.0,0.0
1,1695809792908,0.46289062,0.90625,-0.015625,-29.25,39.21875,-32.25,0.0,0.0,0.0
2,1695809792937,0.4267578,0.8984375,0.016601562,-19.21875,43.0,-26.8125,0.0,0.0,0.0
3,1695809792967,0.46777344,0.8876953,-0.07714844,-3.96875,36.65625,-12.03125,0.0,0.0,0.0
4,1695809793027,0.5253906,0.921875,-0.032226562,18.96875,38.3125,-4.65625,0.0,0.0,0.0
5,1695809793057,0.74316406,0.9638672,0.049804688,41.9375,9.4375,1.875,0.0,0.0,0.0
6,1695809793087,0.40527344,1.1396484,0.107421875,54.125,-60.5,20.25,0.0,0.0,0.0
7,1695809793148,0.25683594,1.2285156,-0.016601562,76.71875,-75.65625,28.78125,0.0,0.0,0.0
8,1695809793207,0.2841797,1.1943359,-0.022460938,90.75,-67.28125,15.3125,0.0,0.0,0.0
9,1695809793209,0.064453125,1.2060547,-0.16210938,106.09375,-26.375,16.53125,-4.1875,36.9375,-157.375
10,1695809793267,0.34570312,1.0595703,-0.09082031,105.15625,-26.75,6.625,0.0,0.0,0.0
11,1695809793297,0.47753906,0.8378906,-0.20605469,79.84375,-50.0,5.28125,0.0,0.0,0.0
12,1695809793327,0.33789062,0.78808594,-0.28125,68.53125,-66.25,7.59375,0.0,0.0,0.0
13,1695809793390,0.20019531,0.62402344,-0.2861328,27.59375,-65.5,12.125,0.0,0.0,0.0
14,1695809793418,0.103515625,0.52441406,-0.3046875,-13.6875,-49.875,4.625,0.0,0.0,0.0
15,1695809793450,0.1171875,0.58691406,-0.31054688,-34.71875,-18.53125,-10.09375,0.0,0.0,0.0
16,1695809793512,0.24023438,0.60253906,-0.35839844,-44.75,12.25,-6.1875,0.0,0.0,0.0
17,1695809793540,0.34765625,0.7089844,-0.40527344,-60.84375,11.8125,-9.1875,0.0,0.0,0.0
18,1695809793572,0.36914062,1.0615234,-0.58691406,-63.21875,4.3125,-10.6875,0.0,0.0,0.0
19,1695809793630,0.3779297,1.1640625,-0.6298828,-4.28125,-24.875,8.34375,0.0,0.0,0.0
20,1695809793697,0.41015625,0.74316406,-0.58984375,10.0,-36.875,19.625,0.0,0.0,0.0
21,1695809793704,0.35351562,0.8964844,-0.546875,-38.21875,-16.625,36.78125,-10.5,31.8125,-165.5
22,1695809793750,0.40429688,1.4492188,-0.025390625,-30.03125,12.5625,19.21875,0.0,0.0,0.0
23,1695809793781,0.13769531,1.0332031,0.0146484375,-17.21875,9.0625,20.96875,0.0,0.0,0.0
24,1695809793811,0.0068359375,0.6923828,-0.16894531,11.96875,-3.6875,-15.03125,0.0,0.0,0.0
25,1695809793871,0.68066406,1.15625,0.17382812,22.875,72.25,-9.125,0.0,0.0,0.0
26,1695809793903,0.45214844,0.9169922,-0.17773438,-43.40625,81.03125,22.625,0.0,0.0,0.0
27,1695809793930,0.39160156,0.8017578,-0.14160156,-40.15625,18.28125,6.15625,0.0,0.0,0.0
28,1695809793990,0.33789062,0.8564453,0.030273438,-40.71875,32.375,7.65625,0.0,0.0,0.0
29,1695809794022,0.3544922,0.89160156,-0.103515625,-55.46875,44.46875,-0.75,0.0,0.0,0.0
30,1695809794050,0.42382812,0.79589844,-0.07324219,-44.8125,42.8125,-6.90625,0.0,0.0,0.0
31,1695809794108,0.40039062,0.77441406,0.049804688,-39.375,37.5,-16.0625,0.0,0.0,0.0
32,1695809794141,0.42285156,0.85058594,-0.047851562,-39.0625,30.125,-30.1875,0.0,0.0,0.0
33,1695809794168,0.48828125,0.8417969,-0.0546875,-30.21875,41.78125,-30.1875,0.0,0.0,0.0
34,1695809794229,0.6035156,0.8144531,-0.030273438,-32.46875,21.46875,-33.53125,-3.3125,36.3125,-152.625
35,1695809794262,0.45507812,0.93359375,-0.017578125,-35.78125,2.46875,-23.28125,0.0,0.0,0.0
36,1695809794289,0.39746094,0.9707031,0.024414062,-23.125,3.53125,-12.53125,0.0,0.0,0.0
37,1695809794350,0.4970703,0.9707031,-0.072265625,3.71875,23.65625,-18.8125,0.0,0.0,0.0
38,1695809794382,0.59472656,1.0537109,0.12207031,36.5,3.34375,-19.90625,0.0,0.0,0.0
39,1695809794409,0.359375,1.2558594,0.2578125,47.5,-38.90625,12.625,0.0,0.0,0.0
40,1695809794471,0.3671875,1.1484375,-0.021484375,62.125,-48.78125,28.0,0.0,0.0,0.0
41,1695809794500,0.36328125,1.0976562,-0.055664062,75.875,-64.65625,10.28125,0.0,0.0,0.0
42,1695809794530,0.2548828,1.0517578,-0.076171875,105.21875,-57.28125,13.78125,0.0,0.0,0.0
43,1695809794590,0.4248047,0.9873047,-0.12109375,100.71875,-69.0,19.15625,0.0,0.0,0.0
44,1695809794624,0.41601562,0.92578125,-0.1640625,84.21875,-90.0625,17.625,0.0,0.0,0.0
45,1695809794650,0.32421875,0.78808594,-0.2607422,67.0625,-109.65625,20.125,0.0,0.0,0.0
46,1695809794712,0.21972656,0.7294922,-0.23242188,45.65625,-89.875,37.28125,-12.3125,28.8125,-168.1875
47,1695809794741,0.09082031,0.5625,-0.22753906,-7.5625,-76.9375,31.21875,0.0,0.0,0.0
48,1695809794769,0.1796875,0.5517578,-0.234375,-41.375,-48.5,11.9375,0.0,0.0,0.0
49,1695809794832,0.16796875,0.5410156,-0.36914062,-63.53125,-20.53125,3.40625,0.0,0.0,0.0
50,1695809794860,0.234375,0.640625,-0.46972656,-79.03125,-24.375,-9.90625,0.0,0.0,0.0
51,1695809794890,0.35351562,1.0449219,-0.6376953,-73.0,-20.90625,-1.125,0.0,0.0,0.0
52,1695809794952,0.42285156,1.2109375,-0.6171875,-18.3125,-41.46875,16.15625,0.0,0.0,0.0
53,1695809794981,0.53222656,0.6484375,-0.64453125,14.65625,-75.78125,43.375,0.0,0.0,0.0
54,1695809795010,0.31152344,1.3085938,-0.13574219,-40.28125,11.5,64.1875,0.0,0.0,0.0
55,1695809795069,0.16699219,1.4277344,-0.0390625,-6.28125,-14.5625,16.15625,0.0,0.0,0.0
56,1695809795101,0.22265625,0.74902344,-0.16796875,21.90625,-26.34375,-13.75,0.0,0.0,0.0
57,1695809795130,0.4609375,0.8378906,0.119140625,22.28125,84.4375,9.5,0.0,0.0,0.0
58,1695809795188,0.5449219,1.0478516,-0.06347656,-62.75,42.75,16.8125,0.0,0.0,0.0
59,1695809795218,0.3857422,0.9785156,-0.20703125,-66.21875,13.71875,8.65625,-12.0,32.875,-162.625
60,1695809795248,0.2939453,0.75390625,-0.009765625,-58.84375,31.46875,5.78125,0.0,0.0,0.0
61,1695809795308,0.3388672,0.84375,-0.09667969,-48.21875,25.0,-8.9375,0.0,0.0,0.0
62,1695809795338,0.29101562,0.81152344,-0.0390625,-40.53125,34.53125,-13.3125,0.0,0.0,0.0
63,1695809795368,0.3876953,0.7890625,-0.049804688,-39.71875,42.9375,-19.75,0.0,0.0,0.0
64,1695809795430,0.47753906,0.7363281,-0.04296875,-30.6875,44.65625,-28.84375,0.0,0.0,0.0
65,1695809795458,0.56933594,0.8671875,-0.111328125,-39.5,18.15625,-35.0625,0.0,0.0,0.0
66,1695809795489,0.41015625,0.921875,-0.095703125,-41.375,20.4375,-30.1875,0.0,0.0,0.0
67,1695809795549,0.34375,0.9423828,-0.05859375,-33.5,26.15625,-23.03125,0.0,0.0,0.0
68,1695809795578,0.51953125,0.8876953,-0.064453125,-14.84375,15.46875,-15.15625,0.0,0.0,0.0
69,1695809795608,0.74121094,1.125,0.11035156,15.0625,-8.15625,-4.71875,0.0,0.0,0.0
70,1695809795669,0.52734375,1.2128906,0.20800781,42.59375,-68.75,24.21875,0.0,0.0,0.0
71,1695809795699,0.4404297,1.2001953,0.025390625,52.125,-91.34375,30.375,-16.625,38.875,-152.3125
72,1695809795729,0.36523438,1.2109375,-0.00390625,63.59375,-97.125,16.53125,0.0,0.0,0.0
73,1695809795791,0.23730469,1.0566406,-0.029296875,85.8125,-79.5625,19.8125,0.0,0.0,0.0
74,1695809795822,0.35546875,0.9453125,-0.045898438,95.6875,-75.28125,23.59375,0.0,0.0,0.0
75,1695809795851,0.3701172,0.8925781,-0.08496094,75.75,-92.3125,26.34375,0.0,0.0,0.0
76,1695809795908,0.34375,0.7871094,-0.17871094,55.34375,-118.96875,25.96875,0.0,0.0,0.0
77,1695809795968,0.23925781,0.75097656,-0.19238281,34.1875,-99.09375,34.40625,0.0,0.0,0.0
78,1695809795971,0.125,0.6015625,-0.1640625,-12.8125,-91.09375,27.25,0.0,0.0,0.0
79,1695809796028,0.11328125,0.55566406,-0.24121094,-43.75,-65.5625,6.625,0.0,0.0,0.0
80,1695809796059,0.20898438,0.58691406,-0.36914062,-74.71875,-37.0,-4.28125,0.0,0.0,0.0
81,1695809796088,0.3515625,0.7207031,-0.45117188,-97.40625,-26.5625,-7.78125,0.0,0.0,0.0
82,1695809796148,0.3515625,1.1416016,-0.40722656,-57.0625,-36.78125,13.15625,0.0,0.0,0.0
83,1695809796179,0.3701172,1.1865234,-0.5732422,-7.5,-50.25,23.0,0.0,0.0,0.0
84,1695809796208,0.17773438,0.91796875,-0.4794922,12.8125,-46.03125,35.5,-24.75,36.9375,-154.5625
85,1695809796268,0.15332031,1.5117188,-0.24609375,-26.96875,-5.5625,11.5625,0.0,0.0,0.0
86,1695809796297,0.20507812,0.9189453,-0.32714844,11.15625,15.25,-5.09375,0.0,0.0,0.0
87,1695809796328,0.16796875,0.61621094,0.083984375,0.90625,62.46875,15.125,0.0,0.0,0.0
88,1695809796388,0.5205078,1.0263672,0.041992188,-22.34375,11.6875,-8.125,0.0,0.0,0.0
89,1695809796418,0.5830078,1.0585938,-0.18261719,-44.625,25.71875,5.15625,0.0,0.0,0.0
90,1695809796448,0.2861328,0.82128906,-0.10546875,-51.4375,36.0625,16.9375,0.0,0.0,0.0
91,1695809796508,0.4560547,0.7714844,-0.0625,-49.625,27.5,18.90625,0.0,0.0,0.0
92,1695809796539,0.3388672,0.9111328,-0.0234375,-57.3125,19.25,11.8125,0.0,0.0,0.0
93,1695809796568,0.38085938,0.8261719,-0.07910156,-51.6875,18.71875,1.25,0.0,0.0,0.0
94,1695809796628,0.35839844,0.7861328,-0.028320312,-40.90625,30.0625,-9.96875,0.0,0.0,0.0
95,1695809796658,0.4658203,0.8330078,-0.024414062,-44.8125,32.5,-20.03125,0.0,0.0,0.0
96,1695809796719,0.421875,0.8876953,-0.0029296875,-41.25,18.53125,-27.84375,-19.9375,39.8125,-145.5625
97,1695809796748,0.46972656,0.88964844,-0.01953125,-33.15625,22.3125,-30.40625,0.0,0.0,0.0
98,1695809796777,0.47558594,0.8964844,-0.009765625,-45.21875,18.53125,-22.125,0.0,0.0,0.0
99,1695809796838,0.4970703,0.92089844,0.028320312,-29.3125,15.59375,-5.03125,0.0,0.0,0.0
100,1695809796868,0.5830078,1.0234375,-0.036132812,3.34375,21.21875,-2.9375,0.0,0.0,0.0
101,1695809796899,0.6201172,1.0078125,0.083984375,30.625,-11.625,1.75,0.0,0.0,0.0
102,1695809796931,0.35253906,1.1210938,0.17480469,51.625,-65.8125,25.78125,0.0,0.0,0.0
103,1695809796987,0.25195312,1.1572266,0.013671875,84.78125,-76.6875,39.71875,0.0,0.0,0.0
104,1695809797018,0.3486328,1.2236328,-0.026367188,90.15625,-68.4375,20.4375,0.0,0.0,0.0
105,1695809797049,0.16601562,1.1982422,-0.16015625,103.46875,-47.75,18.59375,0.0,0.0,0.0
106,1695809797108,0.27539062,1.0,-0.10253906,104.1875,-34.3125,11.5,0.0,0.0,0.0
107,1695809797138,0.39648438,0.85253906,-0.1796875,83.5625,-49.40625,12.3125,0.0,0.0,0.0
108,1695809797167,0.31835938,0.7578125,-0.28027344,59.625,-58.25,24.625,0.0,0.0,0.0
109,1695809797229,0.24609375,0.6328125,-0.24023438,21.65625,-51.46875,27.8125,-19.625,36.1875,-158.3125
110,1695809797258,0.15625,0.55371094,-0.22070312,-15.6875,-49.53125,18.65625,0.0,0.0,0.0
111,1695809797288,0.13671875,0.54296875,-0.2685547,-42.125,-36.46875,-0.21875,0.0,0.0,0.0
112,1695809797348,0.27148438,0.5488281,-0.38964844,-60.25,-0.34375,-10.46875,0.0,0.0,0.0
113,1695809797378,0.3154297,0.73339844,-0.484375,-69.15625,18.84375,-15.9375,0.0,0.0,0.0
114,1695809797407,0.5683594,1.1865234,-0.5517578,-52.5625,-17.46875,4.0,0.0,0.0,0.0
115,1695809797468,0.5058594,1.0664062,-0.6142578,-3.96875,-35.375,14.75,0.0,0.0,0.0
116,1695809797499,0.4248047,0.8144531,-0.57910156,1.9375,-30.78125,38.75,0.0,0.0,0.0
117,1695809797528,0.24609375,1.3603516,-0.047851562,-41.3125,9.1875,30.375,0.0,0.0,0.0
118,1695809797589,0.09472656,1.0478516,-0.07714844,-19.09375,7.96875,3.46875,0.0,0.0,0.0
119,1695809797619,0.1796875,0.82128906,-0.16308594,12.15625,0.28125,-13.3125,0.0,0.0,0.0
120,1695809797648,0.4560547,0.9404297,0.07128906,15.875,75.0,5.21875,0.0,0.0,0.0
121,1695809797708,0.47265625,1.0244141,-0.032226562,-44.8125,78.46875,13.84375,-19.5,38.125,-149.875
122,1695809797740,0.328125,0.8457031,-0.10253906,-57.9375,36.46875,3.28125,0.0,0.0,0.0
123,1695809797768,0.34472656,0.8984375,0.080078125,-43.15625,53.4375,-2.28125,0.0,0.0,0.0
124,1695809797829,0.28027344,0.9316406,-0.04296875,-46.09375,51.3125,-15.71875,0.0,0.0,0.0
125,1695809797858,0.38964844,0.83203125,-0.026367188,-32.09375,62.71875,-16.3125,0.0,0.0,0.0
126,1695809797888,0.41503906,0.7421875,0.043945312,-25.4375,58.8125,-17.125,0.0,0.0,0.0
127,1695809797948,0.46289062,0.7783203,-0.0009765625,-27.65625,46.90625,-22.53125,0.0,0.0,0.0
128,1695809797977,0.484375,0.8671875,-0.11035156,-26.90625,38.375,-27.25,0.0,0.0,0.0
129,1695809798008,0.48828125,0.8935547,-0.055664062,-24.96875,34.34375,-30.40625,0.0,0.0,0.0
130,1695809798068,0.49804688,0.9082031,-0.040039062,-23.875,34.71875,-22.78125,0.0,0.0,0.0
131,1695809798099,0.48632812,0.9902344,-0.055664062,-9.53125,21.59375,-12.21875,0.0,0.0,0.0
132,1695809798128,0.5361328,1.0722656,-0.02734375,23.8125,23.71875,-8.75,0.0,0.0,0.0
133,1695809798187,0.54296875,1.0361328,0.0,48.8125,-7.96875,6.8125,0.0,0.0,0.0
134,1695809798248,0.4970703,1.0693359,0.15429688,65.96875,-58.625,26.15625,-19.8125,39.3125,-139.5625
135,1695809798251,0.47460938,1.2158203,-0.020507812,50.90625,-76.0625,31.65625,0.0,0.0,0.0
136,1695809798308,0.18457031,1.2285156,-0.0068359375,71.53125,-62.71875,26.15625,0.0,0.0,0.0
137,1695809798338,0.080078125,1.0673828,-0.064453125,99.0,-27.125,22.25,0.0,0.0,0.0
138,1695809798367,0.3671875,0.96191406,-0.040039062,108.09375,-45.125,5.90625,0.0,0.0,0.0
139,1695809798428,0.4091797,0.8232422,-0.19042969,86.25,-74.65625,4.5625,0.0,0.0,0.0
140,1695809798458,0.35351562,0.71191406,-0.20214844,66.34375,-77.28125,10.28125,0.0,0.0,0.0
141,1695809798487,0.16601562,0.65625,-0.26757812,23.9375,-70.03125,11.46875,0.0,0.0,0.0
142,1695809798548,0.09375,0.53027344,-0.26367188,-17.28125,-56.78125,-1.71875,0.0,0.0,0.0
143,1695809798580,0.15625,0.5595703,-0.27929688,-50.0625,-13.625,-8.125,0.0,0.0,0.0
144,1695809798608,0.24316406,0.5078125,-0.390625,-66.71875,21.9375,-11.625,0.0,0.0,0.0
145,1695809798668,0.3720703,0.8515625,-0.49804688,-79.40625,16.8125,-14.78125,0.0,0.0,0.0
146,1695809798698,0.5,1.3369141,-0.4501953,-43.15625,-18.5625,5.46875,-22.375,37.0625,-152.3125
147,1695809798728,0.5214844,0.8955078,-0.5996094,14.65625,-35.5,15.40625,0.0,0.0,0.0
148,1695809798788,0.2919922,0.7763672,-0.484375,-8.0625,-19.0625,44.03125,0.0,0.0,0.0
149,1695809798818,0.19042969,1.59375,0.1328125,-43.46875,14.625,14.75,0.0,0.0,0.0
150,1695809798848,0.21972656,1.1044922,-0.11425781,8.125,15.0625,10.0625,0.0,0.0,0.0
151,1695809798908,0.076171875,0.72265625,-0.13574219,16.53125,14.8125,-1.0,0.0,0.0,0.0
152,1695809798939,0.6748047,1.1005859,0.18652344,6.90625,80.0625,7.125,0.0,0.0,0.0
153,1695809798968,0.42089844,1.0185547,-0.0703125,-56.6875,79.3125,20.59375,0.0,0.0,0.0
154,1695809799028,0.26171875,0.8730469,-0.041992188,-54.0625,18.15625,2.59375,0.0,0.0,0.0
155,1695809799057,0.17382812,0.85839844,0.09277344,-41.5625,59.59375,5.46875,0.0,0.0,0.0
156,1695809799089,0.3984375,0.8886719,-0.07714844,-29.90625,86.59375,-5.09375,0.0,0.0,0.0
157,1695809799148,0.46972656,0.7783203,-0.01953125,-24.34375,72.3125,-9.78125,0.0,0.0,0.0
158,1695809799178,0.4580078,0.6933594,0.0126953125,-26.625,57.21875,-21.8125,0.0,0.0,0.0
159,1695809799208,0.44335938,0.8251953,-0.041992188,-37.90625,37.03125,-30.90625,-15.3125,38.75,-141.0625
160,1695809799268,0.49414062,0.9111328,-0.049804688,-28.4375,33.59375,-38.65625,0.0,0.0,0.0
161,1695809799298,0.42285156,0.85253906,-0.0234375,-31.6875,30.6875,-37.75,0.0,0.0,0.0
162,1695809799328,0.51953125,0.9199219,0.1015625,-24.21875,36.0,-20.15625,0.0,0.0,0.0
163,1695809799389,0.49316406,1.0898438,-0.0068359375,5.5625,34.9375,-5.5625,0.0,0.0,0.0
164,1695809799417,0.546875,1.1816406,0.06347656,47.0,18.40625,11.5625,0.0,0.0,0.0
165,1695809799448,0.3828125,1.1035156,0.11621094,80.6875,-36.78125,36.1875,0.0,0.0,0.0
166,1695809799508,0.359375,1.2070312,-0.043945312,97.96875,-58.8125,30.1875,0.0,0.0,0.0
167,1695809799539,0.2548828,1.2207031,-0.01171875,91.75,-56.84375,17.4375,0.0,0.0,0.0
168,1695809799568,0.109375,1.1015625,-0.07519531,114.8125,-26.875,20.0,0.0,0.0,0.0
169,1695809799630,0.25976562,1.0341797,-0.06542969,110.09375,-24.1875,7.125,0.0,0.0,0.0
170,1695809799658,0.28027344,0.84765625,-0.16894531,86.71875,-37.1875,2.46875,0.0,0.0,0.0
171,1695809799718,0.36328125,0.7734375,-0.20703125,65.125,-37.625,5.46875,-17.5625,34.8125,-158.0
172,1695809799749,0.265625,0.6230469,-0.24804688,26.0625,-43.34375,6.03125,0.0,0.0,0.0
173,1695809799778,0.119140625,0.5527344,-0.27929688,-11.34375,-43.125,-4.84375,0.0,0.0,0.0
174,1695809799808,0.10253906,0.56640625,-0.27539062,-32.46875,-15.28125,-12.90625,0.0,0.0,0.0
175,1695809799868,0.15527344,0.5576172,-0.31640625,-43.21875,17.96875,-14.375,0.0,0.0,0.0
176,1695809799898,0.3076172,0.72753906,-0.45117188,-62.375,45.21875,-14.96875,0.0,0.0,0.0
177,1695809799928,0.59472656,1.1220703,-0.5566406,-49.625,17.5,-1.78125,0.0,0.0,0.0
178,1695809799988,0.5439453,1.0917969,-0.62402344,1.28125,-18.75,12.84375,0.0,0.0,0.0
179,1695809800018,0.45703125,0.6689453,-0.6220703,8.125,-47.3125,34.46875,0.0,0.0,0.0
180,1695809800048,0.053710938,1.2890625,-0.46972656,-44.0,-3.5625,33.90625,0.0,0.0,0.0
181,1695809800108,0.3623047,1.5839844,0.059570312,-31.25,7.53125,-4.53125,0.0,0.0,0.0
182,1695809800138,-0.009765625,0.66796875,-0.04296875,27.28125,26.71875,4.25,0.0,0.0,0.0
183,1695809800168,0.12402344,0.71875,-0.080078125,30.625,78.59375,-2.28125,0.0,0.0,0.0
184,1695809800227,0.76953125,1.1337891,0.06542969,-15.25,121.9375,15.90625,-16.9375,33.9375,-153.0625
185,1695809800258,0.29785156,0.9042969,-0.08300781,-42.25,76.21875,13.40625,0.0,0.0,0.0
186,1695809800288,0.29003906,0.8466797,-0.043945312,-34.96875,49.125,0.78125,0.0,0.0,0.0
187,1695809800347,0.33007812,0.92089844,0.083984375,-45.28125,75.34375,-0.15625,0.0,0.0,0.0
188,1695809800378,0.38183594,0.8847656,-0.0546875,-32.34375,85.25,-6.5,0.0,0.0,0.0
189,1695809800408,0.4267578,0.77734375,0.032226562,-17.03125,73.46875,-10.46875,0.0,0.0,0.0
190,1695809800469,0.47753906,0.7373047,0.024414062,-16.78125,60.40625,-18.34375,0.0,0.0,0.0
191,1695809800533,0.46191406,0.8222656,-0.047851562,-19.53125,45.21875,-22.0625,0.0,0.0,0.0
192,1695809800542,0.48535156,0.8564453,-0.08300781,-21.78125,41.34375,-26.3125,0.0,0.0,0.0
193,1695809800591,0.48632812,0.87109375,0.03125,-27.96875,40.625,-28.65625,0.0,0.0,0.0
194,1695809800620,0.49902344,0.9316406,0.0078125,-26.6875,40.25,-17.0,0.0,0.0,0.0
195,1695809800651,0.48632812,0.97265625,-0.0009765625,-4.9375,34.46875,-6.5625,0.0,0.0,0.0
196,1695809800711,0.62109375,1.0625,0.057617188,27.84375,30.5,-3.6875,-11.6875,39.0625,-141.8125
197,1695809800741,0.59765625,1.0800781,0.13476562,53.15625,-12.21875,10.71875,0.0,0.0,0.0
198,1695809800771,0.2861328,1.1376953,-0.005859375,80.25,-50.375,19.375,0.0,0.0,0.0
199,1695809800830,0.41015625,1.2246094,0.0625,96.3125,-67.90625,10.21875,0.0,0.0,0.0
200,1695809800861,0.17675781,1.1767578,-0.030273438,100.09375,-69.53125,10.125,0.0,0.0,0.0
201,1695809800903,0.14257812,1.1542969,-0.07910156,115.84375,-48.25,3.03125,0.0,0.0,0.0
202,1695809800955,0.3232422,0.95214844,-0.14355469,105.90625,-33.28125,-8.4375,0.0,0.0,0.0
203,1695809800982,0.35058594,0.8173828,-0.20410156,88.1875,-48.96875,-0.03125,0.0,0.0,0.0
204,1695809801011,0.28125,0.64453125,-0.24609375,44.5625,-48.53125,3.8125,0.0,0.0,0.0
205,1695809801072,0.11816406,0.5546875,-0.23632812,4.34375,-36.40625,-1.5625,0.0,0.0,0.0
206,1695809801100,0.10449219,0.53125,-0.23632812,-29.96875,-14.84375,-14.0625,0.0,0.0,0.0
207,1695809801131,0.15332031,0.57910156,-0.3779297,-50.40625,15.53125,-19.5625,0.0,0.0,0.0
208,1695809801190,0.3076172,0.6904297,-0.4580078,-58.40625,35.9375,-13.5625,0.0,0.0,0.0
209,1695809801220,0.47265625,0.9765625,-0.5185547,-58.59375,8.9375,-3.625,-17.6875,35.0,-159.1875
210,1695809801251,0.38867188,1.1660156,-0.53808594,-11.96875,-32.75,4.25,0.0,0.0,0.0
211,1695809801310,0.42382812,0.8183594,-0.63671875,-5.4375,-58.0625,10.0,0.0,0.0,0.0
212,1695809801343,0.19726562,1.328125,-0.4921875,-27.65625,-16.875,36.125,0.0,0.0,0.0
213,1695809801368,0.0390625,1.2607422,0.05859375,0.4375,38.78125,13.59375,0.0,0.0,0.0
214,1695809801429,0.2763672,0.8203125,-0.047851562,12.375,11.625,-2.875,0.0,0.0,0.0
215,1695809801462,0.2734375,0.7363281,-0.013671875,27.28125,24.875,0.09375,0.0,0.0,0.0
216,1695809801497,0.5048828,1.1689453,0.12988281,-12.375,93.71875,11.28125,0.0,0.0,0.0
217,1695809801551,0.45214844,0.8876953,-0.1328125,-38.5,63.15625,17.1875,0.0,0.0,0.0
218,1695809801582,0.40820312,0.8544922,-0.03515625,-41.9375,15.0,4.5625,0.0,0.0,0.0
219,1695809801609,0.2939453,0.83984375,0.059570312,-47.53125,34.59375,10.71875,0.0,0.0,0.0
220,1695809801672,0.41308594,0.9345703,-0.0859375,-45.65625,40.03125,0.90625,0.0,0.0,0.0
221,1695809801700,0.36816406,0.7783203,-0.029296875,-28.875,35.4375,-4.53125,-12.3125,37.8125,-152.3125
222,1695809801760,0.42773438,0.78515625,-0.017578125,-30.46875,32.6875,-15.03125,0.0,0.0,0.0
223,1695809801795,0.43847656,0.90234375,-0.026367188,-34.25,31.40625,-24.0,0.0,0.0,0.0
224,1695809801823,0.42382812,0.859375,-0.087890625,-32.03125,26.21875,-32.5,0.0,0.0,0.0
225,1695809801881,0.44140625,0.8564453,0.013671875,-33.375,32.6875,-39.8125,0.0,0.0,0.0
226,1695809801911,0.43847656,0.92285156,0.033203125,-45.15625,38.4375,-33.40625,0.0,0.0,0.0
227,1695809801940,0.5107422,0.93359375,0.030273438,-37.34375,32.4375,-19.6875,0.0,0.0,0.0
228,1695809802000,0.6191406,0.99609375,-0.0048828125,-13.25,28.125,-8.03125,0.0,0.0,0.0
229,1695809802042,0.7392578,1.1152344,0.08984375,10.1875,-9.84375,8.65625,0.0,0.0,0.0
230,1695809802060,0.5810547,1.1328125,0.234375,34.78125,-65.34375,24.5,0.0,0.0,0.0
231,1695809802123,0.20117188,0.99316406,0.01953125,70.875,-108.53125,21.875,0.0,0.0,0.0
232,1695809802152,0.18066406,1.2587891,-0.049804688,100.59375,-84.9375,13.84375,0.0,0.0,0.0
233,1695809802182,0.29296875,1.0693359,-0.005859375,103.40625,-51.65625,23.40625,0.0,0.0,0.0
234,1695809802242,0.3798828,1.0351562,-0.12109375,109.25,-67.46875,21.15625,-14.6875,38.4375,-153.8125
235,1695809802271,0.32714844,0.9375,-0.18359375,84.34375,-76.25,10.21875,0.0,0.0,0.0
236,1695809802300,0.31640625,0.7714844,-0.2626953,60.90625,-72.78125,19.9375,0.0,0.0,0.0
237,1695809802358,0.2685547,0.7001953,-0.17675781,34.71875,-75.21875,26.09375,0.0,0.0,0.0
238,1695809802389,0.14257812,0.5996094,-0.21289062,-3.65625,-84.1875,18.59375,0.0,0.0,0.0
239,1695809802418,0.13183594,0.58984375,-0.29785156,-33.9375,-48.0625,4.4375,0.0,0.0,0.0
240,1695809802480,0.18652344,0.5888672,-0.3232422,-43.875,-9.25,1.125,0.0,0.0,0.0
241,1695809802511,0.26367188,0.6347656,-0.4091797,-59.8125,7.4375,-10.75,0.0,0.0,0.0
242,1695809802542,0.47851562,1.0058594,-0.5830078,-73.375,-3.0625,-8.0625,0.0,0.0,0.0
243,1695809802602,0.43164062,1.1308594,-0.47558594,-17.46875,-46.53125,4.6875,0.0,0.0,0.0
244,1695809802631,0.4873047,0.7871094,-0.57128906,-4.46875,-70.40625,18.59375,0.0,0.0,0.0
245,1695809802659,0.24414062,0.90625,-0.4873047,-41.25,-34.09375,53.125,0.0,0.0,0.0
246,1695809802722,0.22753906,1.6074219,0.043945312,-41.9375,-5.8125,29.875,-21.125,36.9375,-154.5625
247,1695809802751,0.14941406,0.9589844,-0.09277344,8.375,14.5,6.875,0.0,0.0,0.0
248,1695809802812,0.0625,0.6152344,-0.0048828125,27.03125,4.6875,-8.25,0.0,0.0,0.0
249,1695809802840,0.73339844,1.2021484,0.18945312,3.40625,71.875,4.8125,0.0,0.0,0.0
250,1695809802872,0.49609375,0.93847656,-0.19433594,-44.5625,54.78125,15.375,0.0,0.0,0.0
251,1695809802901,0.34765625,0.84375,-0.09472656,-56.15625,-3.0,6.03125,0.0,0.0,0.0
252,1695809802960,0.24316406,0.88378906,0.043945312,-43.40625,28.3125,10.59375,0.0,0.0,0.0
253,1695809802997,0.3955078,0.9013672,-0.064453125,-51.75,36.15625,0.90625,0.0,0.0,0.0
254,1695809803020,0.4111328,0.80859375,-0.07519531,-43.40625,39.96875,-3.1875,0.0,0.0,0.0
255,1695809803081,0.41503906,0.74609375,-0.009765625,-39.5,33.25,-11.375,0.0,0.0,0.0
256,1695809803111,0.49316406,0.8310547,-0.013671875,-39.71875,24.4375,-22.375,0.0,0.0,0.0
257,1695809803144,0.42773438,0.8935547,-0.059570312,-34.65625,19.5625,-31.75,0.0,0.0,0.0
258,1695809803200,0.38378906,0.9453125,-0.018554688,-33.03125,34.15625,-32.125,0.0,0.0,0.0
259,1695809803228,0.49804688,0.8691406,0.056640625,-37.15625,34.78125,-23.53125,-17.6875,41.4375,-143.0
260,1695809803262,0.53125,0.9003906,0.036132812,-33.75,18.71875,-8.6875,0.0,0.0,0.0
261,1695809803320,0.7519531,0.9560547,-0.025390625,-15.1875,22.25,2.65625,0.0,0.0,0.0
262,1695809803350,0.7158203,1.0126953,0.024414062,12.03125,-19.1875,3.53125,0.0,0.0,0.0
263,1695809803382,0.4560547,1.0947266,0.12011719,40.34375,-60.4375,12.84375,0.0,0.0,0.0
264,1695809803441,0.2705078,1.0595703,0.036132812,79.84375,-90.34375,15.90625,0.0,0.0,0.0
265,1695809803469,0.37695312,1.2363281,0.5048828,90.09375,-85.90625,14.125,0.0,0.0,0.0
266,1695809803501,0.2607422,1.1572266,-0.043945312,87.46875,-57.40625,20.3125,0.0,0.0,0.0
267,1695809803591,0.27148438,1.1103516,-0.10839844,100.84375,-50.5625,25.84375,0.0,0.0,0.0
268,1695809803594,0.2734375,0.90625,-0.123046875,77.875,-61.59375,7.375,0.0,0.0,0.0
269,1695809803626,0.31835938,0.8017578,-0.234375,55.96875,-72.34375,6.625,0.0,0.0,0.0
270,1695809803680,0.2607422,0.78515625,-0.24023438,45.84375,-63.125,18.84375,0.0,0.0,0.0
271,1695809803710,0.22949219,0.60546875,-0.21582031,6.53125,-64.28125,11.5625,-21.625,37.0625,-159.9375
272,1695809803742,0.09472656,0.57714844,-0.27929688,-31.875,-41.59375,-1.84375,0.0,0.0,0.0
273,1695809803809,0.15234375,0.6044922,-0.32421875,-59.375,-7.53125,-10.03125,0.0,0.0,0.0
274,1695809803832,0.28320312,0.6503906,-0.3935547,-76.34375,11.625,-12.59375,0.0,0.0,0.0
275,1695809803859,0.44726562,1.1171875,-0.5517578,-73.71875,3.09375,-6.0,0.0,0.0,0.0
276,1695809803953,0.45703125,1.2148438,-0.53027344,-4.8125,-43.34375,-0.15625,0.0,0.0,0.0
277,1695809803955,0.50683594,0.6533203,-0.5683594,12.28125,-64.65625,13.53125,0.0,0.0,0.0
278,1695809803984,0.16894531,0.9404297,-0.4169922,-32.59375,-32.90625,29.875,0.0,0.0,0.0
279,1695809804042,0.20605469,1.53125,-0.036132812,-30.21875,-9.53125,5.40625,0.0,0.0,0.0
280,1695809804070,0.2548828,0.9794922,-0.07421875,0.0625,26.03125,9.125,0.0,0.0,0.0
281,1695809804103,0.18261719,0.6455078,0.02734375,10.625,27.75,5.96875,0.0,0.0,0.0
282,1695809804165,0.53027344,1.0703125,0.13378906,-5.875,43.75,3.53125,0.0,0.0,0.0
283,1695809804191,0.44335938,0.98339844,-0.22265625,-40.40625,51.375,23.71875,0.0,0.0,0.0
284,1695809804220,0.35839844,0.83203125,-0.107421875,-44.5625,23.0,17.6875,-22.375,41.4375,-151.25
285,1695809804281,0.3251953,0.8544922,0.06738281,-39.5625,36.21875,13.78125,0.0,0.0,0.0
286,1695809804308,0.38378906,0.94140625,-0.0703125,-58.03125,37.9375,3.8125,0.0,0.0,0.0
287,1695809804339,0.35742188,0.84765625,-0.061523438,-35.78125,45.875,-4.46875,0.0,0.0,0.0
288,1695809804398,0.41210938,0.76660156,0.0,-35.15625,39.90625,-15.53125,0.0,0.0,0.0
289,1695809804428,0.45996094,0.796875,0.016601562,-30.53125,32.09375,-24.125,0.0,0.0,0.0
290,1695809804458,0.4296875,0.89453125,-0.09277344,-24.90625,24.28125,-28.65625,0.0,0.0,0.0
291,1695809804520,0.453125,0.9238281,-0.040039062,-21.125,31.84375,-29.4375,0.0,0.0,0.0
292,1695809804551,0.41210938,0.9091797,0.0126953125,-25.625,28.65625,-22.84375,0.0,0.0,0.0
293,1695809804581,0.48339844,0.86621094,-0.0107421875,-16.34375,22.9375,-11.5625,0.0,0.0,0.0
294,1695809804642,0.5878906,1.0722656,-0.01953125,5.625,29.40625,-1.90625,0.0,0.0,0.0
295,1695809804672,0.6826172,1.1240234,0.026367188,30.875,-7.28125,3.15625,0.0,0.0,0.0
296,1695809804700,0.390625,1.1308594,0.05859375,58.59375,-56.78125,18.03125,-24.125,45.0625,-140.875
297,1695809804760,0.35253906,1.0722656,0.01171875,80.0625,-75.65625,20.84375,0.0,0.0,0.0
298,1695809804792,0.33203125,1.1552734,-0.0703125,68.46875,-74.90625,17.5625,0.0,0.0,0.0
299,1695809804819,0.15234375,1.140625,-0.099609375,86.90625,-48.90625,24.9375,0.0,0.0,0.0
300,1695809804880,0.25097656,0.9970703,-0.091796875,91.1875,-33.03125,16.875,0.0,0.0,0.0
301,1695809804912,0.3388672,0.7734375,-0.13964844,74.875,-52.34375,11.40625,0.0,0.0,0.0
302,1695809804942,0.30273438,0.85546875,-0.24414062,50.90625,-68.3125,18.53125,0.0,0.0,0.0
303,1695809805002,0.265625,0.73046875,-0.28027344,23.375,-62.78125,20.5,0.0,0.0,0.0
304,1695809805033,0.16503906,0.6640625,-0.25976562,-8.59375,-51.15625,14.5625,0.0,0.0,0.0
305,1695809805092,0.09863281,0.6328125,-0.26367188,-27.40625,-36.15625,-2.21875,0.0,0.0,0.0
306,1695809805121,0.20800781,0.625,-0.3203125,-45.21875,-12.09375,-11.875,0.0,0.0,0.0
307,1695809805150,0.29882812,0.67285156,-0.41210938,-63.46875,9.75,-11.875,0.0,0.0,0.0
308,1695809805180,0.37695312,0.9511719,-0.515625,-62.25,3.6875,-4.34375,0.0,0.0,0.0
309,1695809805242,0.46191406,1.140625,-0.52734375,-20.75,-24.375,6.375,-25.625,43.25,-154.375
310,1695809805270,0.5341797,0.75,-0.5673828,0.0,-46.65625,17.4375,0.0,0.0,0.0
311,1695809805308,0.2626953,1.0576172,-0.55566406,-14.84375,-33.90625,45.9375,0.0,0.0,0.0
312,1695809805357,0.045898438,1.4121094,0.064453125,-26.4375,12.4375,19.28125,0.0,0.0,0.0
313,1695809805387,0.24511719,1.0576172,-0.09667969,12.5625,9.0,5.03125,0.0,0.0,0.0
314,1695809805417,0.18457031,0.75,-0.1484375,21.4375,22.25,1.8125,0.0,0.0,0.0
315,1695809805477,0.6425781,1.0771484,0.11328125,5.5,102.875,22.9375,0.0,0.0,0.0
316,1695809805508,0.46679688,0.96191406,-0.11425781,-35.875,69.25,26.21875,0.0,0.0,0.0
317,1695809805538,0.31347656,0.83984375,-0.07421875,-44.5,17.125,8.03125,0.0,0.0,0.0
318,1695809805602,0.30078125,0.90722656,0.11328125,-46.21875,50.9375,9.5625,0.0,0.0,0.0
319,1695809805631,0.390625,0.9248047,-0.07519531,-37.125,52.90625,-3.0,0.0,0.0,0.0
320,1695809805660,0.4189453,0.80371094,0.017578125,-20.875,61.75,-4.28125,0.0,0.0,0.0
321,1695809805722,0.46679688,0.7675781,0.021484375,-24.28125,49.34375,-9.84375,-15.0,43.6875,-146.3125
322,1695809805753,0.4609375,0.8261719,-0.025390625,-20.875,42.75,-16.0,0.0,0.0,0.0
323,1695809805782,0.4658203,0.8154297,-0.07519531,-18.625,40.875,-22.90625,0.0,0.0,0.0
324,1695809805840,0.50878906,0.80078125,0.053710938,-24.40625,33.90625,-25.90625,0.0,0.0,0.0
325,1695809805870,0.44921875,0.90527344,0.0546875,-26.71875,22.625,-21.5625,0.0,0.0,0.0
326,1695809805900,0.4423828,0.9404297,0.0146484375,-17.09375,28.34375,-10.75,0.0,0.0,0.0
327,1695809805959,0.45117188,0.9765625,-0.10449219,7.8125,47.15625,-5.875,0.0,0.0,0.0
328,1695809805994,0.6660156,0.9658203,-0.0029296875,42.3125,47.09375,-8.3125,0.0,0.0,0.0
329,1695809806019,0.5253906,1.1308594,0.001953125,59.75,2.34375,14.25,0.0,0.0,0.0
330,1695809806081,0.41992188,1.0908203,-0.115234375,81.84375,-34.5,24.34375,0.0,0.0,0.0
331,1695809806110,0.39648438,1.1542969,-0.02734375,56.9375,-44.21875,6.875,0.0,0.0,0.0
332,1695809806141,0.2685547,1.1835938,-0.10839844,53.90625,-37.0625,12.5,0.0,0.0,0.0
333,1695809806201,0.2548828,1.1464844,-0.09472656,90.8125,-16.0625,7.0,0.0,0.0,0.0
334,1695809806230,0.19433594,0.9482422,-0.119140625,90.40625,-25.46875,-0.5,-16.5,39.0625,-155.625
335,1695809806260,0.2734375,0.8486328,-0.14453125,70.6875,-41.40625,-4.78125,0.0,0.0,0.0
336,1695809806322,0.3154297,0.76171875,-0.1875,67.3125,-52.28125,-10.9375,0.0,0.0,0.0
337,1695809806351,0.14746094,0.66015625,-0.2685547,39.625,-24.875,-10.875,0.0,0.0,0.0
338,1695809806381,0.08300781,0.56347656,-0.26660156,3.46875,0.46875,-21.125,0.0,0.0,0.0
339,1695809806438,0.16113281,0.59277344,-0.2861328,-27.03125,34.71875,-22.40625,0.0,0.0,0.0
340,1695809806468,0.30371094,0.5908203,-0.33398438,-42.59375,57.15625,-21.09375,0.0,0.0,0.0
341,1695809806501,0.328125,0.71191406,-0.48828125,-56.21875,56.0625,-15.03125,0.0,0.0,0.0
342,1695809806559,0.5390625,1.1181641,-0.49902344,-47.96875,17.1875,-4.46875,0.0,0.0,0.0
343,1695809806589,0.4560547,1.1210938,-0.66015625,10.0625,-6.84375,10.125,0.0,0.0,0.0
344,1695809806621,0.46484375,0.7392578,-0.59472656,22.59375,-41.53125,28.0625,0.0,0.0,0.0
345,1695809806682,-0.026367188,1.4472656,-0.28320312,-27.46875,4.375,35.0625,0.0,0.0,0.0
346,1695809806710,-0.022460938,1.2167969,-0.11816406,7.03125,14.75,-12.84375,-19.375,36.1875,-156.375
347,1695809806741,0.21289062,0.78222656,-0.040039062,20.9375,44.65625,7.84375,0.0,0.0,0.0
348,1695809806798,0.2998047,0.95214844,0.07421875,24.34375,118.5,25.0625,0.0,0.0,0.0
349,1695809806828,0.5029297,1.0615234,0.0546875,-13.125,149.03125,24.625,0.0,0.0,0.0
350,1695809806858,0.23730469,0.8496094,-0.016601562,-11.65625,99.40625,3.03125,0.0,0.0,0.0
351,1695809806922,0.28027344,0.87402344,0.17871094,-7.75,109.90625,6.5,0.0,0.0,0.0
352,1695809806949,0.42773438,0.9667969,0.07910156,-16.1875,117.53125,-0.8125,0.0,0.0,0.0
353,1695809806982,0.4716797,0.87402344,0.016601562,3.25,117.96875,2.3125,0.0,0.0,0.0
354,1695809807047,0.47460938,0.78515625,0.13867188,4.6875,108.9375,-2.65625,0.0,0.0,0.0
355,1695809807071,0.5214844,0.84765625,0.080078125,9.53125,98.0,-7.65625,0.0,0.0,0.0
356,1695809807105,0.5048828,0.921875,0.037109375,14.59375,87.75,-9.40625,0.0,0.0,0.0
357,1695809807165,0.5107422,0.7871094,0.015625,11.78125,73.875,-14.125,0.0,0.0,0.0
358,1695809807191,0.49121094,0.84277344,0.016601562,8.90625,69.625,-11.625,0.0,0.0,0.0
359,1695809807225,0.48046875,0.9082031,0.07910156,7.375,75.65625,-13.9375,-0.125,35.0,-148.875
360,1695809807282,0.45410156,0.8769531,0.12792969,11.15625,79.1875,-12.65625,0.0,0.0,0.0
361,1695809807312,0.484375,0.9658203,-0.025390625,28.3125,93.3125,-4.65625,0.0,0.0,0.0
362,1695809807370,0.57714844,1.0791016,0.125,44.75,86.46875,12.0625,0.0,0.0,0.0
363,1695809807401,0.5810547,1.0146484,0.123046875,88.75,38.90625,21.71875,0.0,0.0,0.0
364,1695809807430,0.3623047,1.0146484,-0.03125,126.59375,-3.125,15.96875,0.0,0.0,0.0
365,1695809807460,0.2705078,1.2041016,-0.001953125,111.6875,-18.40625,-3.8125,0.0,0.0,0.0
366,1695809807520,0.17578125,1.2363281,-0.111328125,107.53125,-4.84375,-13.9375,0.0,0.0,0.0
367,1695809807551,0.24414062,1.0800781,-0.0126953125,122.875,21.34375,-27.125,0.0,0.0,0.0
368,1695809807579,0.30078125,0.9433594,-0.14355469,96.0,8.71875,-39.3125,0.0,0.0,0.0
369,1695809807642,0.2734375,0.8154297,-0.18652344,90.6875,20.78125,-31.8125,0.0,0.0,0.0
370,1695809807670,0.29101562,0.6191406,-0.18652344,60.375,39.53125,-32.1875,0.0,0.0,0.0
371,1695809807701,0.21777344,0.63671875,-0.23730469,22.65625,28.125,-36.09375,-2.6875,27.1875,-163.375
372,1695809807763,0.080078125,0.61621094,-0.24414062,0.0625,39.84375,-40.3125,0.0,0.0,0.0
373,1695809807791,0.10644531,0.6845703,-0.4091797,-5.75,80.59375,-33.65625,0.0,0.0,0.0
374,1695809807821,0.32128906,0.7236328,-0.4345703,-14.96875,106.96875,-19.3125,0.0,0.0,0.0
375,1695809807879,0.5361328,0.8173828,-0.46875,-19.78125,83.71875,-9.1875,0.0,0.0,0.0
376,1695809807910,0.5283203,1.0195312,-0.39160156,-6.21875,45.09375,1.9375,0.0,0.0,0.0
377,1695809807939,0.36132812,1.0263672,-0.6328125,20.09375,30.0,10.78125,0.0,0.0,0.0
378,1695809808002,0.24316406,0.93359375,-0.5488281,21.59375,-0.8125,16.65625,0.0,0.0,0.0
379,1695809808032,0.140625,1.5722656,-0.24902344,-13.78125,24.09375,-10.28125,0.0,0.0,0.0
380,1695809808063,0.3154297,0.9667969,-0.32128906,20.09375,52.71875,-18.9375,0.0,0.0,0.0
381,1695809808120,0.1171875,0.65527344,0.041992188,30.21875,76.34375,19.6875,0.0,0.0,0.0
382,1695809808151,0.359375,0.97558594,0.017578125,14.53125,71.15625,-0.375,0.0,0.0,0.0
383,1695809808182,0.58496094,1.0566406,-0.06933594,0.90625,109.65625,8.28125,0.0,0.0,0.0
384,1695809808241,0.28027344,0.8310547,-0.030273438,-15.1875,92.4375,12.25,6.3125,27.1875,-152.625
385,1695809808271,0.34375,0.9042969,-0.036132812,-5.0625,74.875,2.125,0.0,0.0,0.0
386,1695809808301,0.39160156,0.9560547,0.08984375,-6.53125,99.40625,4.96875,0.0,0.0,0.0
387,1695809808360,0.43945312,0.84375,-0.10644531,-1.28125,92.09375,7.96875,0.0,0.0,0.0
388,1695809808391,0.50683594,0.74121094,-0.08203125,6.40625,94.46875,2.0625,0.0,0.0,0.0
389,1695809808421,0.6064453,0.7919922,-0.021484375,-6.59375,68.6875,-7.90625,0.0,0.0,0.0
390,1695809808485,0.5214844,0.8095703,-0.083984375,-13.78125,44.21875,-13.8125,0.0,0.0,0.0
391,1695809808509,0.44726562,0.85253906,-0.12109375,-13.96875,42.28125,-23.09375,0.0,0.0,0.0
392,1695809808542,0.5126953,0.78808594,-0.025390625,-17.40625,45.25,-31.875,0.0,0.0,0.0
393,1695809808601,0.4873047,0.8964844,0.048828125,-29.90625,39.46875,-29.0625,0.0,0.0,0.0
394,1695809808628,0.38476562,0.93847656,0.17578125,-22.71875,46.375,-17.65625,0.0,0.0,0.0
395,1695809808659,0.33398438,0.9238281,-0.07714844,-6.28125,63.6875,-16.6875,0.0,0.0,0.0
396,1695809808719,0.5986328,1.0009766,0.032226562,31.375,75.1875,-18.9375,8.5625,28.5625,-132.625
397,1695809808750,0.6015625,1.2597656,0.15917969,53.90625,36.15625,8.34375,0.0,0.0,0.0
398,1695809808780,0.43652344,1.1289062,0.076171875,79.40625,-27.1875,26.59375,0.0,0.0,0.0
399,1695809808840,0.25390625,1.0800781,-0.083984375,103.15625,-50.375,16.40625,0.0,0.0,0.0
400,1695809808871,0.26171875,1.1621094,-0.083984375,105.78125,-25.28125,0.53125,0.0,0.0,0.0
401,1695809808904,0.25683594,1.0009766,-0.11230469,120.78125,-11.3125,-6.0,0.0,0.0,0.0
402,1695809808959,0.34765625,0.8779297,-0.072265625,102.46875,-23.28125,-15.65625,0.0,0.0,0.0
403,1695809808992,0.24609375,0.8535156,-0.2109375,77.34375,-33.15625,-19.25,0.0,0.0,0.0
404,1695809809020,0.22265625,0.82128906,-0.30566406,52.1875,-9.4375,-11.0,0.0,0.0,0.0
405,1695809809080,0.26660156,0.6845703,-0.23046875,32.34375,-2.59375,-4.15625,0.0,0.0,0.0
406,1695809809110,0.15234375,0.6435547,-0.3173828,-0.78125,-2.71875,-9.71875,0.0,0.0,0.0
407,1695809809139,0.19921875,0.6425781,-0.29882812,-18.0,13.78125,-13.15625,0.0,0.0,0.0
408,1695809809198,0.24316406,0.6035156,-0.32714844,-31.875,42.21875,-5.46875,0.0,0.0,0.0
409,1695809809227,0.38085938,0.69921875,-0.43164062,-51.28125,47.40625,-3.5,7.8125,27.5,-147.1875
410,1695809809258,0.5019531,0.96777344,-0.5371094,-53.53125,12.5,-5.34375,0.0,0.0,0.0
411,1695809809319,0.44140625,1.1552734,-0.5019531,-6.46875,-22.1875,3.21875,0.0,0.0,0.0
412,1695809809349,0.42382812,0.9033203,-0.6611328,5.4375,-42.1875,11.6875,0.0,0.0,0.0
413,1695809809381,0.30078125,1.1787109,-0.46289062,-20.03125,-36.21875,22.0625,0.0,0.0,0.0
414,1695809809441,0.08496094,1.3007812,0.022460938,-2.25,33.0625,-0.5625,0.0,0.0,0.0
415,1695809809470,0.14355469,0.82910156,-0.03515625,10.5,42.40625,13.84375,0.0,0.0,0.0
416,1695809809506,0.18847656,0.8183594,-0.028320312,22.65625,49.40625,3.53125,0.0,0.0,0.0
417,1695809809560,0.6142578,1.1826172,0.048828125,2.6875,95.0,3.8125,0.0,0.0,0.0
418,1695809809590,0.42773438,0.953125,-0.14746094,-30.875,87.125,14.5625,0.0,0.0,0.0
419,1695809809650,0.29003906,0.7763672,0.0009765625,-30.59375,46.125,0.34375,0.0,0.0,0.0
420,1695809809680,0.42382812,0.9238281,0.10058594,-33.875,73.15625,5.53125,0.0,0.0,0.0
421,1695809809709,0.39257812,0.8886719,-0.06738281,-23.5,72.1875,0.03125,12.75,26.75,-135.375
422,1695809809739,0.45898438,0.7705078,-0.00390625,-11.34375,65.15625,-3.4375,0.0,0.0,0.0
423,1695809809802,0.48828125,0.7421875,0.0029296875,-12.375,53.25,-7.28125,0.0,0.0,0.0
424,1695809809830,0.5019531,0.8076172,-0.051757812,-22.34375,37.09375,-14.65625,0.0,0.0,0.0
425,1695809809860,0.4970703,0.8388672,-0.072265625,-22.65625,24.5,-25.65625,0.0,0.0,0.0
426,1695809809923,0.51171875,0.8671875,-0.001953125,-28.625,24.40625,-32.90625,0.0,0.0,0.0
427,1695809809950,0.4609375,0.9042969,0.09277344,-33.5,21.65625,-32.5,0.0,0.0,0.0
428,1695809809982,0.39453125,0.890625,0.028320312,-33.25,21.28125,-23.40625,0.0,0.0,0.0
429,1695809810039,0.39160156,0.9716797,-0.07324219,-17.9375,48.75,-17.1875,0.0,0.0,0.0
430,1695809810066,0.6933594,1.0673828,0.0859375,2.75,40.5,-22.375,0.0,0.0,0.0
431,1695809810097,0.5830078,1.2207031,0.27734375,39.625,-0.28125,-3.1875,0.0,0.0,0.0
432,1695809810156,0.23925781,1.0800781,0.0546875,73.78125,-48.90625,20.96875,0.0,0.0,0.0
433,1695809810187,0.296875,1.0898438,-0.10058594,92.46875,-62.21875,15.71875,0.0,0.0,0.0
434,1695809810217,0.2919922,1.0742188,0.013671875,93.875,-72.65625,15.96875,5.5625,29.5625,-130.5625
435,1695809810278,0.14941406,1.1591797,-0.032226562,104.96875,-57.03125,11.75,0.0,0.0,0.0
436,1695809810306,0.20996094,1.0253906,-0.078125,102.21875,-38.65625,-2.28125,0.0,0.0,0.0
437,1695809810336,0.27441406,0.8613281,-0.15429688,87.28125,-37.25,-1.3125,0.0,0.0,0.0
438,1695809810398,0.29492188,0.7910156,-0.2265625,62.1875,-36.09375,7.71875,0.0,0.0,0.0
439,1695809810427,0.12792969,0.7285156,-0.23925781,35.46875,-29.625,10.0,0.0,0.0,0.0
440,1695809810457,0.15429688,0.5839844,-0.27539062,-9.78125,-16.25,-1.25,0.0,0.0,0.0
441,1695809810517,0.21777344,0.52734375,-0.2939453,-28.375,1.3125,-13.875,0.0,0.0,0.0
442,1695809810547,0.27441406,0.5390625,-0.38183594,-49.9375,18.34375,-11.125,0.0,0.0,0.0
443,1695809810576,0.36328125,0.8076172,-0.5136719,-64.28125,15.84375,-8.8125,0.0,0.0,0.0
444,1695809810639,0.5058594,1.1357422,-0.5058594,-26.0,-13.03125,2.90625,0.0,0.0,0.0
445,1695809810668,0.46972656,0.8955078,-0.5654297,1.15625,-37.9375,9.5,0.0,0.0,0.0
446,1695809810697,0.23535156,1.1494141,-0.55566406,-11.28125,-40.125,35.125,8.25,29.75,-142.375
447,1695809810757,0.07421875,1.7578125,-0.06347656,-25.21875,23.0,9.0625,0.0,0.0,0.0
448,1695809810786,0.2685547,0.76660156,-0.2548828,22.28125,10.0,7.90625,0.0,0.0,0.0
449,1695809810818,-0.0390625,0.5625,0.12695312,15.625,66.9375,10.59375,0.0,0.0,0.0
450,1695809810877,0.6123047,1.2802734,0.10546875,2.625,59.5,-18.09375,0.0,0.0,0.0
451,1695809810909,0.45214844,0.91796875,-0.20703125,-24.40625,78.96875,5.09375,0.0,0.0,0.0
452,1695809810967,0.3544922,0.72265625,-0.076171875,-27.71875,37.6875,3.9375,0.0,0.0,0.0
453,1695809810998,0.40039062,0.90625,0.0009765625,-36.125,42.46875,8.40625,0.0,0.0,0.0
454,1695809811028,0.43359375,0.9033203,-0.022460938,-53.59375,36.78125,7.0,0.0,0.0,0.0
455,1695809811059,0.39257812,0.80078125,-0.1171875,-44.4375,32.5625,0.40625,0.0,0.0,0.0
456,1695809811119,0.4013672,0.7792969,-0.033203125,-32.84375,34.8125,-10.59375,0.0,0.0,0.0
457,1695809811150,0.4716797,0.8144531,-0.033203125,-35.78125,24.9375,-18.03125,0.0,0.0,0.0
458,1695809811180,0.46289062,0.84277344,-0.049804688,-32.96875,15.71875,-25.34375,0.0,0.0,0.0
459,1695809811239,0.484375,0.86328125,-0.076171875,-26.71875,26.59375,-28.78125,7.375,27.5,-126.8125
460,1695809811270,0.49609375,0.8388672,-0.0048828125,-27.84375,25.125,-24.0,0.0,0.0,0.0
461,1695809811300,0.515625,0.86035156,0.064453125,-32.59375,11.625,-13.5,0.0,0.0,0.0
462,1695809811359,0.43359375,1.0263672,-0.03515625,-19.03125,18.65625,-3.8125,0.0,0.0,0.0
463,1695809811392,0.66308594,1.0791016,0.109375,4.09375,6.15625,-1.78125,0.0,0.0,0.0
464,1695809811417,0.6328125,1.25,0.18359375,36.0,-39.75,10.34375,0.0,0.0,0.0
465,1695809811481,0.16308594,1.1269531,0.03515625,62.75,-80.53125,18.21875,0.0,0.0,0.0
466,1695809811509,0.22167969,1.1171875,-0.036132812,79.84375,-62.53125,12.1875,0.0,0.0,0.0
467,1695809811545,0.26660156,1.1298828,-0.03515625,80.875,-50.4375,17.75,0.0,0.0,0.0
468,1695809811600,0.21289062,1.0878906,-0.043945312,93.875,-54.34375,10.34375,0.0,0.0,0.0
469,1695809811631,0.22753906,0.9404297,-0.046875,86.0,-44.15625,-8.9375,0.0,0.0,0.0
470,1695809811658,0.27246094,0.83691406,-0.15917969,63.0,-45.8125,-5.75,0.0,0.0,0.0
471,1695809811721,0.3203125,0.7519531,-0.21679688,48.53125,-48.53125,3.6875,8.5625,30.0625,-144.0625
472,1695809811749,0.15917969,0.7138672,-0.22070312,17.53125,-47.03125,0.59375,0.0,0.0,0.0
473,1695809811780,0.1328125,0.65527344,-0.27929688,-18.375,-27.0,-7.03125,0.0,0.0,0.0
474,1695809811841,0.21972656,0.63964844,-0.30273438,-25.28125,-2.34375,-12.90625,0.0,0.0,0.0
475,1695809811870,0.27148438,0.64941406,-0.36035156,-32.59375,13.28125,-10.03125,0.0,0.0,0.0
476,1695809811929,0.375,0.72265625,-0.4951172,-40.84375,20.125,0.96875,0.0,0.0,0.0
477,1695809811958,0.42285156,1.0332031,-0.49414062,-27.78125,9.1875,7.84375,0.0,0.0,0.0
478,1695809811990,0.359375,1.0292969,-0.52441406,-0.71875,-12.59375,9.3125,0.0,0.0,0.0
479,1695809812019,0.37304688,0.8046875,-0.5830078,9.46875,-39.03125,14.8125,0.0,0.0,0.0
480,1695809812080,0.15234375,1.1914062,-0.5029297,-29.0,-11.5625,24.8125,0.0,0.0,0.0
481,1695809812110,0.45410156,1.4453125,-0.14257812,-15.875,21.46875,6.6875,0.0,0.0,0.0
482,1695809812140,0.15234375,0.7421875,-0.048828125,1.28125,33.59375,22.875,0.0,0.0,0.0
483,1695809812201,0.00390625,0.6621094,-0.041992188,6.71875,19.375,-6.5625,0.0,0.0,0.0
484,1695809812231,0.65527344,1.2421875,0.12011719,0.25,63.09375,-1.90625,6.125,27.9375,-140.75
485,1695809812260,0.3857422,0.96875,-0.16308594,-26.375,83.46875,21.65625,0.0,0.0,0.0
486,1695809812324,0.30371094,0.78027344,-0.125,-30.75,34.875,6.5,0.0,0.0,0.0
487,1695809812352,0.42578125,0.88671875,0.095703125,-30.34375,54.3125,5.15625,0.0,0.0,0.0
488,1695809812381,0.39648438,0.88964844,-0.047851562,-58.34375,44.90625,-0.8125,0.0,0.0,0.0
489,1695809812439,0.34765625,0.8408203,-0.11230469,-43.53125,46.125,-6.75,0.0,0.0,0.0
490,1695809812469,0.37402344,0.78222656,-0.0009765625,-31.125,48.0625,-12.65625,0.0,0.0,0.0
491,1695809812497,0.5048828,0.82714844,-0.001953125,-32.78125,30.625,-19.0625,0.0,0.0,0.0
492,1695809812557,0.45898438,0.8535156,-0.048828125,-27.34375,25.3125,-22.40625,0.0,0.0,0.0
493,1695809812587,0.5107422,0.89160156,-0.01171875,-30.09375,25.125,-28.59375,0.0,0.0,0.0
494,1695809812617,0.47460938,0.86035156,0.034179688,-29.25,33.375,-25.15625,0.0,0.0,0.0
495,1695809812677,0.49121094,0.9394531,0.11230469,-25.9375,28.3125,-14.1875,0.0,0.0,0.0
496,1695809812707,0.50390625,0.9121094,0.033203125,-6.65625,23.78125,-9.84375,5.25,28.8125,-124.25
497,1695809812737,0.63378906,1.0498047,0.053710938,15.0625,11.875,0.21875,0.0,0.0,0.0
498,1695809812800,0.49414062,1.1591797,0.11425781,42.125,-24.5625,11.21875,0.0,0.0,0.0
499,1695809812827,0.22460938,0.98828125,0.0029296875,67.9375,-61.4375,5.78125,0.0,0.0,0.0
500,1695809812859,0.30371094,1.1435547,0.037109375,85.21875,-68.3125,8.34375,0.0,0.0,0.0
501,1695809812920,0.2783203,1.1845703,-0.123046875,80.375,-59.40625,15.78125,0.0,0.0,0.0
502,1695809812948,0.19335938,1.1503906,-0.07519531,108.9375,-35.84375,15.65625,0.0,0.0,0.0
503,1695809812980,0.24707031,1.0244141,-0.19238281,93.375,-21.75,-4.59375,0.0,0.0,0.0
504,1695809813041,0.32617188,0.89160156,-0.19042969,76.78125,-50.875,-4.65625,0.0,0.0,0.0
505,1695809813067,0.3466797,0.734375,-0.21679688,56.46875,-57.6875,7.5625,0.0,0.0,0.0
506,1695809813097,0.22753906,0.5996094,-0.26953125,14.09375,-53.0,7.4375,0.0,0.0,0.0
507,1695809813157,0.0859375,0.55078125,-0.26953125,-12.625,-36.78125,-1.84375,0.0,0.0,0.0
508,1695809813187,0.11621094,0.5703125,-0.30566406,-32.53125,-6.5625,-7.34375,0.0,0.0,0.0
509,1695809813218,0.24609375,0.5605469,-0.37695312,-53.34375,27.625,-8.5625,7.1875,30.1875,-147.375
510,1695809813277,0.36035156,0.82910156,-0.5449219,-76.59375,22.1875,-11.125,0.0,0.0,0.0
511,1695809813307,0.54589844,1.1630859,-0.5546875,-30.8125,-29.5625,3.875,0.0,0.0,0.0
512,1695809813337,0.4248047,0.9794922,-0.63964844,4.875,-45.96875,14.8125,0.0,0.0,0.0
513,1695809813398,0.29101562,0.8027344,-0.4892578,-12.09375,-41.84375,37.6875,0.0,0.0,0.0
514,1695809813428,0.2421875,1.5390625,-0.21386719,-33.625,-21.8125,19.9375,0.0,0.0,0.0
515,1695809813464,0.078125,1.0986328,-0.16113281,-8.4375,12.71875,6.5,0.0,0.0,0.0
516,1695809813516,0.18164062,0.8613281,-0.047851562,5.25,23.53125,9.5625,0.0,0.0,0.0
517,1695809813546,0.3701172,0.9658203,0.123046875,13.0,74.4375,9.0,0.0,0.0,0.0
518,1695809813578,0.46679688,1.046875,-0.052734375,-25.28125,97.3125,18.03125,0.0,0.0,0.0
519,1695809813637,0.3017578,0.7636719,-0.0546875,-31.25,64.0,20.25,0.0,0.0,0.0
520,1695809813666,0.35546875,0.81347656,0.13671875,-29.0,46.125,8.03125,0.0,0.0,0.0
521,1695809813697,0.328125,0.9394531,-0.022460938,-45.34375,54.84375,2.65625,12.3125,27.9375,-134.4375
522,1695809813757,0.43164062,0.8408203,-0.049804688,-26.25,57.03125,-2.78125,0.0,0.0,0.0
523,1695809813787,0.48339844,0.7792969,0.033203125,-21.0625,52.34375,-5.875,0.0,0.0,0.0
524,1695809813817,0.4921875,0.81640625,-0.043945312,-26.90625,35.75,-16.9375,0.0,0.0,0.0
525,1695809813877,0.45898438,0.8339844,-0.044921875,-26.96875,34.65625,-25.96875,0.0,0.0,0.0
526,1695809813908,0.52734375,0.8095703,-0.04296875,-31.96875,34.15625,-36.15625,0.0,0.0,0.0
527,1695809813938,0.4873047,0.8876953,0.001953125,-45.40625,25.84375,-35.125,0.0,0.0,0.0
528,1695809814000,0.3671875,0.95703125,0.028320312,-34.78125,23.65625,-21.09375,0.0,0.0,0.0
529,1695809814030,0.3701172,0.9326172,-0.08886719,-7.4375,33.65625,-12.03125,0.0,0.0,0.0
530,1695809814058,0.72558594,1.046875,0.087890625,24.96875,24.75,-13.15625,0.0,0.0,0.0
531,1695809814119,0.5175781,1.1044922,0.2109375,50.125,-34.09375,7.4375,0.0,0.0,0.0
532,1695809814151,0.24609375,1.2011719,-0.017578125,71.71875,-73.4375,29.53125,0.0,0.0,0.0
533,1695809814210,0.39453125,1.1318359,-0.005859375,86.25,-59.34375,16.46875,0.0,0.0,0.0
534,1695809814241,0.23632812,1.1328125,-0.07910156,90.40625,-46.59375,22.0625,6.875,30.9375,-130.375
535,1695809814269,0.2626953,1.0996094,-0.06738281,112.90625,-31.53125,19.28125,0.0,0.0,0.0
536,1695809814301,0.36328125,0.9394531,-0.0859375,98.3125,-55.75,1.8125,0.0,0.0,0.0
537,1695809814359,0.3251953,0.8564453,-0.17773438,67.5625,-64.96875,-3.25,0.0,0.0,0.0
538,1695809814389,0.31347656,0.68359375,-0.2109375,41.8125,-80.40625,-0.21875,0.0,0.0,0.0
539,1695809814420,0.15039062,0.6347656,-0.2841797,7.25,-73.5,-4.0625,0.0,0.0,0.0
540,1695809814480,0.033203125,0.60839844,-0.25,-25.28125,-42.1875,-5.875,0.0,0.0,0.0
541,1695809814511,0.09375,0.5283203,-0.24121094,-54.0625,-0.75,-12.09375,0.0,0.0,0.0
542,1695809814540,0.26367188,0.578125,-0.3232422,-73.5,21.09375,-11.375,0.0,0.0,0.0
543,1695809814598,0.3173828,1.0478516,-0.50878906,-73.0,19.3125,-9.78125,0.0,0.0,0.0
544,1695809814630,0.33984375,1.3779297,-0.46972656,-15.625,-18.5625,-0.875,0.0,0.0,0.0
545,1695809814659,0.39648438,0.875,-0.640625,32.65625,-35.3125,3.8125,0.0,0.0,0.0
546,1695809814719,0.33789062,1.1074219,-0.39746094,-2.1875,5.71875,35.5625,3.875,31.8125,-141.1875
547,1695809814759,0.1015625,1.4287109,-0.20898438,4.53125,53.125,13.84375,0.0,0.0,0.0
548,1695809814779,0.35351562,0.7919922,-0.0126953125,13.0625,55.21875,20.4375,0.0,0.0,0.0
549,1695809814840,0.15332031,0.70214844,0.033203125,7.3125,52.65625,-0.8125,0.0,0.0,0.0
550,1695809814871,0.67578125,1.1865234,-0.052734375,-5.875,63.625,-4.90625,0.0,0.0,0.0
551,1695809814899,0.484375,0.81640625,-0.2109375,-45.84375,53.25,28.40625,0.0,0.0,0.0
552,1695809814963,0.34277344,0.8339844,-0.009765625,-41.9375,9.5,14.875,0.0,0.0,0.0
553,1695809814992,0.3330078,0.8652344,0.030273438,-62.5625,18.53125,13.40625,0.0,0.0,0.0
554,1695809815020,0.2890625,0.8964844,-0.080078125,-49.6875,29.53125,7.1875,0.0,0.0,0.0
555,1695809815080,0.37109375,0.81347656,0.0048828125,-40.46875,36.78125,-1.375,0.0,0.0,0.0
556,1695809815110,0.38964844,0.734375,-0.017578125,-37.15625,34.65625,-16.8125,0.0,0.0,0.0
557,1695809815140,0.4501953,0.8564453,-0.013671875,-45.78125,31.84375,-29.875,0.0,0.0,0.0
558,1695809815201,0.44433594,0.79296875,-0.07714844,-37.0625,34.28125,-43.84375,0.0,0.0,0.0
559,1695809815230,0.49804688,0.89160156,0.001953125,-39.0,32.09375,-43.0,6.3125,28.8125,-125.75
560,1695809815260,0.45117188,0.9580078,0.05859375,-17.46875,26.53125,-21.375,0.0,0.0,0.0
561,1695809815320,0.6455078,1.0400391,-0.06640625,12.15625,24.9375,-1.4375,0.0,0.0,0.0
562,1695809815348,0.7363281,1.0966797,0.07714844,43.21875,-20.78125,8.40625,0.0,0.0,0.0
563,1695809815385,0.34375,1.1318359,0.13867188,65.6875,-85.09375,27.875,0.0,0.0,0.0
564,1695809815438,0.43652344,1.1904297,0.083984375,84.09375,-85.71875,27.1875,0.0,0.0,0.0
565,1695809815469,0.25195312,1.3085938,-0.049804688,88.5,-83.28125,24.03125,0.0,0.0,0.0
566,1695809815500,0.076171875,1.1425781,-0.109375,126.53125,-31.09375,27.625,0.0,0.0,0.0
567,1695809815561,0.31933594,0.8798828,-0.11425781,114.75,-25.90625,16.59375,0.0,0.0,0.0
568,1695809815591,0.44921875,0.82714844,-0.13378906,78.78125,-72.34375,10.59375,0.0,0.0,0.0
569,1695809815622,0.22851562,0.74902344,-0.21386719,45.09375,-80.28125,11.75,0.0,0.0,0.0
570,1695809815682,0.25390625,0.640625,-0.31835938,8.375,-60.375,9.25,0.0,0.0,0.0
571,1695809815709,0.0703125,0.53515625,-0.25585938,-19.03125,-25.78125,4.0625,6.75,28.8125,-148.125
572,1695809815742,0.08300781,0.5253906,-0.28027344,-44.375,-21.15625,-11.3125,0.0,0.0,0.0
573,1695809815799,0.24707031,0.55078125,-0.36621094,-71.59375,8.21875,-17.40625,0.0,0.0,0.0
574,1695809815828,0.41503906,0.8769531,-0.4716797,-69.75,23.84375,-14.375,0.0,0.0,0.0
575,1695809815920,0.44433594,1.234375,-0.4765625,-32.96875,-11.8125,2.59375,0.0,0.0,0.0
576,1695809815922,0.5019531,0.91308594,-0.6669922,8.0625,-30.65625,7.375,0.0,0.0,0.0
577,1695809815948,0.21972656,0.6484375,-0.39746094,-10.4375,-25.90625,27.75,0.0,0.0,0.0
578,1695809815979,0.10253906,1.0917969,-0.39453125,-54.5625,11.625,13.34375,0.0,0.0,0.0
579,1695809816038,0.5644531,1.59375,-0.13671875,-14.71875,24.34375,14.8125,0.0,0.0,0.0
580,1695809816068,0.041015625,0.88183594,0.02734375,-11.34375,51.4375,21.28125,0.0,0.0,0.0
581,1695809816098,0.171875,0.79589844,-0.080078125,25.15625,38.78125,-14.71875,0.0,0.0,0.0
582,1695809816159,0.6328125,1.1513672,0.080078125,-2.625,79.125,-0.6875,0.0,0.0,0.0
583,1695809816189,0.39160156,0.8222656,-0.030273438,-47.59375,72.5625,23.40625,0.0,0.0,0.0
584,1695809816249,0.33398438,0.8515625,-0.06738281,-32.53125,31.40625,8.03125,11.875,27.625,-136.25
585,1695809816278,0.3408203,0.8261719,0.033203125,-40.59375,43.0625,3.75,0.0,0.0,0.0
586,1695809816308,0.40429688,0.89941406,-0.09082031,-33.875,48.875,-3.0,0.0,0.0,0.0
587,1695809816338,0.44335938,0.7871094,-0.01171875,-23.0,39.78125,-4.53125,0.0,0.0,0.0
588,1695809816401,0.4560547,0.7529297,-0.0087890625,-20.4375,25.84375,-8.03125,0.0,0.0,0.0
589,1695809816431,0.50878906,0.8046875,-0.06738281,-26.90625,14.9375,-16.125,0.0,0.0,0.0
590,1695809816493,0.421875,0.921875,-0.052734375,-28.3125,17.5625,-26.375,0.0,0.0,0.0
591,1695809816528,0.47070312,0.890625,-0.016601562,-24.84375,26.71875,-30.71875,0.0,0.0,0.0
592,1695809816549,0.51464844,0.9003906,0.037109375,-30.6875,30.6875,-25.28125,0.0,0.0,0.0
593,1695809816580,0.4970703,0.9316406,0.0009765625,-18.4375,25.6875,-12.71875,0.0,0.0,0.0
594,1695809816638,0.59375,0.9814453,-0.022460938,2.9375,32.9375,-11.625,0.0,0.0,0.0
595,1695809816669,0.7001953,1.0097656,0.072265625,21.53125,-3.4375,0.46875,0.0,0.0,0.0
596,1695809816731,0.4326172,1.1279297,0.125,44.1875,-64.59375,13.96875,4.9375,28.5625,-125.0
597,1695809816761,0.23828125,1.1396484,-0.032226562,75.5625,-73.6875,20.78125,0.0,0.0,0.0
598,1695809816790,0.2939453,1.1816406,-0.041992188,85.75,-59.09375,16.59375,0.0,0.0,0.0
599,1695809816851,0.20996094,1.0683594,-0.08691406,106.03125,-42.9375,24.40625,0.0,0.0,0.0
600,1695809816880,0.3017578,0.94628906,-0.12988281,103.6875,-45.25,15.0625,0.0,0.0,0.0
601,1695809816910,0.3408203,0.9169922,-0.19628906,77.34375,-58.125,7.90625,0.0,0.0,0.0
602,1695809816970,0.3486328,0.8544922,-0.22558594,61.53125,-78.09375,10.53125,0.0,0.0,0.0
603,1695809817003,0.28125,0.7216797,-0.26757812,34.4375,-66.96875,8.40625,0.0,0.0,0.0
604,1695809817031,0.17382812,0.64160156,-0.2939453,11.90625,-45.125,0.90625,0.0,0.0,0.0
605,1695809817091,0.103515625,0.5703125,-0.27734375,-22.9375,-14.78125,-7.65625,0.0,0.0,0.0
606,1695809817122,0.18261719,0.53222656,-0.29492188,-41.3125,14.625,-11.1875,0.0,0.0,0.0
607,1695809817151,0.33496094,0.5996094,-0.38085938,-63.90625,23.90625,-14.65625,0.0,0.0,0.0
608,1695809817207,0.3642578,1.0390625,-0.5878906,-73.5,19.1875,-10.03125,0.0,0.0,0.0
609,1695809817237,0.44726562,1.2402344,-0.5126953,-3.1875,-10.8125,-3.25,6.4375,28.375,-143.4375
610,1695809817267,0.63964844,0.7841797,-0.63183594,12.5,-50.6875,6.5625,0.0,0.0,0.0
611,1695809817328,0.115234375,0.70410156,-0.3359375,-22.59375,-30.40625,22.625,0.0,0.0,0.0
612,1695809817357,0.099609375,1.2548828,-0.4375,-43.875,-13.9375,4.6875,0.0,0.0,0.0
613,1695809817387,0.40527344,1.4697266,-0.21289062,-15.1875,11.03125,5.59375,0.0,0.0,0.0
614,1695809817448,-0.029296875,0.8261719,0.0546875,-0.3125,58.875,12.96875,0.0,0.0,0.0
615,1695809817477,0.22363281,0.7128906,-0.036132812,9.59375,32.875,-11.4375,0.0,0.0,0.0
616,1695809817508,0.6875,1.0566406,0.01171875,-24.90625,68.46875,9.375,0.0,0.0,0.0
617,1695809817568,0.33203125,0.9355469,-0.115234375,-36.75,59.5,22.9375,0.0,0.0,0.0
618,1695809817597,0.25878906,0.8720703,-0.123046875,-31.0625,35.5625,10.21875,0.0,0.0,0.0
619,1695809817628,0.35546875,0.8359375,0.03515625,-37.0625,70.21875,9.4375,0.0,0.0,0.0
620,1695809817687,0.45214844,0.8955078,-0.015625,-47.59375,58.15625,-0.4375,0.0,0.0,0.0
621,1695809817718,0.40039062,0.8173828,-0.078125,-43.875,52.15625,-9.1875,8.125,27.8125,-132.9375
622,1695809817747,0.421875,0.7734375,-0.037109375,-31.6875,54.59375,-18.875,0.0,0.0,0.0
623,1695809817808,0.48828125,0.78027344,-0.0078125,-23.5,42.9375,-24.875,0.0,0.0,0.0
624,1695809817838,0.55371094,0.8183594,-0.07910156,-18.5625,28.3125,-24.375,0.0,0.0,0.0
625,1695809817868,0.54003906,0.90234375,-0.08496094,-20.625,25.25,-21.625,0.0,0.0,0.0
626,1695809817929,0.46289062,0.8339844,0.11816406,-20.5625,14.6875,-12.21875,0.0,0.0,0.0
627,1695809817958,0.3984375,1.0078125,0.0009765625,-8.65625,7.53125,2.1875,0.0,0.0,0.0
628,1695809817987,0.55859375,1.1767578,-0.0048828125,26.5625,25.71875,6.4375,0.0,0.0,0.0
629,1695809818049,0.7626953,1.0566406,0.056640625,46.8125,-17.96875,19.3125,0.0,0.0,0.0
630,1695809818078,0.2890625,1.1210938,-0.0126953125,80.03125,-61.53125,25.1875,0.0,0.0,0.0
631,1695809818112,0.3408203,1.1279297,-0.07519531,88.3125,-71.9375,9.4375,0.0,0.0,0.0
632,1695809818173,0.3642578,1.1074219,-0.08203125,91.6875,-57.09375,12.0,0.0,0.0,0.0
633,1695809818201,0.2919922,1.0458984,-0.14648438,100.34375,-56.71875,11.9375,0.0,0.0,0.0
634,1695809818231,0.30371094,0.9609375,-0.171875,78.375,-58.5,-3.5625,7.0625,28.8125,-140.125
635,1695809818288,0.2861328,0.8203125,-0.2607422,61.59375,-51.21875,-0.625,0.0,0.0,0.0
636,1695809818320,0.3203125,0.7705078,-0.28320312,39.6875,-45.0625,6.03125,0.0,0.0,0.0
637,1695809818348,0.21972656,0.66796875,-0.18652344,10.9375,-50.3125,4.8125,0.0,0.0,0.0
638,1695809818409,0.0703125,0.5253906,-0.2607422,-23.1875,-38.28125,-3.25,0.0,0.0,0.0
639,1695809818439,0.14746094,0.55859375,-0.29492188,-42.3125,1.1875,-9.0625,0.0,0.0,0.0
640,1695809818468,0.26464844,0.6152344,-0.36621094,-63.78125,28.96875,-11.1875,0.0,0.0,0.0
641,1695809818529,0.41210938,0.93652344,-0.60058594,-78.5625,18.09375,-14.25,0.0,0.0,0.0
642,1695809818558,0.5175781,1.1386719,-0.46875,-13.5,-21.09375,3.34375,0.0,0.0,0.0
643,1695809818589,0.5136719,0.8027344,-0.6376953,6.84375,-36.9375,15.78125,0.0,0.0,0.0
644,1695809818678,0.23242188,0.9033203,-0.4140625,-28.25,-24.5625,39.84375,0.0,0.0,0.0
645,1695809818681,0.17675781,1.5712891,-0.087890625,-28.8125,-11.75,15.125,0.0,0.0,0.0
646,1695809818708,0.2919922,1.109375,-0.009765625,4.9375,8.46875,5.53125,5.125,27.625,-139.6875
647,1695809818769,0.14160156,0.83496094,0.001953125,-2.75,26.78125,6.09375,0.0,0.0,0.0
648,1695809818798,0.46289062,1.1074219,0.087890625,-25.5,71.375,7.90625,0.0,0.0,0.0
649,1695809818828,0.28808594,0.9316406,-0.04296875,-49.5625,92.1875,19.375,0.0,0.0,0.0
650,1695809818919,0.3017578,0.8125,-0.0068359375,-36.125,70.84375,2.65625,0.0,0.0,0.0
651,1695809818921,0.3642578,0.7832031,0.057617188,-30.34375,67.46875,3.15625,0.0,0.0,0.0
652,1695809818950,0.4765625,0.8964844,-0.07128906,-17.15625,73.53125,1.375,0.0,0.0,0.0
653,1695809819041,0.5058594,0.80371094,-0.052734375,-13.84375,53.03125,-2.65625,0.0,0.0,0.0
654,1695809819043,0.4970703,0.7792969,0.01171875,-22.46875,36.90625,-10.8125,0.0,0.0,0.0
655,1695809819069,0.47265625,0.83496094,-0.0078125,-30.9375,27.375,-25.28125,0.0,0.0,0.0
656,1695809819130,0.42578125,0.86328125,-0.059570312,-38.34375,18.34375,-34.375,0.0,0.0,0.0
657,1695809819159,0.45410156,0.89941406,-0.00390625,-42.1875,20.96875,-33.34375,0.0,0.0,0.0
658,1695809819190,0.48828125,0.86816406,0.15332031,-28.5625,21.15625,-19.4375,0.0,0.0,0.0
659,1695809819250,0.3623047,1.0175781,-0.03125,-11.40625,20.5,6.5625,4.0625,29.125,-123.5
660,1695809819280,0.5810547,0.99902344,0.061523438,28.5,37.8125,11.625,0.0,0.0,0.0
661,1695809819310,0.65527344,1.0332031,0.041015625,52.96875,-4.46875,22.625,0.0,0.0,0.0
662,1695809819369,0.40527344,1.1367188,0.036132812,81.0,-59.96875,18.71875,0.0,0.0,0.0
663,1695809819398,0.3203125,1.1904297,-0.1171875,94.46875,-64.46875,13.53125,0.0,0.0,0.0
664,1695809819428,0.3408203,1.1679688,-0.05078125,91.25,-42.0625,5.03125,0.0,0.0,0.0
665,1695809819491,0.2578125,1.0107422,-0.0703125,93.875,-32.5,12.78125,0.0,0.0,0.0
666,1695809819518,0.24414062,0.9423828,-0.111328125,82.21875,-54.65625,-6.0625,0.0,0.0,0.0
667,1695809819548,0.26660156,0.8095703,-0.20507812,57.5,-50.9375,-10.03125,0.0,0.0,0.0
668,1695809819608,0.3828125,0.76464844,-0.2626953,46.875,-50.4375,-2.40625,0.0,0.0,0.0
669,1695809819640,0.24804688,0.70703125,-0.20800781,18.6875,-48.375,2.53125,0.0,0.0,0.0
670,1695809819670,0.03515625,0.64160156,-0.27734375,-14.46875,-41.46875,-6.0,0.0,0.0,0.0
671,1695809819730,0.15332031,0.64941406,-0.2998047,-32.46875,-10.09375,-13.4375,5.5625,30.0625,-145.125
672,1695809819759,0.16699219,0.63183594,-0.359375,-26.5,31.21875,-4.46875,0.0,0.0,0.0
673,1695809819787,0.3388672,0.7675781,-0.45214844,-51.9375,48.3125,-5.28125,0.0,0.0,0.0
674,1695809819848,0.49804688,0.9863281,-0.5839844,-70.3125,10.90625,-5.9375,0.0,0.0,0.0
675,1695809819877,0.41210938,1.0800781,-0.4765625,3.71875,-19.625,6.75,0.0,0.0,0.0
676,1695809819908,0.4345703,0.80859375,-0.6171875,5.5,-35.0,11.34375,0.0,0.0,0.0
677,1695809819969,0.16992188,0.8466797,-0.3544922,-26.625,-33.71875,28.65625,0.0,0.0,0.0
678,1695809819997,0.08984375,1.3388672,-0.37402344,-39.625,-9.59375,5.53125,0.0,0.0,0.0
679,1695809820028,0.2705078,1.4140625,-0.061523438,-5.625,15.40625,2.65625,0.0,0.0,0.0
680,1695809820088,0.043945312,0.8017578,0.056640625,4.03125,32.75,9.5,0.0,0.0,0.0
681,1695809820117,0.29492188,0.83496094,0.005859375,2.875,65.21875,1.25,0.0,0.0,0.0
682,1695809820148,0.5263672,1.1455078,0.01953125,-13.3125,115.15625,19.5625,0.0,0.0,0.0
683,1695809820208,0.25,0.86035156,-0.07714844,-32.46875,102.6875,22.375,0.0,0.0,0.0
684,1695809820238,0.3515625,0.88378906,0.08496094,-2.0625,101.90625,8.46875,5.375,27.9375,-133.875
685,1695809820268,0.41308594,0.8876953,0.076171875,-11.28125,96.71875,7.125,0.0,0.0,0.0
686,1695809820327,0.38964844,0.8701172,-0.017578125,-0.96875,90.90625,1.5,0.0,0.0,0.0
687,1695809820360,0.4765625,0.73339844,0.02734375,-2.5625,86.03125,-2.15625,0.0,0.0,0.0
688,1695809820388,0.54589844,0.81640625,0.017578125,-13.1875,73.09375,-9.46875,0.0,0.0,0.0
689,1695809820448,0.45410156,0.859375,-0.02734375,-16.1875,59.84375,-21.9375,0.0,0.0,0.0
690,1695809820478,0.53222656,0.8486328,-0.048828125,-16.28125,54.125,-36.75,0.0,0.0,0.0
691,1695809820508,0.44628906,0.8769531,-0.03125,-16.0,49.28125,-31.875,0.0,0.0,0.0
692,1695809820569,0.48828125,0.92578125,0.013671875,-6.15625,52.09375,-14.5,0.0,0.0,0.0
693,1695809820598,0.5107422,0.95410156,-0.029296875,18.3125,49.84375,2.46875,0.0,0.0,0.0
694,1695809820628,0.56347656,1.1474609,0.06542969,55.40625,35.875,8.84375,0.0,0.0,0.0
695,1695809820689,0.4794922,1.0761719,0.171875,83.5,-17.28125,19.875,0.0,0.0,0.0
696,1695809820718,0.34277344,1.2246094,-0.00390625,93.25,-38.65625,21.65625,-0.3125,30.1875,-122.0
697,1695809820748,0.30566406,1.2597656,-0.08496094,105.96875,-25.96875,5.84375,0.0,0.0,0.0
698,1695809820814,0.22070312,1.0712891,-0.10253906,110.0,-6.84375,4.25,0.0,0.0,0.0
699,1695809820840,0.2626953,0.9667969,-0.125,99.375,-26.625,-13.09375,0.0,0.0,0.0
700,1695809820870,0.3203125,0.8388672,-0.18554688,75.6875,-37.75,-22.65625,0.0,0.0,0.0
701,1695809820930,0.25585938,0.7529297,-0.22070312,56.75,-46.40625,-16.0625,0.0,0.0,0.0
702,1695809820960,0.20410156,0.74121094,-0.2548828,32.15625,-25.0,-11.5,0.0,0.0,0.0
703,1695809820989,0.14257812,0.6640625,-0.2783203,2.9375,-1.65625,-12.59375,0.0,0.0,0.0
704,1695809821049,0.05859375,0.5908203,-0.22265625,-23.25,15.84375,-22.65625,0.0,0.0,0.0
705,1695809821078,0.18652344,0.6142578,-0.2890625,-29.78125,43.0625,-20.28125,0.0,0.0,0.0
706,1695809821107,0.32617188,0.72753906,-0.37890625,-27.96875,67.25,-11.75,0.0,0.0,0.0
707,1695809821169,0.40039062,0.9042969,-0.5390625,-46.4375,61.6875,-3.3125,0.0,0.0,0.0
708,1695809821200,0.61816406,1.1787109,-0.51660156,-22.78125,9.25,-4.90625,-4.1875,36.625,-131.4375
709,1695809821228,0.4296875,0.97558594,-0.61328125,16.34375,-10.28125,4.8125,0.0,0.0,0.0
710,1695809821288,0.30371094,0.8496094,-0.55371094,8.46875,-35.125,21.15625,0.0,0.0,0.0
711,1695809821319,0.08496094,1.15625,-0.3466797,-25.5,-8.03125,4.8125,0.0,0.0,0.0
712,1695809821348,0.24121094,1.2421875,-0.21777344,-11.65625,5.15625,-8.03125,0.0,0.0,0.0
713,1695809821408,0.0859375,0.7919922,0.013671875,13.0625,32.9375,17.0,0.0,0.0,0.0
714,1695809821442,0.19238281,0.734375,0.024414062,3.71875,36.46875,7.96875,0.0,0.0,0.0
715,1695809821468,0.53125,1.1679688,0.020507812,-10.4375,73.59375,17.6875,0.0,0.0,0.0
716,1695809821527,0.3310547,0.9628906,-0.07519531,-18.0,80.0,25.78125,0.0,0.0,0.0
717,1695809821558,0.2939453,0.8886719,-0.07324219,-23.6875,62.90625,13.71875,0.0,0.0,0.0
718,1695809821586,0.37890625,0.8701172,0.10839844,-30.34375,86.84375,7.84375,0.0,0.0,0.0
719,1695809821647,0.39257812,0.9033203,-0.030273438,-30.75,75.59375,-6.625,0.0,0.0,0.0
720,1695809821677,0.38867188,0.85253906,-0.0146484375,-19.28125,80.3125,-10.6875,0.0,0.0,0.0
721,1695809821707,0.46972656,0.8105469,-0.00390625,-9.59375,69.5625,-16.6875,-5.6875,33.3125,-121.375
722,1695809821767,0.5058594,0.78808594,-0.030273438,-3.0,56.0625,-13.4375,0.0,0.0,0.0
723,1695809821797,0.53125,0.83496094,-0.07519531,0.5625,44.71875,-11.8125,0.0,0.0,0.0
724,1695809821826,0.46679688,0.8330078,-0.15917969,-3.46875,36.21875,-16.8125,0.0,0.0,0.0
725,1695809821887,0.53125,0.8691406,0.08984375,-10.0625,23.28125,-23.875,0.0,0.0,0.0
726,1695809821919,0.42089844,0.98339844,0.047851562,-21.0625,21.03125,-14.5625,0.0,0.0,0.0
727,1695809821947,0.36523438,1.0634766,-0.09765625,3.28125,41.40625,-9.53125,0.0,0.0,0.0
728,1695809822009,0.6826172,1.0224609,0.055664062,43.34375,40.4375,-3.3125,0.0,0.0,0.0
729,1695809822037,0.5332031,1.1064453,0.12011719,73.59375,-19.3125,14.6875,0.0,0.0,0.0
730,1695809822068,0.28710938,1.2041016,-0.5292969,94.96875,-44.40625,23.71875,0.0,0.0,0.0
731,1695809822127,0.3935547,1.1943359,-0.024414062,83.25,-31.40625,10.0625,0.0,0.0,0.0
732,1695809822158,0.26757812,0.9873047,-0.111328125,83.5,-31.8125,12.4375,0.0,0.0,0.0
733,1695809822187,0.23828125,1.0185547,-0.15039062,87.53125,-38.59375,-1.375,-10.625,35.875,-129.375
734,1695809822257,0.25878906,0.88378906,-0.13671875,81.78125,-28.65625,-12.09375,0.0,0.0,0.0
735,1695809822279,0.3203125,0.83496094,-0.22558594,63.28125,-24.0625,-6.625,0.0,0.0,0.0
736,1695809822309,0.34277344,0.71875,-0.18652344,41.1875,-34.15625,-0.25,0.0,0.0,0.0
737,1695809822370,0.15917969,0.66015625,-0.265625,5.90625,-36.8125,-5.03125,0.0,0.0,0.0
738,1695809822402,0.13378906,0.5996094,-0.2939453,-21.84375,-3.3125,-15.21875,0.0,0.0,0.0
739,1695809822431,0.22070312,0.60546875,-0.31640625,-33.8125,18.84375,-14.25,0.0,0.0,0.0
740,1695809822491,0.3564453,0.62597656,-0.40722656,-49.875,27.6875,-14.0,0.0,0.0,0.0
741,1695809822522,0.45214844,0.89941406,-0.49804688,-60.0625,22.5625,-6.75,0.0,0.0,0.0
742,1695809822550,0.39941406,1.2197266,-0.45214844,-14.03125,-2.59375,8.40625,0.0,0.0,0.0
743,1695809822609,0.46289062,0.92578125,-0.5546875,11.71875,-26.75,10.96875,0.0,0.0,0.0
744,1695809822639,0.27441406,1.1279297,-0.53515625,-6.65625,-33.03125,25.0625,0.0,0.0,0.0
745,1695809822670,0.19628906,1.4648438,-0.24023438,-15.5625,-2.03125,2.25,0.0,0.0,0.0
746,1695809822731,0.29296875,0.7529297,-0.28710938,15.625,26.84375,4.5,-10.5,36.8125,-130.25
747,1695809822758,-0.052734375,0.5986328,0.09667969,-12.375,65.15625,20.5,0.0,0.0,0.0
748,1695809822788,0.52246094,1.1376953,0.0146484375,-11.28125,23.90625,-20.03125,0.0,0.0,0.0
749,1695809822850,0.4736328,1.0625,-0.15722656,-26.4375,72.78125,7.3125,0.0,0.0,0.0
750,1695809822879,0.2685547,0.8154297,-0.00390625,-31.25,58.6875,13.65625,0.0,0.0,0.0
751,1695809822908,0.3642578,0.8925781,-0.03125,-24.28125,52.15625,7.0,0.0,0.0,0.0
752,1695809822970,0.44335938,0.921875,0.022460938,-20.375,66.9375,10.46875,0.0,0.0,0.0
753,1695809823008,0.4716797,0.81933594,-0.05078125,-26.375,52.78125,10.40625,0.0,0.0,0.0
754,1695809823029,0.48632812,0.8125,-0.08984375,-15.4375,50.40625,-4.96875,0.0,0.0,0.0
755,1695809823090,0.45703125,0.7832031,-0.021484375,-14.78125,39.28125,-15.21875,0.0,0.0,0.0
756,1695809823120,0.4560547,0.84277344,-0.051757812,-19.34375,23.90625,-21.125,0.0,0.0,0.0
757,1695809823149,0.4921875,0.89941406,-0.10253906,-21.0625,32.75,-24.75,0.0,0.0,0.0
758,1695809823210,0.4248047,0.9091797,0.005859375,-14.03125,36.15625,-18.75,-11.25,35.75,-120.8125
759,1695809823240,0.4423828,0.8828125,0.056640625,-9.65625,34.15625,-8.875,0.0,0.0,0.0
760,1695809823270,0.35742188,0.9980469,0.00390625,2.875,51.5625,-3.375,0.0,0.0,0.0
761,1695809823332,0.609375,0.9970703,0.1015625,36.6875,47.15625,8.21875,0.0,0.0,0.0
762,1695809823359,0.57714844,1.2431641,0.049804688,58.15625,-4.0,26.03125,0.0,0.0,0.0
763,1695809823390,0.2548828,1.203125,-0.0126953125,84.09375,-40.625,11.875,0.0,0.0,0.0
764,1695809823450,0.24511719,1.0751953,-0.072265625,105.96875,-24.875,-2.875,0.0,0.0,0.0
765,1695809823480,0.2861328,1.0605469,-0.11230469,105.34375,-22.65625,-0.375,0.0,0.0,0.0
766,1695809823509,0.3515625,0.96191406,-0.15625,90.6875,-41.40625,-10.53125,0.0,0.0,0.0
767,1695809823572,0.21972656,0.8730469,-0.16894531,64.5,-36.40625,-24.625,0.0,0.0,0.0
768,1695809823599,0.23144531,0.82421875,-0.25195312,54.375,-27.71875,-21.5,0.0,0.0,0.0
769,1695809823631,0.23535156,0.7636719,-0.29882812,44.1875,-6.125,-17.125,0.0,0.0,0.0
770,1695809823691,0.20117188,0.7109375,-0.28320312,22.15625,3.75,-17.46875,0.0,0.0,0.0
771,1695809823723,0.09472656,0.65625,-0.29492188,0.375,20.96875,-23.34375,-16.625,39.9375,-137.4375
772,1695809823751,0.16796875,0.66796875,-0.29589844,-8.84375,51.5625,-22.90625,0.0,0.0,0.0
773,1695809823810,0.24121094,0.6035156,-0.31152344,-17.875,78.34375,-17.46875,0.0,0.0,0.0
774,1695809823843,0.3173828,0.71972656,-0.4501953,-41.0625,74.625,-12.96875,0.0,0.0,0.0
775,1695809823870,0.51464844,1.0234375,-0.5419922,-40.78125,33.125,-5.21875,0.0,0.0,0.0
776,1695809823930,0.5205078,1.1396484,-0.5263672,13.3125,15.34375,11.28125,0.0,0.0,0.0
777,1695809823960,0.4765625,0.8125,-0.7050781,17.40625,-10.875,16.03125,0.0,0.0,0.0
778,1695809823992,0.19726562,0.7910156,-0.4326172,-10.1875,-38.59375,14.5625,0.0,0.0,0.0
779,1695809824060,0.17480469,1.34375,-0.49609375,-36.4375,-29.5625,3.875,0.0,0.0,0.0
780,1695809824079,0.28320312,1.2255859,-0.23925781,-7.875,18.46875,5.15625,0.0,0.0,0.0
781,1695809824111,-0.12597656,0.69921875,0.11230469,2.5625,48.4375,19.21875,0.0,0.0,0.0
782,1695809824170,0.14648438,0.8486328,-0.07421875,10.25,37.09375,-4.46875,0.0,0.0,0.0
783,1695809824202,0.5439453,1.2001953,0.009765625,1.65625,123.625,17.625,-16.625,39.9375,-132.625
784,1695809824260,0.2578125,1.0029297,-0.09765625,-14.21875,120.8125,21.875,0.0,0.0,0.0
785,1695809824292,0.32910156,0.8339844,-0.00390625,-1.78125,98.3125,6.875,0.0,0.0,0.0
786,1695809824319,0.3798828,0.9609375,0.19335938,-9.40625,116.84375,2.84375,0.0,0.0,0.0
787,1695809824361,0.41503906,0.8955078,-0.01171875,-1.78125,109.0,0.53125,0.0,0.0,0.0
788,1695809824414,0.4482422,0.82910156,0.048828125,10.8125,113.3125,0.65625,0.0,0.0,0.0
789,1695809824438,0.5175781,0.78808594,0.049804688,7.9375,96.71875,-5.8125,0.0,0.0,0.0
790,1695809824469,0.5986328,0.81152344,-0.02734375,9.59375,80.1875,-9.40625,0.0,0.0,0.0
791,1695809824531,0.5527344,0.79589844,-0.059570312,-0.4375,58.8125,-14.71875,0.0,0.0,0.0
792,1695809824563,0.56152344,0.8154297,-0.05859375,-12.03125,47.46875,-25.90625,0.0,0.0,0.0
793,1695809824590,0.4189453,0.84277344,-0.037109375,-18.0,52.21875,-29.375,0.0,0.0,0.0
794,1695809824650,0.39453125,1.0615234,0.13867188,-11.59375,58.375,-20.78125,0.0,0.0,0.0
795,1695809824682,0.32714844,0.96875,-0.053710938,1.21875,64.5625,-8.625,0.0,0.0,0.0
796,1695809824711,0.6201172,0.92871094,-0.01171875,24.0625,88.1875,-4.65625,-20.6875,39.8125,-131.0
797,1695809824770,0.6328125,1.0029297,0.06347656,35.28125,50.5625,3.34375,0.0,0.0,0.0
798,1695809824802,0.54785156,1.1337891,0.15917969,56.75,9.5625,12.125,0.0,0.0,0.0
799,1695809824829,0.33203125,0.9453125,0.078125,88.75,-31.46875,12.3125,0.0,0.0,0.0
800,1695809824892,0.27929688,1.0693359,-0.10253906,112.4375,-33.84375,1.75,0.0,0.0,0.0
801,1695809824921,0.26953125,1.1357422,-0.07324219,116.6875,-6.0625,5.78125,0.0,0.0,0.0
802,1695809824952,0.33398438,1.0351562,-0.08300781,125.1875,-0.4375,6.625,0.0,0.0,0.0
803,1695809825017,0.4033203,0.9082031,-0.14941406,98.03125,-29.5,-13.375,0.0,0.0,0.0
804,1695809825041,0.390625,0.8730469,-0.28710938,73.25,-31.34375,-11.75,0.0,0.0,0.0
805,1695809825070,0.3095703,0.8105469,-0.31835938,63.40625,-46.09375,-6.5,0.0,0.0,0.0
806,1695809825131,0.22167969,0.6855469,-0.31445312,35.59375,-28.28125,-6.25,0.0,0.0,0.0
807,1695809825163,0.13574219,0.5361328,-0.28808594,-10.4375,-7.28125,-15.03125,0.0,0.0,0.0
808,1695809825190,0.17089844,0.5097656,-0.29492188,-45.34375,11.75,-22.59375,-24.75,38.4375,-153.1875
809,1695809825250,0.25097656,0.51660156,-0.36523438,-52.1875,38.5625,-17.0625,0.0,0.0,0.0
810,1695809825280,0.19433594,0.7441406,-0.46484375,-72.625,61.4375,-18.625,0.0,0.0,0.0
811,1695809825310,0.53222656,1.2294922,-0.5761719,-40.09375,7.125,-10.21875,0.0,0.0,0.0
812,1695809825370,0.5019531,1.0400391,-0.60253906,7.5625,-9.4375,3.28125,0.0,0.0,0.0
813,1695809825401,0.34472656,0.69628906,-0.56152344,17.28125,-28.78125,24.03125,0.0,0.0,0.0
814,1695809825429,0.076171875,1.1835938,-0.453125,-39.84375,-3.5625,19.625,0.0,0.0,0.0
815,1695809825490,0.21191406,1.4697266,-0.12792969,-14.65625,18.34375,-0.5,0.0,0.0,0.0
816,1695809825522,0.10058594,0.80078125,0.001953125,21.3125,38.5,12.84375,0.0,0.0,0.0
817,1695809825552,0.16699219,0.64453125,0.083984375,13.71875,61.6875,6.4375,0.0,0.0,0.0
818,1695809825613,0.67089844,1.2099609,0.020507812,-20.25,76.03125,6.15625,0.0,0.0,0.0
819,1695809825640,0.3359375,0.91503906,-0.087890625,-28.4375,82.25,20.25,0.0,0.0,0.0
820,1695809825671,0.359375,0.82910156,-0.028320312,-26.71875,59.125,8.28125,0.0,0.0,0.0
821,1695809825730,0.33007812,0.8886719,0.08203125,-28.3125,84.28125,9.3125,-19.625,38.75,-144.5
822,1695809825762,0.4169922,0.88671875,-0.049804688,-23.75,72.0625,-1.125,0.0,0.0,0.0
823,1695809825790,0.4638672,0.7949219,-0.015625,-14.28125,75.96875,-5.6875,0.0,0.0,0.0
824,1695809825851,0.51171875,0.78125,-0.013671875,-17.8125,63.625,-15.53125,0.0,0.0,0.0
825,1695809825880,0.49414062,0.82714844,-0.053710938,-24.28125,46.4375,-22.25,0.0,0.0,0.0
826,1695809825911,0.5449219,0.7763672,-0.03515625,-20.1875,41.90625,-33.53125,0.0,0.0,0.0
827,1695809825971,0.56347656,0.8300781,0.009765625,-24.84375,25.1875,-43.125,0.0,0.0,0.0
828,1695809826000,0.29003906,0.9980469,0.01171875,-33.625,12.5625,-31.09375,0.0,0.0,0.0
829,1695809826031,0.2861328,0.9951172,-0.0068359375,-17.03125,28.78125,-7.15625,0.0,0.0,0.0
830,1695809826096,0.46289062,1.0214844,-0.013671875,10.0625,49.40625,0.21875,0.0,0.0,0.0
831,1695809826120,0.77441406,1.1054688,0.11328125,36.0,26.34375,4.9375,0.0,0.0,0.0
832,1695809826151,0.5332031,1.1972656,0.14746094,56.34375,-31.34375,20.78125,0.0,0.0,0.0
833,1695809826209,0.1875,1.0302734,-0.27441406,87.53125,-68.625,22.125,-20.6875,40.25,-141.375
834,1695809826240,0.37109375,1.1582031,-0.033203125,104.96875,-65.875,5.71875,0.0,0.0,0.0
835,1695809826269,0.21777344,1.0488281,-0.07421875,105.40625,-52.9375,13.53125,0.0,0.0,0.0
836,1695809826328,0.3076172,1.0146484,-0.10839844,114.375,-41.84375,8.875,0.0,0.0,0.0
837,1695809826363,0.41015625,0.9042969,-0.1171875,96.75,-60.625,-3.3125,0.0,0.0,0.0
838,1695809826391,0.29589844,0.8574219,-0.22167969,66.21875,-64.21875,1.6875,0.0,0.0,0.0
839,1695809826450,0.21191406,0.7265625,-0.2607422,35.8125,-54.21875,1.3125,0.0,0.0,0.0
840,1695809826480,0.14941406,0.6435547,-0.28808594,-3.46875,-43.78125,-4.65625,0.0,0.0,0.0
841,1695809826509,0.10644531,0.54003906,-0.25097656,-36.75,-9.53125,-14.0625,0.0,0.0,0.0
842,1695809826571,0.18847656,0.5185547,-0.3076172,-46.625,16.03125,-11.4375,0.0,0.0,0.0
843,1695809826602,0.26953125,0.62890625,-0.3701172,-66.34375,30.90625,-15.03125,0.0,0.0,0.0
844,1695809826631,0.39941406,1.1494141,-0.5703125,-62.25,8.78125,-7.59375,0.0,0.0,0.0
845,1695809826691,0.4794922,1.2832031,-0.54296875,12.6875,-22.46875,4.0625,0.0,0.0,0.0
846,1695809826722,0.39453125,0.65527344,-0.57910156,17.34375,-48.25,16.21875,-25.8125,39.0625,-150.375
847,1695809826750,0.17480469,0.8466797,-0.51171875,-27.15625,-12.84375,39.59375,0.0,0.0,0.0
848,1695809826811,0.51953125,1.3447266,-0.125,-24.65625,14.75,24.875,0.0,0.0,0.0
849,1695809826839,0.17871094,1.1474609,-0.009765625,-13.78125,21.875,15.65625,0.0,0.0,0.0
850,1695809826868,0.099609375,0.6142578,-0.025390625,17.625,-2.09375,-15.84375,0.0,0.0,0.0
851,1695809826930,0.64941406,1.0595703,0.076171875,16.34375,64.125,-0.6875,0.0,0.0,0.0
852,1695809826960,0.52246094,1.0078125,-0.19726562,-37.46875,70.28125,29.34375,0.0,0.0,0.0
853,1695809826991,0.42578125,0.7763672,-0.046875,-44.6875,9.8125,14.75,0.0,0.0,0.0
854,1695809827050,0.3310547,0.80566406,0.056640625,-50.40625,19.5,6.8125,0.0,0.0,0.0
855,1695809827080,0.32910156,0.90722656,-0.056640625,-59.375,18.15625,-6.1875,0.0,0.0,0.0
856,1695809827111,0.43066406,0.85253906,-0.111328125,-39.71875,30.25,-5.5,0.0,0.0,0.0
857,1695809827170,0.421875,0.77734375,-0.016601562,-29.53125,28.125,-9.96875,0.0,0.0,0.0
858,1695809827202,0.49316406,0.7480469,-0.0146484375,-34.1875,16.03125,-19.375,-18.625,39.5,-142.875
859,1695809827231,0.390625,0.8544922,-0.068359375,-36.4375,13.59375,-27.125,0.0,0.0,0.0
860,1695809827289,0.35351562,0.93066406,-0.13867188,-36.8125,22.5625,-31.21875,0.0,0.0,0.0
861,1695809827319,0.4345703,0.9453125,0.044921875,-28.125,38.6875,-27.84375,0.0,0.0,0.0
862,1695809827350,0.5488281,0.8701172,0.009765625,-22.28125,24.21875,-14.25,0.0,0.0,0.0
863,1695809827411,0.5546875,1.046875,-0.08496094,4.09375,27.375,1.1875,0.0,0.0,0.0
864,1695809827441,0.7626953,1.0888672,0.046875,25.75,-12.46875,10.21875,0.0,0.0,0.0
865,1695809827469,0.44140625,1.1279297,0.140625,55.25,-71.1875,20.5,0.0,0.0,0.0
866,1695809827532,0.29785156,1.0693359,0.0078125,77.5625,-87.78125,17.5625,0.0,0.0,0.0
867,1695809827560,0.328125,1.2080078,-0.033203125,78.78125,-70.34375,11.75,0.0,0.0,0.0
868,1695809827589,0.24121094,1.1064453,-0.08496094,91.125,-59.90625,19.625,0.0,0.0,0.0
869,1695809827651,0.35058594,0.9863281,-0.10058594,83.625,-61.71875,6.875,0.0,0.0,0.0
870,1695809827681,0.28808594,0.81933594,-0.16308594,67.625,-67.71875,2.59375,0.0,0.0,0.0
871,1695809827711,0.28222656,0.78222656,-0.28515625,48.9375,-66.5625,10.0,-21.625,36.3125,-152.625
872,1695809827769,0.23046875,0.73046875,-0.22167969,15.9375,-66.90625,13.96875,0.0,0.0,0.0
873,1695809827801,0.1328125,0.609375,-0.20996094,-13.90625,-58.5,9.0625,0.0,0.0,0.0
874,1695809827831,0.07714844,0.64160156,-0.27929688,-32.21875,-19.4375,-0.375,0.0,0.0,0.0
875,1695809827892,0.16503906,0.6035156,-0.3125,-34.96875,14.9375,-3.5625,0.0,0.0,0.0
876,1695809827922,0.26367188,0.703125,-0.40039062,-49.75,28.46875,-9.46875,0.0,0.0,0.0
877,1695809827951,0.4736328,1.0478516,-0.609375,-49.5,7.3125,-6.90625,0.0,0.0,0.0
878,1695809828012,0.57128906,1.0693359,-0.578125,15.4375,-17.96875,4.9375,0.0,0.0,0.0
879,1695809828042,0.5673828,0.59765625,-0.53808594,4.875,-58.75,18.71875,0.0,0.0,0.0
880,1695809828071,0.22949219,0.7988281,-0.56347656,-37.59375,-50.875,36.59375,0.0,0.0,0.0
881,1695809828131,0.44140625,1.8046875,-0.23144531,-48.46875,-3.75,27.8125,0.0,0.0,0.0
882,1695809828162,-0.01171875,1.1611328,-0.009765625,6.40625,10.09375,10.84375,0.0,0.0,0.0
883,1695809828221,-0.08105469,0.54296875,-0.033203125,4.53125,8.34375,-4.28125,-23.375,39.9375,-145.6875
884,1695809828250,0.5654297,1.0742188,0.015625,14.53125,76.21875,9.3125,0.0,0.0,0.0
885,1695809828281,0.5390625,1.0693359,-0.09863281,-38.21875,100.5625,25.6875,0.0,0.0,0.0
886,1695809828310,0.29785156,0.8564453,-0.076171875,-35.28125,36.96875,3.53125,0.0,0.0,0.0
887,1695809828370,0.3330078,0.7871094,0.045898438,-43.59375,58.03125,7.125,0.0,0.0,0.0
888,1695809828398,0.40625,0.91308594,-0.01171875,-50.90625,56.6875,-6.125,0.0,0.0,0.0
889,1695809828429,0.42871094,0.8105469,-0.13671875,-37.84375,52.40625,-7.84375,0.0,0.0,0.0
890,1695809828490,0.4248047,0.7529297,0.0078125,-32.21875,47.78125,-13.03125,0.0,0.0,0.0
891,1695809828522,0.45214844,0.80566406,0.0068359375,-37.40625,42.46875,-24.9375,0.0,0.0,0.0
892,1695809828551,0.46191406,0.8222656,-0.083984375,-32.59375,36.15625,-34.25,0.0,0.0,0.0
893,1695809828616,0.57128906,0.8691406,-0.061523438,-29.59375,40.25,-35.65625,0.0,0.0,0.0
894,1695809828642,0.5888672,0.89160156,0.024414062,-32.09375,28.84375,-22.125,0.0,0.0,0.0
895,1695809828671,0.54003906,0.8964844,0.00390625,-10.75,6.875,-2.59375,0.0,0.0,0.0
896,1695809828735,0.4345703,1.1376953,0.059570312,30.15625,1.9375,9.375,-19.9375,40.25,-137.0
897,1695809828762,0.47753906,1.1083984,0.10253906,69.09375,-40.625,18.78125,0.0,0.0,0.0
898,1695809828788,0.18066406,1.2470703,-0.017578125,97.78125,-51.84375,30.5625,0.0,0.0,0.0
899,1695809828847,0.32617188,1.2109375,0.00390625,100.65625,-38.15625,15.53125,0.0,0.0,0.0
900,1695809828878,0.2529297,1.0898438,-0.1328125,106.375,-24.8125,16.53125,0.0,0.0,0.0
901,1695809828907,0.25390625,1.0253906,-0.15332031,104.625,-25.34375,4.4375,0.0,0.0,0.0
