,timestamp,accel_x,accel_y,accel_z,gyro_x,gyro_y,gyro_z,mag_x,mag_y,mag_z,ind
0,1695809541899,0.31933594,0.9248047,-0.11425781,-0.0625,-0.34375,0.28125,0.0,0.0,0.0,0
1,1695809541939,0.31445312,0.9316406,-0.123046875,-0.125,-0.03125,0.03125,0.0,0.0,0.0,1
2,1695809541979,0.31152344,0.9160156,-0.12207031,0.375,0.21875,0.03125,0.0,0.0,0.0,2
3,1695809542019,0.3125,0.92089844,-0.119140625,0.125,0.46875,-0.09375,0.0,0.0,0.0,3
4,1695809542059,0.3173828,0.9316406,-0.12402344,0.125,0.03125,-0.03125,0.0,0.0,0.0,4
5,1695809542099,0.31640625,0.92285156,-0.12207031,-0.34375,-0.5,-0.03125,0.0,0.0,0.0,5
6,1695809542139,0.31445312,0.92871094,-0.12207031,-0.3125,-0.40625,0.21875,0.0,0.0,0.0,6
7,1695809542179,0.3173828,0.9238281,-0.125,0.3125,-0.15625,0.03125,0.0,0.0,0.0,7
8,1695809542219,0.31347656,0.9248047,-0.13378906,-0.125,-0.40625,0.15625,-14.125,37.0625,-136.375,8
9,1695809542259,0.3076172,0.9248047,-0.125,-0.0625,-0.09375,-0.15625,0.0,0.0,0.0,9
10,1695809542299,0.31445312,0.9345703,-0.13378906,-0.0625,0.09375,0.15625,0.0,0.0,0.0,10
11,1695809542339,0.3251953,0.92285156,-0.13085938,-0.0625,-0.625,0.03125,0.0,0.0,0.0,11
12,1695809542379,0.31347656,0.91796875,-0.13183594,-0.78125,-1.84375,0.21875,0.0,0.0,0.0,12
13,1695809542419,0.31054688,0.9238281,-0.12597656,-0.78125,-1.78125,0.28125,0.0,0.0,0.0,13
14,1695809542459,0.31152344,0.92871094,-0.12988281,-0.3125,-1.0,0.40625,0.0,0.0,0.0,14
15,1695809542499,0.31347656,0.9267578,-0.12207031,-0.0625,-1.0625,0.21875,0.0,0.0,0.0,15
16,1695809542539,0.32421875,0.9248047,-0.12597656,-0.3125,-0.9375,0.28125,0.0,0.0,0.0,16
17,1695809542579,0.31152344,0.9267578,-0.11425781,-0.71875,-0.4375,0.09375,0.0,0.0,0.0,17
18,1695809542619,0.32421875,0.9267578,-0.119140625,0.0625,0.28125,0.03125,0.0,0.0,0.0,18
19,1695809542659,0.3203125,0.93359375,-0.14648438,-0.53125,-0.40625,-0.21875,0.0,0.0,0.0,19
20,1695809542699,0.3232422,0.9277344,-0.125,-0.40625,-0.625,0.09375,-14.25,36.9375,-136.25,20
21,1695809542739,0.31933594,0.9267578,-0.12988281,-0.25,-0.8125,-0.03125,0.0,0.0,0.0,21
22,1695809542779,0.31445312,0.9277344,-0.125,0.25,-0.40625,-0.21875,0.0,0.0,0.0,22
23,1695809542819,0.30859375,0.9267578,-0.12109375,0.3125,0.34375,-0.15625,0.0,0.0,0.0,23
24,1695809542859,0.32617188,0.9199219,-0.13085938,0.1875,0.78125,-0.5625,0.0,0.0,0.0,24
25,1695809542899,0.31933594,0.9345703,-0.12402344,-0.1875,0.59375,-0.34375,0.0,0.0,0.0,25
26,1695809542939,0.31640625,0.9345703,-0.13378906,0.75,0.21875,-0.21875,0.0,0.0,0.0,26
27,1695809542979,0.30859375,0.9160156,-0.12792969,1.09375,0.65625,-0.09375,0.0,0.0,0.0,27
28,1695809543019,0.30859375,0.9375,-0.119140625,0.4375,0.03125,-0.03125,0.0,0.0,0.0,28
29,1695809543059,0.31152344,0.9267578,-0.123046875,0.5,0.46875,-0.21875,0.0,0.0,0.0,29
30,1695809543099,0.3125,0.92089844,-0.13769531,0.3125,0.21875,-0.40625,0.0,0.0,0.0,30
31,1695809543139,0.31347656,0.93359375,-0.1328125,-0.40625,-0.34375,-0.15625,0.0,0.0,0.0,31
32,1695809543179,0.31054688,0.9267578,-0.12109375,-0.1875,-0.40625,0.21875,0.0,0.0,0.0,32
33,1695809543219,0.3173828,0.93652344,-0.12597656,0.3125,0.34375,-0.03125,-13.8125,36.8125,-135.375,33
34,1695809543259,0.3154297,0.9277344,-0.125,0.6875,0.78125,0.03125,0.0,0.0,0.0,34
35,1695809543299,0.32226562,0.9267578,-0.13378906,0.0,-0.15625,-0.03125,0.0,0.0,0.0,35
36,1695809543339,0.31054688,0.9326172,-0.12988281,-0.40625,0.34375,-0.21875,0.0,0.0,0.0,36
37,1695809543379,0.3173828,0.92578125,-0.119140625,0.6875,0.875,-0.03125,0.0,0.0,0.0,37
38,1695809543419,0.30664062,0.9199219,-0.13085938,0.1875,0.46875,-0.15625,0.0,0.0,0.0,38
39,1695809543459,0.31933594,0.9199219,-0.12011719,0.0625,0.46875,0.03125,0.0,0.0,0.0,39
40,1695809543499,0.31640625,0.9277344,-0.13085938,0.125,0.21875,-0.03125,0.0,0.0,0.0,40
41,1695809543539,0.3173828,0.9189453,-0.12695312,-0.3125,-0.4375,-0.28125,0.0,0.0,0.0,41
42,1695809543579,0.3173828,0.93066406,-0.12695312,-0.0625,0.34375,-0.09375,0.0,0.0,0.0,42
43,1695809543619,0.31640625,0.9238281,-0.1171875,0.5,0.09375,0.09375,0.0,0.0,0.0,43
44,1695809543659,0.31152344,0.9277344,-0.12695312,0.0625,-0.34375,0.03125,0.0,0.0,0.0,44
45,1695809543699,0.3125,0.9267578,-0.13378906,-0.34375,-0.6875,-0.21875,-12.125,37.25,-135.5,45
46,1695809543739,0.31640625,0.92578125,-0.13378906,-0.1875,0.09375,-0.09375,0.0,0.0,0.0,46
47,1695809543779,0.32421875,0.9199219,-0.12988281,-0.0625,0.34375,-0.15625,0.0,0.0,0.0,47
48,1695809543819,0.30859375,0.92578125,-0.11816406,-0.65625,-0.03125,-0.40625,0.0,0.0,0.0,48
49,1695809543859,0.3125,0.9296875,-0.12597656,-0.84375,-0.5625,-0.40625,0.0,0.0,0.0,49
50,1695809543899,0.31152344,0.921875,-0.12792969,-0.34375,0.03125,-0.21875,0.0,0.0,0.0,50
51,1695809543939,0.31347656,0.9296875,-0.12011719,-0.59375,-0.15625,-0.34375,0.0,0.0,0.0,51
52,1695809543979,0.31347656,0.9238281,-0.12109375,-0.90625,-0.4375,-0.40625,0.0,0.0,0.0,52
53,1695809544019,0.3203125,0.92578125,-0.12207031,-1.03125,-0.09375,-0.21875,0.0,0.0,0.0,53
54,1695809544059,0.31152344,0.92578125,-0.12597656,-0.71875,-0.03125,-0.28125,0.0,0.0,0.0,54
55,1695809544099,0.32421875,0.93359375,-0.12695312,-0.59375,-0.03125,-0.28125,0.0,0.0,0.0,55
56,1695809544139,0.3173828,0.92578125,-0.123046875,-0.71875,-0.625,-0.03125,0.0,0.0,0.0,56
57,1695809544179,0.30566406,0.93359375,-0.12597656,0.0625,0.03125,0.03125,0.0,0.0,0.0,57
58,1695809544219,0.31640625,0.9316406,-0.119140625,-0.125,-0.75,-0.03125,-13.0625,37.8125,-135.625,58
59,1695809544259,0.3203125,0.9267578,-0.109375,-0.78125,-1.0,-0.09375,0.0,0.0,0.0,59
60,1695809544299,0.3154297,0.9277344,-0.12207031,-0.25,-0.625,-0.09375,0.0,0.0,0.0,60
61,1695809544339,0.3125,0.9345703,-0.11328125,0.125,0.03125,-0.15625,0.0,0.0,0.0,61
62,1695809544379,0.30859375,0.91796875,-0.12402344,0.25,0.28125,-0.21875,0.0,0.0,0.0,62
63,1695809544419,0.31640625,0.9189453,-0.12597656,-0.125,0.21875,-0.09375,0.0,0.0,0.0,63
64,1695809544459,0.31152344,0.92089844,-0.12695312,-0.40625,-0.28125,-0.46875,0.0,0.0,0.0,64
65,1695809544499,0.3173828,0.921875,-0.123046875,0.1875,0.34375,-0.09375,0.0,0.0,0.0,65
66,1695809544539,0.31054688,0.9238281,-0.12402344,0.5625,0.21875,-0.03125,0.0,0.0,0.0,66
67,1695809544579,0.30566406,0.9238281,-0.10546875,0.1875,-0.09375,-0.09375,0.0,0.0,0.0,67
68,1695809544619,0.3173828,0.92578125,-0.12792969,-0.25,-0.21875,-0.21875,0.0,0.0,0.0,68
69,1695809544659,0.3154297,0.92285156,-0.11425781,0.1875,0.09375,-0.09375,0.0,0.0,0.0,69
70,1695809544699,0.31933594,0.9267578,-0.12011719,0.3125,0.15625,-0.15625,-13.375,37.0625,-135.375,70
71,1695809544739,0.32226562,0.921875,-0.1328125,-0.0625,0.03125,0.03125,0.0,0.0,0.0,71
72,1695809544779,0.3154297,0.9277344,-0.125,-0.40625,0.09375,-0.03125,0.0,0.0,0.0,72
73,1695809544819,0.30371094,0.9375,-0.12011719,-0.0625,-0.15625,-0.09375,0.0,0.0,0.0,73
74,1695809544859,0.31640625,0.921875,-0.12109375,0.25,0.03125,0.03125,0.0,0.0,0.0,74
75,1695809544899,0.3076172,0.9248047,-0.119140625,-0.84375,-0.875,-0.09375,0.0,0.0,0.0,75
76,1695809544939,0.31347656,0.9316406,-0.12109375,-0.46875,-0.21875,-0.15625,0.0,0.0,0.0,76
77,1695809544979,0.3154297,0.9326172,-0.11425781,0.375,0.28125,-0.15625,0.0,0.0,0.0,77
78,1695809545019,0.31054688,0.9355469,-0.12402344,-0.0625,-0.21875,-0.09375,0.0,0.0,0.0,78
79,1695809545059,0.30859375,0.92285156,-0.12207031,-0.1875,-0.15625,-0.15625,0.0,0.0,0.0,79
80,1695809545099,0.31054688,0.92578125,-0.125,-0.0625,-0.21875,-0.21875,0.0,0.0,0.0,80
81,1695809545139,0.3095703,0.9199219,-0.111328125,0.0625,0.03125,-0.21875,0.0,0.0,0.0,81
82,1695809545179,0.32421875,0.9199219,-0.119140625,-0.59375,-0.09375,-0.15625,0.0,0.0,0.0,82
83,1695809545219,0.31640625,0.9296875,-0.11816406,-0.40625,-0.40625,-0.34375,-13.1875,36.9375,-136.5625,83
84,1695809545259,0.31347656,0.9277344,-0.11035156,0.0,0.28125,0.03125,0.0,0.0,0.0,84
85,1695809545299,0.31347656,0.93847656,-0.12988281,0.0625,0.21875,0.09375,0.0,0.0,0.0,85
86,1695809545339,0.3076172,0.9267578,-0.12011719,0.3125,-0.03125,-0.03125,0.0,0.0,0.0,86
87,1695809545379,0.3095703,0.9277344,-0.12402344,0.25,-0.28125,0.03125,0.0,0.0,0.0,87
88,1695809545419,0.31445312,0.9375,-0.1171875,0.0,-1.1875,0.03125,0.0,0.0,0.0,88
89,1695809545459,0.31152344,0.93359375,-0.119140625,0.3125,-0.75,0.21875,0.0,0.0,0.0,89
90,1695809545499,0.31347656,0.9355469,-0.11328125,-0.34375,-0.21875,-0.21875,0.0,0.0,0.0,151
91,1695809545539,0.31445312,0.9345703,-0.11035156,-0.59375,-0.15625,-0.03125,0.0,0.0,0.0,152
92,1695809545579,0.30859375,0.9326172,-0.119140625,-0.25,0.09375,-0.34375,0.0,0.0,0.0,153
93,1695809545619,0.3251953,0.9238281,-0.119140625,-0.25,0.03125,-0.34375,0.0,0.0,0.0,154
94,1695809545659,0.31152344,0.9277344,-0.12109375,-0.46875,-0.09375,-0.21875,0.0,0.0,0.0,155
95,1695809545699,0.30566406,0.9326172,-0.111328125,-0.46875,-0.03125,-0.40625,0.0,0.0,0.0,156
96,1695809545739,0.32128906,0.9355469,-0.12695312,-0.1875,-0.34375,-0.34375,0.0,0.0,0.0,157
97,1695809545779,0.3173828,0.9277344,-0.11328125,0.375,0.21875,-0.21875,-13.8125,37.5625,-134.75,158
98,1695809545819,0.31640625,0.9296875,-0.123046875,0.0625,0.09375,-0.03125,0.0,0.0,0.0,159
99,1695809545859,0.3125,0.9277344,-0.10546875,-0.1875,0.09375,-0.40625,0.0,0.0,0.0,160
100,1695809545899,0.3154297,0.9375,-0.119140625,-0.25,0.03125,-0.03125,0.0,0.0,0.0,161
101,1695809545939,0.31054688,0.93847656,-0.12597656,-0.1875,-0.5625,0.15625,0.0,0.0,0.0,162
102,1695809545979,0.30371094,0.9345703,-0.10546875,0.0625,-0.5,0.15625,0.0,0.0,0.0,163
103,1695809546019,0.3046875,0.9248047,-0.12207031,-0.3125,-0.21875,0.21875,0.0,0.0,0.0,164
104,1695809546059,0.3154297,0.9326172,-0.11425781,0.3125,0.15625,-0.15625,0.0,0.0,0.0,165
105,1695809546099,0.2998047,0.9267578,-0.11816406,0.125,0.65625,-0.21875,0.0,0.0,0.0,166
106,1695809546139,0.30859375,0.9248047,-0.115234375,0.3125,0.84375,-0.34375,0.0,0.0,0.0,167
107,1695809546179,0.31152344,0.93359375,-0.10253906,0.25,0.65625,-0.21875,0.0,0.0,0.0,168
108,1695809546219,0.3154297,0.92285156,-0.12109375,0.1875,0.28125,-0.34375,0.0,0.0,0.0,169
109,1695809546259,0.31054688,0.92285156,-0.11230469,0.5,0.15625,0.03125,-13.0625,37.5625,-135.375,170
110,1695809546299,0.31152344,0.93652344,-0.119140625,0.4375,0.46875,-0.21875,0.0,0.0,0.0,171
111,1695809546339,0.31347656,0.9277344,-0.12109375,0.1875,0.59375,-0.34375,0.0,0.0,0.0,172
112,1695809546379,0.3017578,0.9248047,-0.125,0.375,0.65625,-0.03125,0.0,0.0,0.0,173
113,1695809546419,0.2998047,0.9326172,-0.12792969,0.375,0.09375,0.03125,0.0,0.0,0.0,174
114,1695809546459,0.30566406,0.92871094,-0.12207031,0.25,0.28125,-0.21875,0.0,0.0,0.0,175
115,1695809546499,0.31054688,0.9423828,-0.12597656,-0.0625,-0.28125,-0.21875,0.0,0.0,0.0,176
116,1695809546539,0.30664062,0.9238281,-0.12207031,-0.0625,-0.09375,-0.15625,0.0,0.0,0.0,177
117,1695809546579,0.31152344,0.9316406,-0.111328125,0.0625,-0.40625,0.03125,0.0,0.0,0.0,178
118,1695809546619,0.3125,0.921875,-0.11621094,0.125,0.03125,0.03125,0.0,0.0,0.0,179
119,1695809546659,0.31933594,0.9316406,-0.12207031,-0.3125,-0.34375,-0.03125,0.0,0.0,0.0,180
120,1695809546699,0.31152344,0.94433594,-0.11816406,-0.25,-0.15625,-0.03125,0.0,0.0,0.0,181
121,1695809546739,0.3173828,0.9169922,-0.119140625,0.125,-0.40625,-0.15625,0.0,0.0,0.0,182
122,1695809546779,0.30664062,0.9248047,-0.12109375,-0.3125,-0.8125,-0.15625,-13.375,37.5625,-136.125,183
123,1695809546819,0.31445312,0.9316406,-0.11230469,-0.25,-0.34375,0.09375,0.0,0.0,0.0,184
124,1695809546859,0.30566406,0.93652344,-0.11425781,-0.0625,-0.4375,0.09375,0.0,0.0,0.0,185
125,1695809546899,0.3095703,0.92089844,-0.11621094,0.1875,-0.09375,-0.03125,0.0,0.0,0.0,186
126,1695809546939,0.3154297,0.92578125,-0.11816406,0.0625,-0.03125,0.21875,0.0,0.0,0.0,187
127,1695809546979,0.31835938,0.9345703,-0.11621094,0.125,-0.28125,0.40625,0.0,0.0,0.0,188
128,1695809547019,0.3154297,0.93652344,-0.119140625,0.5,-0.09375,0.09375,0.0,0.0,0.0,189
129,1695809547059,0.3095703,0.9316406,-0.11816406,0.0625,0.03125,0.15625,0.0,0.0,0.0,190
130,1695809547099,0.30664062,0.93066406,-0.125,0.375,0.34375,0.21875,0.0,0.0,0.0,191
131,1695809547139,0.31640625,0.9296875,-0.119140625,0.25,0.40625,0.03125,0.0,0.0,0.0,192
132,1695809547179,0.30566406,0.92578125,-0.111328125,-0.0625,-0.21875,-0.03125,0.0,0.0,0.0,193
133,1695809547219,0.31054688,0.93066406,-0.111328125,0.125,0.40625,0.09375,0.0,0.0,0.0,194
134,1695809547259,0.30859375,0.9277344,-0.12890625,0.0625,0.15625,-0.03125,-12.4375,38.4375,-135.9375,195
135,1695809547299,0.31835938,0.92578125,-0.11425781,0.125,0.15625,-0.15625,0.0,0.0,0.0,196
136,1695809547339,0.30859375,0.9199219,-0.13769531,0.3125,0.28125,0.09375,0.0,0.0,0.0,197
137,1695809547379,0.3076172,0.9296875,-0.11328125,-0.1875,-0.75,0.09375,0.0,0.0,0.0,198
138,1695809547419,0.31152344,0.9248047,-0.11425781,-0.0625,-0.40625,-0.21875,0.0,0.0,0.0,199
139,1695809547459,0.3154297,0.9326172,-0.13183594,-0.1875,-0.34375,0.03125,0.0,0.0,0.0,200
140,1695809547499,0.31152344,0.9189453,-0.12109375,0.0625,0.21875,0.03125,0.0,0.0,0.0,201
141,1695809547539,0.31445312,0.92285156,-0.111328125,0.0,0.34375,-0.09375,0.0,0.0,0.0,202
142,1695809547579,0.30859375,0.92578125,-0.11328125,-0.34375,-0.40625,-0.34375,0.0,0.0,0.0,203
143,1695809547619,0.31054688,0.9345703,-0.12207031,-0.125,-0.21875,-0.15625,0.0,0.0,0.0,204
144,1695809547659,0.3125,0.9277344,-0.1171875,-0.3125,-0.09375,-0.28125,0.0,0.0,0.0,205
145,1695809547699,0.3154297,0.93652344,-0.109375,-0.25,-0.03125,-0.28125,0.0,0.0,0.0,206
146,1695809547739,0.3125,0.9277344,-0.12109375,-0.3125,0.09375,-0.34375,0.0,0.0,0.0,207
147,1695809547779,0.31445312,0.93847656,-0.10839844,-0.0625,-0.03125,-0.21875,-12.0,36.8125,-135.0625,208
148,1695809547819,0.30566406,0.93359375,-0.12792969,-0.0625,-0.28125,-0.15625,0.0,0.0,0.0,209
149,1695809547859,0.31445312,0.93359375,-0.13085938,-0.125,-0.4375,0.03125,0.0,0.0,0.0,210
150,1695809547899,0.30664062,0.9296875,-0.11328125,-0.34375,-0.8125,-0.15625,0.0,0.0,0.0,211
151,1695809547939,0.30664062,0.92871094,-0.11816406,-0.1875,-0.21875,-0.28125,0.0,0.0,0.0,212
152,1695809547979,0.31933594,0.9316406,-0.099609375,0.1875,0.40625,-0.21875,0.0,0.0,0.0,213
153,1695809548019,0.31640625,0.9267578,-0.13183594,0.0625,0.65625,-0.21875,0.0,0.0,0.0,214
154,1695809548059,0.31445312,0.92871094,-0.1171875,0.125,0.875,-0.09375,0.0,0.0,0.0,215
155,1695809548099,0.31054688,0.9267578,-0.125,0.4375,0.40625,-0.03125,0.0,0.0,0.0,216
156,1695809548139,0.31347656,0.9267578,-0.111328125,0.5,-0.40625,0.03125,0.0,0.0,0.0,217
157,1695809548179,0.30371094,0.9277344,-0.12207031,0.5625,0.40625,0.28125,0.0,0.0,0.0,218
158,1695809548219,0.30859375,0.91796875,-0.12109375,0.5625,0.09375,-0.15625,0.0,0.0,0.0,219
159,1695809548259,0.3125,0.92871094,-0.111328125,0.375,0.53125,-0.15625,-13.5,37.25,-135.5,220
160,1695809548299,0.30273438,0.9345703,-0.12890625,0.5,0.28125,-0.09375,0.0,0.0,0.0,221
161,1695809548339,0.31445312,0.92089844,-0.1171875,0.0625,0.15625,-0.15625,0.0,0.0,0.0,222
162,1695809548379,0.31640625,0.9345703,-0.12109375,-0.34375,-0.5625,-0.09375,0.0,0.0,0.0,223
163,1695809548419,0.3125,0.9394531,-0.123046875,-0.34375,-0.6875,-0.03125,0.0,0.0,0.0,224
164,1695809548459,0.3095703,0.9326172,-0.12109375,0.25,-0.09375,0.03125,0.0,0.0,0.0,225
165,1695809548499,0.31152344,0.9355469,-0.119140625,0.125,-0.21875,-0.28125,0.0,0.0,0.0,226
166,1695809548539,0.30859375,0.92871094,-0.11035156,0.0,0.15625,-0.03125,0.0,0.0,0.0,227
167,1695809548579,0.30859375,0.9296875,-0.11621094,-0.0625,-0.34375,0.03125,0.0,0.0,0.0,228
168,1695809548619,0.3173828,0.9316406,-0.1171875,0.25,-0.15625,-0.09375,0.0,0.0,0.0,229
169,1695809548659,0.32226562,0.9277344,-0.11328125,0.1875,0.15625,-0.03125,0.0,0.0,0.0,230
170,1695809548699,0.3154297,0.93652344,-0.11621094,0.375,0.09375,0.15625,0.0,0.0,0.0,231
171,1695809548739,0.30566406,0.9345703,-0.12109375,0.625,0.09375,-0.03125,0.0,0.0,0.0,232
172,1695809548779,0.30566406,0.9345703,-0.123046875,1.09375,1.0625,0.09375,-13.0625,38.125,-134.75,233
173,1695809548819,0.3095703,0.9326172,-0.111328125,0.9375,0.71875,0.03125,0.0,0.0,0.0,234
174,1695809548859,0.31152344,0.9267578,-0.11425781,0.5625,0.84375,0.21875,0.0,0.0,0.0,235
175,1695809548899,0.30664062,0.9296875,-0.123046875,0.0625,0.15625,-0.21875,0.0,0.0,0.0,236
176,1695809548939,0.31347656,0.92285156,-0.12207031,0.3125,0.09375,-0.03125,0.0,0.0,0.0,237
177,1695809548979,0.3203125,0.92578125,-0.12792969,-0.0625,-0.09375,-0.15625,0.0,0.0,0.0,238
178,1695809549019,0.3125,0.9248047,-0.12207031,-0.40625,-0.15625,-0.03125,0.0,0.0,0.0,239
179,1695809549059,0.31445312,0.9277344,-0.13378906,-0.125,0.59375,0.03125,0.0,0.0,0.0,240
180,1695809549099,0.31445312,0.92871094,-0.12207031,0.5625,0.59375,-0.34375,0.0,0.0,0.0,241
181,1695809549139,0.31933594,0.92285156,-0.12988281,0.875,0.53125,0.15625,0.0,0.0,0.0,242
182,1695809549179,0.3232422,0.92285156,-0.12695312,-0.1875,-0.21875,0.03125,0.0,0.0,0.0,243
183,1695809549219,0.30859375,0.9248047,-0.125,-0.0625,-0.4375,-0.09375,0.0,0.0,0.0,244
184,1695809549259,0.3154297,0.9355469,-0.12988281,-0.53125,-1.25,-0.15625,-14.375,37.8125,-135.625,245
185,1695809549299,0.31152344,0.9238281,-0.11816406,-0.53125,-0.875,0.03125,0.0,0.0,0.0,246
186,1695809549339,0.31054688,0.9355469,-0.119140625,-0.34375,-0.34375,-0.21875,0.0,0.0,0.0,247
187,1695809549379,0.30664062,0.9296875,-0.12988281,0.1875,0.03125,-0.40625,0.0,0.0,0.0,248
188,1695809549419,0.31835938,0.92871094,-0.115234375,0.125,0.53125,-0.21875,0.0,0.0,0.0,249
189,1695809549459,0.3173828,0.92871094,-0.103515625,-0.34375,0.09375,-0.34375,0.0,0.0,0.0,250
190,1695809549499,0.3125,0.9296875,-0.12011719,-0.53125,0.46875,-0.34375,0.0,0.0,0.0,251
191,1695809549539,0.31152344,0.9277344,-0.12695312,-0.0625,-0.09375,-0.40625,0.0,0.0,0.0,252
192,1695809549579,0.3173828,0.9267578,-0.107421875,0.0,-0.09375,-0.09375,0.0,0.0,0.0,253
193,1695809549619,0.31445312,0.9355469,-0.11425781,-0.40625,-0.40625,0.09375,0.0,0.0,0.0,254
194,1695809549659,0.2998047,0.9375,-0.10449219,-0.3125,-0.5,-0.15625,0.0,0.0,0.0,255
195,1695809549699,0.31054688,0.93066406,-0.11328125,-0.40625,-0.28125,-0.40625,0.0,0.0,0.0,256
196,1695809549739,0.30371094,0.92285156,-0.11328125,0.0625,-0.28125,-0.21875,0.0,0.0,0.0,257
197,1695809549779,0.31445312,0.9326172,-0.12109375,-0.25,-0.40625,0.03125,-13.1875,36.1875,-135.1875,258
198,1695809549819,0.31933594,0.9267578,-0.11425781,-0.59375,-0.75,0.03125,0.0,0.0,0.0,259
199,1695809549859,0.3173828,0.9316406,-0.11035156,0.0625,-0.75,-0.09375,0.0,0.0,0.0,260
200,1695809549899,0.3154297,0.93652344,-0.12109375,0.3125,-0.5625,0.15625,0.0,0.0,0.0,261
201,1695809549939,0.3095703,0.9199219,-0.123046875,0.4375,-0.8125,0.15625,0.0,0.0,0.0,262
202,1695809549979,0.3046875,0.9267578,-0.107421875,0.1875,-0.09375,0.15625,0.0,0.0,0.0,263
203,1695809550019,0.31054688,0.9326172,-0.11425781,0.0625,-0.03125,0.03125,0.0,0.0,0.0,264
204,1695809550059,0.30371094,0.93066406,-0.11425781,0.0625,0.46875,-0.09375,0.0,0.0,0.0,265
205,1695809550099,0.31054688,0.93359375,-0.11621094,0.3125,0.875,-0.34375,0.0,0.0,0.0,266
206,1695809550139,0.3125,0.9267578,-0.119140625,0.1875,0.65625,-0.15625,0.0,0.0,0.0,267
207,1695809550179,0.31054688,0.92871094,-0.12207031,0.3125,1.0,-0.28125,0.0,0.0,0.0,268
208,1695809550219,0.31347656,0.9404297,-0.119140625,0.1875,0.71875,-0.21875,0.0,0.0,0.0,269
209,1695809550259,0.31445312,0.9326172,-0.11328125,0.625,0.59375,-0.09375,-13.1875,39.0625,-134.125,270
210,1695809550299,0.31054688,0.93359375,-0.123046875,-0.0625,-0.09375,0.03125,0.0,0.0,0.0,271
211,1695809550339,0.31152344,0.9296875,-0.11328125,-0.125,-0.28125,-0.03125,0.0,0.0,0.0,272
212,1695809550379,0.3095703,0.9238281,-0.12695312,0.1875,-0.21875,-0.15625,0.0,0.0,0.0,273
213,1695809550419,0.31445312,0.91308594,-0.11230469,0.125,0.03125,0.03125,0.0,0.0,0.0,274
214,1695809550459,0.3076172,0.9277344,-0.12109375,-0.0625,-0.09375,0.03125,0.0,0.0,0.0,275
215,1695809550499,0.3173828,0.9375,-0.11425781,0.0,0.03125,-0.09375,0.0,0.0,0.0,276
216,1695809550539,0.3173828,0.93359375,-0.12207031,-0.0625,-0.09375,-0.09375,0.0,0.0,0.0,277
217,1695809550579,0.30566406,0.9345703,-0.119140625,0.1875,-0.03125,0.03125,0.0,0.0,0.0,278
218,1695809550619,0.3154297,0.93066406,-0.13085938,0.0625,-0.21875,0.03125,0.0,0.0,0.0,279
219,1695809550659,0.31640625,0.9316406,-0.12011719,-0.125,-0.34375,-0.15625,0.0,0.0,0.0,280
220,1695809550699,0.31640625,0.92578125,-0.103515625,-0.125,-0.21875,0.03125,0.0,0.0,0.0,281
221,1695809550739,0.30859375,0.9326172,-0.12109375,0.0625,0.21875,-0.09375,0.0,0.0,0.0,282
222,1695809550779,0.31347656,0.93652344,-0.12597656,-0.0625,0.09375,-0.03125,-13.8125,37.0625,-135.625,283
223,1695809550819,0.30859375,0.93066406,-0.10644531,0.125,0.09375,-0.09375,0.0,0.0,0.0,284
224,1695809550859,0.30664062,0.92578125,-0.12109375,0.1875,0.21875,-0.09375,0.0,0.0,0.0,285
225,1695809550899,0.30859375,0.9238281,-0.12109375,0.3125,0.28125,-0.21875,0.0,0.0,0.0,286
226,1695809550939,0.30566406,0.9296875,-0.12109375,0.3125,0.46875,-0.03125,0.0,0.0,0.0,287
227,1695809550979,0.3125,0.92285156,-0.11621094,0.0625,0.28125,-0.15625,0.0,0.0,0.0,288
228,1695809551019,0.31054688,0.9267578,-0.10546875,0.1875,0.34375,-0.15625,0.0,0.0,0.0,289
229,1695809551059,0.31347656,0.92578125,-0.12109375,0.1875,0.40625,-0.15625,0.0,0.0,0.0,290
230,1695809551099,0.3173828,0.9326172,-0.12402344,0.625,0.03125,-0.03125,0.0,0.0,0.0,291
231,1695809551139,0.30078125,0.93066406,-0.12597656,0.25,0.09375,0.03125,0.0,0.0,0.0,292
232,1695809551179,0.31054688,0.92871094,-0.12402344,0.0625,0.03125,-0.09375,0.0,0.0,0.0,293
233,1695809551219,0.30859375,0.9326172,-0.11230469,0.4375,0.28125,-0.03125,0.0,0.0,0.0,294
234,1695809551259,0.31054688,0.9277344,-0.12792969,0.75,0.46875,0.15625,-13.5,38.0,-134.875,295
235,1695809551299,0.3154297,0.9277344,-0.11816406,0.4375,0.46875,-0.21875,0.0,0.0,0.0,296
236,1695809551339,0.31347656,0.9345703,-0.12011719,0.0,0.28125,-0.15625,0.0,0.0,0.0,297
237,1695809551379,0.31933594,0.9238281,-0.12402344,0.25,-0.09375,0.03125,0.0,0.0,0.0,298
238,1695809551419,0.3154297,0.92578125,-0.12207031,-0.0625,-0.09375,-0.15625,0.0,0.0,0.0,299
239,1695809551459,0.31054688,0.9326172,-0.125,-0.0625,0.09375,-0.28125,0.0,0.0,0.0,300
240,1695809551499,0.31152344,0.9277344,-0.115234375,0.25,-0.03125,0.03125,0.0,0.0,0.0,301
241,1695809551539,0.30664062,0.9277344,-0.11425781,0.0625,-0.15625,0.03125,0.0,0.0,0.0,302
242,1695809551579,0.31054688,0.9277344,-0.119140625,-0.1875,-0.21875,-0.21875,0.0,0.0,0.0,303
243,1695809551619,0.3154297,0.93359375,-0.12109375,0.0,-0.28125,-0.15625,0.0,0.0,0.0,304
244,1695809551659,0.3154297,0.9267578,-0.11816406,-0.0625,0.09375,-0.21875,0.0,0.0,0.0,305
245,1695809551699,0.31152344,0.9296875,-0.11621094,-0.125,-0.03125,-0.28125,0.0,0.0,0.0,306
246,1695809551739,0.30859375,0.92089844,-0.115234375,0.375,0.65625,-0.21875,0.0,0.0,0.0,307
247,1695809551779,0.31347656,0.92578125,-0.12207031,0.1875,0.28125,-0.34375,-13.8125,37.8125,-134.75,308
248,1695809551819,0.3173828,0.9277344,-0.115234375,0.0,0.71875,-0.46875,0.0,0.0,0.0,309
249,1695809551859,0.3154297,0.9375,-0.12207031,-0.3125,0.40625,-0.28125,0.0,0.0,0.0,310
250,1695809551899,0.32421875,0.92871094,-0.12890625,-0.78125,-0.03125,-0.40625,0.0,0.0,0.0,311
251,1695809551939,0.3046875,0.9111328,-0.125,-0.0625,-0.09375,-0.03125,0.0,0.0,0.0,312
252,1695809551979,0.30371094,0.9355469,-0.11425781,-0.125,-0.8125,0.09375,0.0,0.0,0.0,313
253,1695809552019,0.32128906,0.9169922,-0.11230469,-0.0625,-0.75,0.21875,0.0,0.0,0.0,314
254,1695809552059,0.31054688,0.9277344,-0.115234375,-0.59375,-0.5625,0.09375,0.0,0.0,0.0,315
255,1695809552099,0.3125,0.9326172,-0.11816406,-0.84375,-0.6875,0.03125,0.0,0.0,0.0,316
256,1695809552139,0.30273438,0.9296875,-0.12402344,-0.59375,-0.4375,-0.21875,0.0,0.0,0.0,317
257,1695809552179,0.30566406,0.92871094,-0.11230469,-0.59375,-0.6875,-0.03125,0.0,0.0,0.0,318
258,1695809552219,0.31152344,0.9248047,-0.11035156,-0.59375,-0.5625,-0.03125,0.0,0.0,0.0,319
259,1695809552259,0.3125,0.92871094,-0.10839844,-0.15625,-0.1875,0.0625,-13.5,36.9375,-133.875,320
260,1695809552299,0.29882812,0.92871094,-0.10839844,-0.09375,-0.3125,0.25,0.0,0.0,0.0,321
261,1695809552339,0.31054688,0.92871094,-0.10546875,0.03125,0.0625,0.1875,0.0,0.0,0.0,322
262,1695809552379,0.30371094,0.93359375,-0.111328125,-0.21875,0.0625,0.125,0.0,0.0,0.0,323
263,1695809552419,0.30078125,0.92871094,-0.11230469,0.34375,0.0625,0.25,0.0,0.0,0.0,324
264,1695809552459,0.3173828,0.9277344,-0.11621094,0.34375,-0.125,0.3125,0.0,0.0,0.0,325
265,1695809552499,0.31445312,0.9316406,-0.12109375,0.15625,-0.125,0.25,0.0,0.0,0.0,326
266,1695809552539,0.31445312,0.9355469,-0.1171875,-0.28125,-0.1875,0.25,0.0,0.0,0.0,327
267,1695809552579,0.31640625,0.9296875,-0.111328125,0.40625,0.65625,0.1875,0.0,0.0,0.0,328
268,1695809552619,0.30859375,0.9248047,-0.1171875,0.46875,0.59375,0.0,0.0,0.0,0.0,329
269,1695809552659,0.31054688,0.921875,-0.12597656,0.5625,0.125,0.1875,0.0,0.0,0.0,330
270,1695809552699,0.31152344,0.9199219,-0.11328125,0.40625,-0.0625,0.4375,0.0,0.0,0.0,331
271,1695809552739,0.31054688,0.9316406,-0.119140625,-0.21875,-0.3125,0.25,0.0,0.0,0.0,332
272,1695809552779,0.31347656,0.9355469,-0.12792969,0.03125,0.40625,0.0,-14.25,36.1875,-136.25,333
273,1695809552819,0.3125,0.93652344,-0.115234375,0.28125,0.25,0.1875,0.0,0.0,0.0,334
274,1695809552859,0.31347656,0.9296875,-0.1328125,0.34375,0.125,0.25,0.0,0.0,0.0,335
275,1695809552899,0.3125,0.93359375,-0.12109375,0.21875,0.25,0.4375,0.0,0.0,0.0,336
276,1695809552939,0.3076172,0.92578125,-0.1171875,0.09375,0.0625,0.125,0.0,0.0,0.0,337
277,1695809552979,0.3154297,0.93652344,-0.12109375,-0.03125,-0.0625,0.25,0.0,0.0,0.0,338
278,1695809553019,0.30664062,0.92578125,-0.11425781,0.34375,-0.4375,0.3125,0.0,0.0,0.0,339
279,1695809553059,0.31347656,0.9326172,-0.12109375,-0.15625,-0.4375,0.5625,0.0,0.0,0.0,340
280,1695809553099,0.3154297,0.9316406,-0.10839844,-0.03125,-0.4375,0.375,0.0,0.0,0.0,341
281,1695809553139,0.30566406,0.93066406,-0.12011719,-0.03125,-0.0625,0.0,0.0,0.0,0.0,342
282,1695809553179,0.30371094,0.9296875,-0.115234375,-0.03125,0.46875,0.125,0.0,0.0,0.0,343
283,1695809553219,0.31640625,0.9345703,-0.12207031,0.34375,0.65625,0.1875,0.0,0.0,0.0,344
284,1695809553259,0.3076172,0.93066406,-0.11230469,0.46875,0.40625,0.0625,-13.0625,37.5625,-135.375,345
285,1695809553299,0.3173828,0.93359375,-0.12695312,0.40625,0.125,0.1875,0.0,0.0,0.0,346
286,1695809553339,0.3076172,0.9189453,-0.11621094,0.46875,0.1875,0.25,0.0,0.0,0.0,347
287,1695809553379,0.30664062,0.9277344,-0.11035156,-0.28125,-0.1875,0.25,0.0,0.0,0.0,348
288,1695809553419,0.31347656,0.92089844,-0.11425781,0.03125,0.125,-0.0625,0.0,0.0,0.0,349
289,1695809553459,0.30664062,0.92578125,-0.11035156,-0.03125,0.25,0.125,0.0,0.0,0.0,350
290,1695809553499,0.31835938,0.92871094,-0.11816406,0.03125,0.3125,0.0625,0.0,0.0,0.0,351
291,1695809553539,0.32421875,0.9296875,-0.11621094,0.28125,0.375,0.0625,0.0,0.0,0.0,352
292,1695809553579,0.3125,0.9296875,-0.11328125,-0.15625,-0.5625,0.125,0.0,0.0,0.0,353
293,1695809553619,0.30566406,0.9267578,-0.12597656,-0.28125,-0.4375,0.25,0.0,0.0,0.0,354
294,1695809553659,0.30371094,0.9296875,-0.11621094,-0.28125,-0.25,0.1875,0.0,0.0,0.0,355
295,1695809553699,0.3154297,0.92578125,-0.11035156,-0.09375,-0.5,-0.0625,0.0,0.0,0.0,356
296,1695809553739,0.30664062,0.92871094,-0.11230469,-0.34375,-0.125,0.125,0.0,0.0,0.0,357
297,1695809553779,0.3154297,0.9277344,-0.107421875,-0.65625,-0.125,0.1875,-12.875,38.4375,-135.9375,358
298,1695809553819,0.2998047,0.92871094,-0.12597656,0.03125,-0.1875,0.0625,0.0,0.0,0.0,359
299,1695809553859,0.3095703,0.9296875,-0.12207031,-0.15625,-0.0625,0.1875,0.0,0.0,0.0,360
300,1695809553899,0.3076172,0.9267578,-0.11230469,-0.34375,-0.125,-0.0625,0.0,0.0,0.0,361
301,1695809553939,0.30664062,0.9355469,-0.11035156,-0.28125,-0.625,0.1875,0.0,0.0,0.0,362
302,1695809553979,0.3076172,0.9267578,-0.123046875,-0.28125,-0.1875,0.25,0.0,0.0,0.0,363
303,1695809554019,0.3076172,0.93359375,-0.11230469,-0.28125,-0.125,0.0,0.0,0.0,0.0,364
304,1695809554059,0.30664062,0.921875,-0.123046875,-0.65625,0.125,0.0625,0.0,0.0,0.0,365
305,1695809554099,0.3076172,0.9238281,-0.111328125,-0.71875,0.0,-0.125,0.0,0.0,0.0,366
306,1695809554139,0.31152344,0.9238281,-0.11425781,-0.59375,-0.625,-0.0625,0.0,0.0,0.0,367
307,1695809554179,0.3125,0.92871094,-0.11816406,-0.34375,-0.125,0.1875,0.0,0.0,0.0,368
308,1695809554219,0.3173828,0.9326172,-0.11425781,-0.28125,-0.5625,0.3125,0.0,0.0,0.0,369
309,1695809554259,0.30664062,0.9316406,-0.10644531,-0.53125,-0.25,0.125,-13.375,39.3125,-136.6875,370
310,1695809554299,0.30566406,0.93066406,-0.12011719,0.28125,-0.125,0.1875,0.0,0.0,0.0,371
311,1695809554339,0.3125,0.9169922,-0.11621094,-0.21875,0.125,0.0,0.0,0.0,0.0,372
312,1695809554379,0.30371094,0.92578125,-0.109375,-0.40625,0.0,0.3125,0.0,0.0,0.0,373
313,1695809554419,0.29589844,0.9277344,-0.12597656,-0.28125,-0.1875,0.3125,0.0,0.0,0.0,374
314,1695809554459,0.3173828,0.9277344,-0.103515625,-0.03125,-0.1875,0.1875,0.0,0.0,0.0,375
315,1695809554499,0.3017578,0.91503906,-0.10058594,0.15625,-0.5,0.3125,0.0,0.0,0.0,376
316,1695809554539,0.31054688,0.9326172,-0.10644531,0.21875,-0.5625,0.5625,0.0,0.0,0.0,377
317,1695809554579,0.30273438,0.9326172,-0.11621094,0.5,-0.5625,0.5,0.0,0.0,0.0,378
318,1695809554619,0.31640625,0.9238281,-0.11230469,0.34375,-0.5625,0.5625,0.0,0.0,0.0,379
319,1695809554659,0.30664062,0.9345703,-0.10644531,0.03125,-0.375,0.4375,0.0,0.0,0.0,380
320,1695809554699,0.31347656,0.93066406,-0.111328125,0.03125,-0.125,0.375,0.0,0.0,0.0,381
321,1695809554739,0.30664062,0.9326172,-0.115234375,0.03125,-0.125,0.125,0.0,0.0,0.0,382
322,1695809554779,0.31347656,0.91796875,-0.11621094,0.46875,0.25,0.375,-13.5,37.6875,-135.5,383
323,1695809554819,0.31054688,0.92871094,-0.119140625,0.21875,-0.25,0.4375,0.0,0.0,0.0,384
324,1695809554859,0.30371094,0.9355469,-0.11816406,0.15625,-0.125,0.4375,0.0,0.0,0.0,385
325,1695809554899,0.3095703,0.92871094,-0.11230469,0.40625,-0.25,0.375,0.0,0.0,0.0,386
326,1695809554939,0.30859375,0.92285156,-0.119140625,0.28125,0.0625,0.125,0.0,0.0,0.0,387
327,1695809554979,0.30371094,0.9296875,-0.10644531,0.09375,0.0,0.375,0.0,0.0,0.0,388
328,1695809555019,0.31054688,0.9267578,-0.111328125,0.03125,0.125,0.1875,0.0,0.0,0.0,389
329,1695809555059,0.31347656,0.9316406,-0.10546875,0.40625,0.25,0.25,0.0,0.0,0.0,390
330,1695809555099,0.31347656,0.92089844,-0.11621094,0.5625,0.40625,0.375,0.0,0.0,0.0,391
331,1695809555139,0.31347656,0.92089844,-0.11816406,0.28125,0.125,0.1875,0.0,0.0,0.0,392
332,1695809555179,0.3017578,0.9316406,-0.11328125,0.28125,-0.25,0.4375,0.0,0.0,0.0,393
333,1695809555219,0.30664062,0.92285156,-0.119140625,0.75,-0.1875,0.78125,0.0,0.0,0.0,394
334,1695809555259,0.31347656,0.92285156,-0.11425781,0.875,-0.4375,0.5625,-12.3125,38.125,-135.0625,395
335,1695809555299,0.3046875,0.9296875,-0.1171875,0.5625,-0.125,0.5,0.0,0.0,0.0,396
336,1695809555339,0.31347656,0.9248047,-0.115234375,0.6875,0.0625,0.625,0.0,0.0,0.0,397
337,1695809555379,0.30566406,0.92285156,-0.11035156,1.0,0.1875,0.5,0.0,0.0,0.0,398
338,1695809555419,0.31445312,0.93066406,-0.12109375,0.5625,0.3125,0.4375,0.0,0.0,0.0,399
339,1695809555459,0.3173828,0.93359375,-0.12597656,0.6875,0.25,0.4375,0.0,0.0,0.0,400
340,1695809555499,0.31640625,0.92089844,-0.119140625,0.625,-0.125,0.4375,0.0,0.0,0.0,401
341,1695809555539,0.31445312,0.9238281,-0.12792969,0.5,0.125,0.5,0.0,0.0,0.0,402
342,1695809555579,0.3076172,0.921875,-0.12011719,0.625,0.125,0.4375,0.0,0.0,0.0,403
343,1695809555619,0.3125,0.9267578,-0.12597656,0.5625,0.46875,0.25,0.0,0.0,0.0,404
344,1695809555659,0.31835938,0.9238281,-0.119140625,0.21875,0.125,0.3125,0.0,0.0,0.0,405
345,1695809555699,0.31640625,0.9238281,-0.11816406,0.40625,0.125,0.1875,0.0,0.0,0.0,406
346,1695809555739,0.31445312,0.9189453,-0.1171875,0.15625,0.3125,0.1875,0.0,0.0,0.0,407
347,1695809555779,0.3232422,0.9375,-0.123046875,-0.15625,-0.0625,0.0625,-13.9375,38.0,-135.9375,408
348,1695809555819,0.31933594,0.9316406,-0.11621094,0.28125,0.53125,0.3125,0.0,0.0,0.0,409
349,1695809555859,0.3173828,0.9267578,-0.12597656,0.21875,0.0625,0.3125,0.0,0.0,0.0,410
350,1695809555899,0.31347656,0.91796875,-0.12890625,0.21875,0.0625,0.125,0.0,0.0,0.0,411
351,1695809555939,0.30371094,0.93652344,-0.11328125,0.21875,0.0,0.25,0.0,0.0,0.0,412
352,1695809555979,0.31835938,0.93359375,-0.11621094,-0.09375,-0.6875,0.375,0.0,0.0,0.0,413
353,1695809556019,0.31152344,0.9326172,-0.12988281,-0.09375,-0.375,0.4375,0.0,0.0,0.0,414
354,1695809556059,0.30859375,0.9267578,-0.12402344,-0.09375,-0.5625,0.375,0.0,0.0,0.0,415
355,1695809556099,0.31152344,0.9296875,-0.11816406,-0.21875,-0.5,0.1875,0.0,0.0,0.0,416
356,1695809556139,0.3154297,0.9238281,-0.12109375,0.03125,-0.3125,0.3125,0.0,0.0,0.0,417
357,1695809556179,0.31640625,0.9238281,-0.11816406,-0.03125,-0.3125,0.25,0.0,0.0,0.0,418
358,1695809556219,0.3125,0.9189453,-0.12890625,0.09375,-0.1875,0.1875,0.0,0.0,0.0,419
359,1695809556259,0.31640625,0.92578125,-0.12011719,0.34375,0.0625,0.375,-14.125,37.0625,-135.375,420
360,1695809556299,0.3125,0.92089844,-0.12597656,-0.09375,-0.25,0.25,0.0,0.0,0.0,421
361,1695809556339,0.3203125,0.92578125,-0.111328125,0.09375,0.375,0.1875,0.0,0.0,0.0,422
362,1695809556379,0.3154297,0.92871094,-0.12792969,0.03125,0.3125,0.125,0.0,0.0,0.0,423
363,1695809556419,0.31152344,0.9238281,-0.11328125,0.28125,0.78125,0.0625,0.0,0.0,0.0,424
364,1695809556459,0.3125,0.9267578,-0.11816406,-0.15625,0.375,0.125,0.0,0.0,0.0,425
365,1695809556499,0.3154297,0.9296875,-0.12890625,0.09375,0.3125,0.0,0.0,0.0,0.0,426
366,1695809556539,0.3173828,0.9238281,-0.12011719,0.46875,0.25,0.0,0.0,0.0,0.0,427
367,1695809556579,0.3125,0.92578125,-0.12402344,-0.71875,-0.1875,0.0,0.0,0.0,0.0,428
368,1695809556619,0.3173828,0.9238281,-0.13574219,-0.28125,0.0625,0.0,0.0,0.0,0.0,429
369,1695809556659,0.30859375,0.9345703,-0.119140625,-0.09375,0.1875,0.0,0.0,0.0,0.0,430
370,1695809556699,0.3203125,0.9277344,-0.13378906,-0.03125,-0.1875,0.125,0.0,0.0,0.0,431
371,1695809556739,0.3095703,0.9296875,-0.12597656,-0.28125,-0.4375,0.25,0.0,0.0,0.0,432
372,1695809556779,0.30273438,0.9326172,-0.11425781,-0.40625,-0.5625,0.4375,-13.9375,37.25,-135.9375,433
373,1695809556819,0.31445312,0.93359375,-0.1328125,-0.28125,-0.8125,0.125,0.0,0.0,0.0,434
374,1695809556859,0.3154297,0.93359375,-0.12402344,-0.03125,-0.0625,0.125,0.0,0.0,0.0,435
375,1695809556899,0.3203125,0.92871094,-0.11621094,-0.28125,-0.4375,-0.0625,0.0,0.0,0.0,436
376,1695809556939,0.31347656,0.9296875,-0.12207031,-0.40625,-0.125,0.125,0.0,0.0,0.0,437
377,1695809556979,0.31347656,0.9326172,-0.11816406,0.21875,0.1875,0.125,0.0,0.0,0.0,438
378,1695809557019,0.31152344,0.9267578,-0.12695312,-0.03125,-0.3125,0.1875,0.0,0.0,0.0,439
379,1695809557059,0.3154297,0.93359375,-0.12890625,-0.15625,-0.3125,0.3125,0.0,0.0,0.0,440
380,1695809557099,0.31445312,0.9326172,-0.11035156,0.09375,-0.5,0.3125,0.0,0.0,0.0,441
381,1695809557139,0.30859375,0.9248047,-0.111328125,-0.03125,-0.8125,0.3125,0.0,0.0,0.0,442
382,1695809557179,0.31933594,0.9248047,-0.11621094,-0.03125,-0.125,0.3125,0.0,0.0,0.0,443
383,1695809557219,0.32128906,0.92285156,-0.123046875,0.15625,0.0625,0.125,0.0,0.0,0.0,444
384,1695809557259,0.31347656,0.92285156,-0.12988281,0.21875,0.59375,0.25,-14.25,37.6875,-136.25,445
385,1695809557299,0.30664062,0.9160156,-0.12207031,0.34375,0.125,0.125,0.0,0.0,0.0,446
386,1695809557339,0.30664062,0.9199219,-0.12402344,0.21875,0.125,0.3125,0.0,0.0,0.0,447
387,1695809557379,0.31347656,0.9296875,-0.13378906,0.34375,0.0625,0.25,0.0,0.0,0.0,448
388,1695809557419,0.3076172,0.91796875,-0.11230469,0.09375,0.3125,0.1875,0.0,0.0,0.0,449
389,1695809557459,0.3076172,0.9404297,-0.11425781,0.28125,0.46875,0.1875,0.0,0.0,0.0,450
390,1695809557499,0.3154297,0.92089844,-0.123046875,0.21875,0.3125,0.0625,0.0,0.0,0.0,451
391,1695809557539,0.32714844,0.9238281,-0.13183594,0.40625,0.125,0.125,0.0,0.0,0.0,452
392,1695809557579,0.3203125,0.9248047,-0.11816406,0.34375,0.0,0.375,0.0,0.0,0.0,453
393,1695809557619,0.30859375,0.93066406,-0.12109375,0.21875,-0.25,0.375,0.0,0.0,0.0,454
394,1695809557659,0.31640625,0.9326172,-0.12207031,0.09375,-0.1875,0.25,0.0,0.0,0.0,455
395,1695809557699,0.31152344,0.9267578,-0.11035156,0.34375,0.1875,0.3125,0.0,0.0,0.0,456
396,1695809557739,0.3125,0.93359375,-0.12695312,-0.09375,-0.0625,0.25,0.0,0.0,0.0,457
397,1695809557779,0.31152344,0.9248047,-0.10644531,0.21875,0.3125,0.4375,-13.8125,38.125,-135.625,458
398,1695809557819,0.3173828,0.9248047,-0.119140625,0.09375,0.0625,0.0,0.0,0.0,0.0,459
399,1695809557859,0.3173828,0.92089844,-0.12109375,-0.21875,-0.375,0.125,0.0,0.0,0.0,460
400,1695809557899,0.31933594,0.9277344,-0.1328125,0.03125,-0.25,0.3125,0.0,0.0,0.0,461
401,1695809557939,0.3232422,0.93652344,-0.125,-0.03125,-0.0625,0.375,0.0,0.0,0.0,462
402,1695809557979,0.31835938,0.92089844,-0.12890625,-0.03125,-0.1875,0.125,0.0,0.0,0.0,463
403,1695809558019,0.3125,0.92285156,-0.11816406,-0.03125,-0.125,0.1875,0.0,0.0,0.0,464
404,1695809558059,0.31933594,0.93359375,-0.12207031,0.15625,0.53125,0.3125,0.0,0.0,0.0,465
405,1695809558099,0.31347656,0.921875,-0.11425781,0.15625,0.25,-0.0625,0.0,0.0,0.0,466
406,1695809558139,0.31347656,0.9345703,-0.125,-0.46875,-0.4375,-0.0625,0.0,0.0,0.0,467
407,1695809558179,0.31347656,0.91796875,-0.13867188,-0.15625,0.3125,-0.125,0.0,0.0,0.0,468
408,1695809558219,0.31445312,0.9248047,-0.13574219,-0.21875,0.25,-0.3125,0.0,0.0,0.0,469
409,1695809558259,0.31445312,0.92871094,-0.12207031,0.03125,0.25,0.0625,-13.0625,38.5625,-136.125,470
410,1695809558299,0.31933594,0.9189453,-0.12011719,0.625,0.90625,0.0625,0.0,0.0,0.0,471
411,1695809558339,0.31347656,0.93066406,-0.1171875,0.625,0.40625,0.0,0.0,0.0,0.0,472
412,1695809558379,0.31054688,0.92578125,-0.12109375,-0.03125,-0.375,0.0,0.0,0.0,0.0,473
413,1695809558419,0.31152344,0.92578125,-0.12792969,-0.03125,0.0625,0.25,0.0,0.0,0.0,474
414,1695809558459,0.31445312,0.9248047,-0.12792969,-0.09375,-0.125,0.0625,0.0,0.0,0.0,475
415,1695809558499,0.31347656,0.92871094,-0.12109375,-0.03125,-0.1875,0.0,0.0,0.0,0.0,476
416,1695809558539,0.31152344,0.9267578,-0.12207031,0.03125,0.1875,0.3125,0.0,0.0,0.0,477
417,1695809558579,0.3203125,0.921875,-0.12597656,-0.03125,-0.375,-0.125,0.0,0.0,0.0,478
418,1695809558619,0.3125,0.9267578,-0.1328125,-0.34375,-0.5625,-0.125,0.0,0.0,0.0,479
419,1695809558659,0.3154297,0.9296875,-0.12207031,-0.15625,-0.0625,-0.125,0.0,0.0,0.0,480
420,1695809558699,0.3154297,0.92578125,-0.115234375,-0.21875,0.40625,0.0,0.0,0.0,0.0,481
421,1695809558739,0.3046875,0.9355469,-0.1171875,0.21875,0.375,0.0,0.0,0.0,0.0,482
422,1695809558779,0.30273438,0.9277344,-0.12988281,0.03125,0.0625,0.1875,-12.625,37.8125,-136.125,483
423,1695809558819,0.31152344,0.9238281,-0.11816406,0.03125,0.25,-0.0625,0.0,0.0,0.0,484
424,1695809558859,0.31152344,0.9316406,-0.12207031,-0.65625,-0.625,-0.125,0.0,0.0,0.0,485
425,1695809558899,0.31347656,0.9326172,-0.11621094,-0.15625,-0.0625,0.0625,0.0,0.0,0.0,486
426,1695809558939,0.31445312,0.9238281,-0.12207031,-0.21875,0.0625,0.3125,0.0,0.0,0.0,487
427,1695809558979,0.30859375,0.9267578,-0.12109375,-0.40625,-0.125,0.125,0.0,0.0,0.0,488
428,1695809559019,0.31835938,0.9238281,-0.125,-0.46875,-0.1875,-0.1875,0.0,0.0,0.0,489
429,1695809559059,0.3076172,0.9316406,-0.11621094,-0.53125,-0.4375,0.0,0.0,0.0,0.0,490
430,1695809559099,0.30664062,0.92578125,-0.123046875,0.03125,0.3125,0.25,0.0,0.0,0.0,491
431,1695809559139,0.31445312,0.9277344,-0.11425781,-0.03125,-0.1875,-0.0625,0.0,0.0,0.0,492
432,1695809559179,0.31347656,0.9296875,-0.12695312,-0.03125,-0.3125,0.1875,0.0,0.0,0.0,493
433,1695809559219,0.31347656,0.921875,-0.12109375,0.03125,0.65625,0.1875,0.0,0.0,0.0,494
434,1695809559259,0.31933594,0.9277344,-0.13183594,-0.28125,-0.25,-0.125,-12.875,36.625,-135.1875,495
435,1695809559299,0.3154297,0.9277344,-0.119140625,-0.34375,-0.5,-0.0625,0.0,0.0,0.0,496
436,1695809559339,0.3125,0.9238281,-0.140625,0.03125,0.3125,0.125,0.0,0.0,0.0,497
437,1695809559379,0.29882812,0.9267578,-0.11328125,0.09375,0.40625,0.0,0.0,0.0,0.0,498
438,1695809559419,0.29882812,0.9248047,-0.11621094,0.03125,0.125,-0.0625,0.0,0.0,0.0,499
439,1695809559459,0.3076172,0.9355469,-0.10546875,-0.46875,-0.0625,0.0625,0.0,0.0,0.0,500
440,1695809559499,0.30371094,0.9316406,-0.12109375,-0.40625,-0.1875,-0.125,0.0,0.0,0.0,501
441,1695809559539,0.3076172,0.92871094,-0.119140625,-0.34375,-0.125,0.0,0.0,0.0,0.0,502
442,1695809559579,0.30371094,0.93359375,-0.12011719,-0.09375,0.0,0.1875,0.0,0.0,0.0,503
443,1695809559619,0.3095703,0.9267578,-0.115234375,0.09375,-0.0625,0.3125,0.0,0.0,0.0,504
444,1695809559659,0.3046875,0.921875,-0.12011719,-0.09375,-0.75,0.1875,0.0,0.0,0.0,505
445,1695809559699,0.3017578,0.93066406,-0.11621094,-0.28125,-0.6875,0.4375,0.0,0.0,0.0,506
446,1695809559739,0.3125,0.9296875,-0.119140625,0.40625,-0.0625,0.5625,0.0,0.0,0.0,507
447,1695809559779,0.30859375,0.9296875,-0.115234375,0.09375,-0.6875,0.4375,-15.0,37.25,-135.9375,508
448,1695809559819,0.3154297,0.92089844,-0.119140625,-0.09375,-0.4375,0.3125,0.0,0.0,0.0,509
449,1695809559859,0.31445312,0.92578125,-0.1171875,0.09375,0.0625,0.25,0.0,0.0,0.0,510
450,1695809559899,0.3046875,0.92871094,-0.125,-0.28125,-0.5,0.25,0.0,0.0,0.0,511
451,1695809559939,0.31054688,0.93066406,-0.11230469,-0.09375,-0.0625,0.3125,0.0,0.0,0.0,512
452,1695809559979,0.31347656,0.93359375,-0.12207031,0.03125,-0.4375,0.4375,0.0,0.0,0.0,513
453,1695809560019,0.30664062,0.92089844,-0.11621094,0.40625,-0.375,0.375,0.0,0.0,0.0,514
454,1695809560059,0.3046875,0.9326172,-0.12207031,0.28125,0.0,0.4375,0.0,0.0,0.0,515
455,1695809560099,0.31054688,0.93066406,-0.12011719,0.21875,-0.125,0.25,0.0,0.0,0.0,516
456,1695809560139,0.29492188,0.92871094,-0.12207031,0.21875,0.1875,0.3125,0.0,0.0,0.0,517
457,1695809560179,0.31445312,0.92285156,-0.12109375,0.46875,0.46875,0.3125,0.0,0.0,0.0,518
458,1695809560219,0.31054688,0.921875,-0.115234375,0.5625,-0.4375,0.5,0.0,0.0,0.0,519
459,1695809560259,0.3125,0.93359375,-0.13085938,0.40625,-0.6875,0.4375,-13.0625,36.3125,-135.625,520
460,1695809560299,0.30371094,0.9326172,-0.12402344,0.40625,-0.125,0.4375,0.0,0.0,0.0,521
461,1695809560339,0.31347656,0.92578125,-0.11621094,0.5,0.1875,0.5625,0.0,0.0,0.0,522
462,1695809560379,0.30371094,0.92285156,-0.12402344,0.21875,-0.1875,0.25,0.0,0.0,0.0,523
463,1695809560419,0.30273438,0.92871094,-0.11328125,0.15625,0.0,0.1875,0.0,0.0,0.0,524
464,1695809560459,0.31640625,0.92285156,-0.12890625,0.21875,0.0,0.4375,0.0,0.0,0.0,525
465,1695809560499,0.31445312,0.9326172,-0.123046875,0.28125,0.125,0.3125,0.0,0.0,0.0,526
466,1695809560539,0.3125,0.93359375,-0.12890625,0.28125,0.0,0.3125,0.0,0.0,0.0,527
467,1695809560579,0.3125,0.9316406,-0.13378906,0.28125,-0.0625,0.375,0.0,0.0,0.0,528
468,1695809560619,0.31054688,0.9316406,-0.13085938,0.5,0.0625,0.5,0.0,0.0,0.0,529
469,1695809560659,0.3154297,0.9169922,-0.12109375,0.34375,-0.25,0.4375,0.0,0.0,0.0,530
470,1695809560699,0.31445312,0.92285156,-0.11425781,0.09375,-0.125,0.375,0.0,0.0,0.0,531
471,1695809560739,0.31054688,0.9355469,-0.12402344,0.625,0.0625,0.5,0.0,0.0,0.0,532
472,1695809560779,0.31054688,0.9238281,-0.123046875,0.15625,-0.125,0.4375,-13.375,37.8125,-136.6875,533
473,1695809560819,0.3232422,0.92089844,-0.12597656,0.09375,-0.125,0.4375,0.0,0.0,0.0,534
474,1695809560859,0.30664062,0.921875,-0.12988281,0.03125,-0.125,0.4375,0.0,0.0,0.0,535
475,1695809560899,0.31054688,0.92578125,-0.13867188,0.40625,0.0,0.3125,0.0,0.0,0.0,536
476,1695809560939,0.30859375,0.9316406,-0.12792969,0.625,0.0625,0.3125,0.0,0.0,0.0,537
477,1695809560979,0.30859375,0.9267578,-0.1328125,0.75,-0.1875,0.5,0.0,0.0,0.0,538
478,1695809561019,0.31347656,0.92871094,-0.12597656,0.34375,-0.125,0.5,0.0,0.0,0.0,539
479,1695809561059,0.31933594,0.92285156,-0.12109375,0.09375,-0.25,0.3125,0.0,0.0,0.0,540
480,1695809561099,0.3154297,0.9296875,-0.12597656,0.09375,0.0625,0.3125,0.0,0.0,0.0,541
481,1695809561139,0.3154297,0.92285156,-0.12597656,0.75,0.25,0.1875,0.0,0.0,0.0,542
482,1695809561179,0.32226562,0.92285156,-0.12988281,0.03125,0.0,0.125,0.0,0.0,0.0,543
483,1695809561219,0.3173828,0.9267578,-0.1328125,-0.03125,-0.0625,0.3125,0.0,0.0,0.0,544
484,1695809561259,0.31347656,0.9277344,-0.13574219,0.34375,0.125,0.4375,-13.8125,39.9375,-135.625,545
485,1695809561299,0.30664062,0.9267578,-0.123046875,0.6875,0.40625,0.125,0.0,0.0,0.0,546
486,1695809561339,0.31835938,0.9248047,-0.12792969,-0.03125,-0.0625,0.125,0.0,0.0,0.0,547
487,1695809561379,0.31640625,0.9277344,-0.1328125,-0.40625,0.0,0.0,0.0,0.0,0.0,548
488,1695809561419,0.31347656,0.92285156,-0.12597656,-0.15625,0.4375,-0.1875,0.0,0.0,0.0,549
489,1695809561459,0.30664062,0.9296875,-0.1328125,-0.34375,0.0,-0.125,0.0,0.0,0.0,550
490,1695809561499,0.3125,0.9248047,-0.13183594,-0.34375,0.0,-0.125,0.0,0.0,0.0,551
491,1695809561539,0.31445312,0.93359375,-0.12207031,-0.53125,-0.0625,0.0625,0.0,0.0,0.0,552
492,1695809561579,0.31152344,0.9238281,-0.12890625,-0.15625,-0.40625,-0.125,0.0,0.0,0.0,553
493,1695809561619,0.3125,0.92578125,-0.12890625,-0.40625,-0.53125,0.0,0.0,0.0,0.0,554
494,1695809561659,0.31347656,0.9355469,-0.12207031,-0.15625,-0.34375,0.125,0.0,0.0,0.0,555
495,1695809561699,0.31445312,0.92871094,-0.13183594,-0.15625,-0.21875,-0.0625,0.0,0.0,0.0,556
496,1695809561739,0.3232422,0.93359375,-0.12597656,-0.0625,-0.0625,-0.125,0.0,0.0,0.0,557
497,1695809561779,0.3125,0.9238281,-0.13476562,-0.28125,0.4375,-0.125,-13.5,37.25,-136.25,558
498,1695809561819,0.31347656,0.93652344,-0.14453125,0.0,0.3125,-0.0625,0.0,0.0,0.0,559
499,1695809561859,0.3251953,0.9277344,-0.13085938,-0.0625,0.125,0.0,0.0,0.0,0.0,560
500,1695809561899,0.31445312,0.9316406,-0.123046875,0.0,-0.0625,0.0,0.0,0.0,0.0,561
501,1695809561939,0.3076172,0.9277344,-0.13574219,0.125,0.3125,0.125,0.0,0.0,0.0,562
502,1695809561979,0.3125,0.9248047,-0.12792969,0.375,0.0625,0.0,0.0,0.0,0.0,563
503,1695809562019,0.31933594,0.9267578,-0.13378906,-0.0625,0.25,-0.25,0.0,0.0,0.0,564
504,1695809562059,0.3173828,0.93359375,-0.1328125,-0.46875,0.0625,-0.25,0.0,0.0,0.0,565
505,1695809562099,0.328125,0.9189453,-0.123046875,0.1875,0.3125,-0.125,0.0,0.0,0.0,566
506,1695809562139,0.31445312,0.9121094,-0.125,-0.46875,-0.0625,-0.1875,0.0,0.0,0.0,567
507,1695809562179,0.3203125,0.9277344,-0.13476562,-0.28125,0.25,-0.1875,0.0,0.0,0.0,568
508,1695809562219,0.3203125,0.92578125,-0.13378906,-0.0625,0.125,0.0,0.0,0.0,0.0,569
509,1695809562259,0.31933594,0.92578125,-0.12597656,-0.34375,-0.1875,-0.125,-12.625,36.3125,-135.0625,570
510,1695809562299,0.3154297,0.9267578,-0.12988281,-0.34375,-0.1875,-0.125,0.0,0.0,0.0,571
511,1695809562339,0.31347656,0.92871094,-0.119140625,-0.28125,-0.21875,-0.0625,0.0,0.0,0.0,572
512,1695809562379,0.31054688,0.9277344,-0.12988281,-0.34375,-0.1875,-0.3125,0.0,0.0,0.0,573
513,1695809562419,0.31640625,0.9248047,-0.12988281,-0.28125,-0.0625,-0.125,0.0,0.0,0.0,574
514,1695809562459,0.31640625,0.9345703,-0.12890625,-0.34375,-0.1875,0.0625,0.0,0.0,0.0,575
515,1695809562499,0.3173828,0.92578125,-0.13867188,-0.34375,0.0625,-0.125,0.0,0.0,0.0,576
516,1695809562539,0.30664062,0.9267578,-0.12402344,-0.28125,-0.1875,-0.1875,0.0,0.0,0.0,577
517,1695809562579,0.31640625,0.9199219,-0.12988281,-0.15625,0.4375,-0.1875,0.0,0.0,0.0,578
518,1695809562619,0.3203125,0.9248047,-0.140625,-0.21875,0.3125,-0.3125,0.0,0.0,0.0,579
519,1695809562659,0.3154297,0.92285156,-0.115234375,-0.21875,-0.0625,-0.3125,0.0,0.0,0.0,580
520,1695809562699,0.3154297,0.92578125,-0.13574219,0.0625,0.125,0.0625,0.0,0.0,0.0,581
521,1695809562739,0.31347656,0.9277344,-0.11230469,-0.34375,-0.46875,0.125,0.0,0.0,0.0,582
522,1695809562779,0.31445312,0.92089844,-0.12695312,-0.0625,-0.125,0.0,-12.4375,36.1875,-135.5,583
523,1695809562819,0.3125,0.9248047,-0.12890625,0.25,0.0625,0.0625,0.0,0.0,0.0,584
524,1695809562859,0.3125,0.91796875,-0.123046875,0.125,0.5,-0.25,0.0,0.0,0.0,585
525,1695809562899,0.31152344,0.9326172,-0.123046875,-0.28125,0.1875,-0.1875,0.0,0.0,0.0,586
526,1695809562939,0.3154297,0.9296875,-0.12890625,-0.28125,0.0,-0.0625,0.0,0.0,0.0,587
527,1695809562979,0.31347656,0.9248047,-0.13378906,-0.09375,0.0,0.0,0.0,0.0,0.0,588
528,1695809563019,0.31152344,0.9277344,-0.13671875,-0.0625,0.1875,-0.25,0.0,0.0,0.0,589
529,1695809563059,0.31835938,0.9316406,-0.13476562,0.0,0.3125,-0.25,0.0,0.0,0.0,590
530,1695809563099,0.31347656,0.9199219,-0.13671875,-0.0625,0.25,-0.25,0.0,0.0,0.0,591
531,1695809563139,0.3173828,0.9267578,-0.13671875,0.0,0.125,-0.0625,0.0,0.0,0.0,592
532,1695809563179,0.31933594,0.9160156,-0.13867188,-0.0625,0.0625,-0.125,0.0,0.0,0.0,593
533,1695809563219,0.30371094,0.92285156,-0.12988281,-0.15625,-0.0625,-0.1875,0.0,0.0,0.0,594
534,1695809563259,0.31347656,0.9267578,-0.13085938,0.0,0.0,0.0,-13.1875,37.25,-136.25,595
535,1695809563299,0.3154297,0.9267578,-0.123046875,-0.21875,-0.28125,0.0,0.0,0.0,0.0,596
536,1695809563339,0.32226562,0.9189453,-0.13183594,-0.15625,0.25,-0.0625,0.0,0.0,0.0,597
537,1695809563379,0.3095703,0.9267578,-0.13183594,0.0,0.1875,-0.3125,0.0,0.0,0.0,598
538,1695809563419,0.31445312,0.92285156,-0.140625,-0.09375,0.4375,-0.25,0.0,0.0,0.0,599
539,1695809563459,0.3203125,0.91796875,-0.1328125,0.125,0.0625,-0.1875,0.0,0.0,0.0,600
540,1695809563499,0.31640625,0.9248047,-0.13867188,-0.34375,-0.0625,-0.25,0.0,0.0,0.0,601
541,1695809563539,0.31835938,0.9248047,-0.12695312,-0.40625,-0.40625,-0.0625,0.0,0.0,0.0,602
542,1695809563579,0.31347656,0.9238281,-0.1328125,-0.21875,-0.1875,-0.125,0.0,0.0,0.0,603
543,1695809563619,0.31347656,0.92285156,-0.13085938,-0.34375,-0.46875,-0.25,0.0,0.0,0.0,604
544,1695809563659,0.3173828,0.9238281,-0.123046875,-0.34375,-0.59375,-0.0625,0.0,0.0,0.0,605
545,1695809563699,0.32128906,0.92578125,-0.12695312,-0.46875,-0.59375,-0.0625,0.0,0.0,0.0,606
546,1695809563739,0.32128906,0.9267578,-0.13867188,-0.28125,0.125,-0.1875,0.0,0.0,0.0,607
547,1695809563779,0.31152344,0.9296875,-0.13378906,0.0,0.125,-0.3125,-13.5,37.25,-135.9375,608
548,1695809563819,0.30859375,0.92871094,-0.13378906,-0.0625,0.3125,-0.125,0.0,0.0,0.0,609
549,1695809563859,0.3095703,0.93066406,-0.13867188,0.0625,0.0625,-0.25,0.0,0.0,0.0,610
550,1695809563899,0.31347656,0.92578125,-0.12988281,0.1875,0.375,0.0,0.0,0.0,0.0,611
551,1695809563939,0.31933594,0.9267578,-0.13769531,-0.21875,-0.1875,-0.3125,0.0,0.0,0.0,612
552,1695809563979,0.3125,0.91796875,-0.13183594,0.0,-0.0625,-0.1875,0.0,0.0,0.0,613
553,1695809564019,0.3154297,0.93066406,-0.12792969,-0.09375,-0.0625,0.0625,0.0,0.0,0.0,614
554,1695809564059,0.31445312,0.9248047,-0.14160156,0.0625,0.0625,0.0,0.0,0.0,0.0,615
555,1695809564099,0.3232422,0.93652344,-0.13867188,0.125,0.25,-0.0625,0.0,0.0,0.0,616
556,1695809564139,0.31152344,0.92285156,-0.12597656,0.0625,0.1875,-0.125,0.0,0.0,0.0,617
557,1695809564179,0.31054688,0.9248047,-0.12695312,0.1875,0.5,-0.125,0.0,0.0,0.0,618
558,1695809564219,0.3154297,0.93359375,-0.1171875,-0.28125,0.25,-0.125,0.0,0.0,0.0,619
559,1695809564259,0.31445312,0.92578125,-0.13378906,-0.0625,0.4375,-0.1875,-12.875,36.625,-137.0,620
560,1695809564299,0.3154297,0.92089844,-0.13476562,0.375,0.3125,-0.1875,0.0,0.0,0.0,621
561,1695809564339,0.31347656,0.92871094,-0.14355469,-0.21875,-0.0625,-0.0625,0.0,0.0,0.0,622
562,1695809564379,0.31835938,0.921875,-0.12890625,-0.53125,-0.21875,-0.1875,0.0,0.0,0.0,623
563,1695809564419,0.31054688,0.9267578,-0.14550781,-0.21875,-0.1875,-0.3125,0.0,0.0,0.0,624
564,1695809564459,0.3203125,0.92871094,-0.13964844,-0.21875,-0.0625,-0.3125,0.0,0.0,0.0,625
565,1695809564499,0.31445312,0.9199219,-0.13476562,-0.21875,0.0,-0.0625,0.0,0.0,0.0,626
566,1695809564539,0.31347656,0.9238281,-0.12207031,0.0625,0.0625,-0.25,0.0,0.0,0.0,627
567,1695809564579,0.31152344,0.92089844,-0.140625,-0.34375,0.0,-0.1875,0.0,0.0,0.0,628
568,1695809564619,0.3232422,0.92089844,-0.14550781,0.0,0.25,-0.0625,0.0,0.0,0.0,629
569,1695809564659,0.31835938,0.92578125,-0.12988281,-0.15625,0.125,-0.125,0.0,0.0,0.0,630
570,1695809564699,0.31152344,0.92089844,-0.140625,-0.59375,-0.59375,-0.25,0.0,0.0,0.0,631
571,1695809564739,0.31640625,0.9169922,-0.13671875,-0.34375,-0.0625,-0.25,0.0,0.0,0.0,632
572,1695809564779,0.3154297,0.9189453,-0.12792969,-0.21875,0.125,-0.25,-12.125,36.9375,-137.875,633
573,1695809564819,0.32128906,0.93066406,-0.140625,-0.28125,0.0,-0.3125,0.0,0.0,0.0,634
574,1695809564859,0.32226562,0.9238281,-0.14648438,-0.46875,-0.21875,-0.1875,0.0,0.0,0.0,635
575,1695809564899,0.3125,0.9267578,-0.12988281,-0.53125,-0.21875,-0.125,0.0,0.0,0.0,636
576,1695809564939,0.32617188,0.9248047,-0.13671875,-0.59375,-0.0625,-0.1875,0.0,0.0,0.0,637
577,1695809564979,0.3017578,0.92089844,-0.14648438,-0.71875,-0.53125,-0.25,0.0,0.0,0.0,638
578,1695809565019,0.31152344,0.93359375,-0.12988281,-0.53125,-0.53125,-0.125,0.0,0.0,0.0,639
579,1695809565059,0.31640625,0.92089844,-0.13574219,-0.15625,0.0,-0.1875,0.0,0.0,0.0,640
580,1695809565099,0.30664062,0.92578125,-0.12109375,-0.40625,-0.34375,-0.25,0.0,0.0,0.0,641
581,1695809565139,0.31445312,0.9248047,-0.12792969,-0.15625,-0.125,-0.0625,0.0,0.0,0.0,642
582,1695809565179,0.3232422,0.9169922,-0.14355469,-0.40625,0.0,-0.1875,0.0,0.0,0.0,643
583,1695809565219,0.3076172,0.9248047,-0.13378906,-0.28125,0.25,-0.25,0.0,0.0,0.0,644
584,1695809565259,0.32128906,0.91796875,-0.14746094,-0.53125,-0.0625,-0.125,-13.375,37.0625,-137.4375,645
585,1695809565299,0.32226562,0.9248047,-0.13867188,-0.125,-0.40625,0.03125,0.0,0.0,0.0,646
586,1695809565339,0.31835938,0.921875,-0.13671875,-0.125,-0.46875,-0.03125,0.0,0.0,0.0,647
587,1695809565379,0.32128906,0.9296875,-0.140625,-0.3125,-0.34375,-0.09375,0.0,0.0,0.0,648
588,1695809565419,0.3125,0.9277344,-0.1328125,-0.125,-0.40625,0.09375,0.0,0.0,0.0,649
589,1695809565459,0.31152344,0.9345703,-0.13671875,-0.0625,0.09375,0.21875,0.0,0.0,0.0,650
590,1695809565499,0.32226562,0.9189453,-0.12695312,-0.1875,-0.40625,0.09375,0.0,0.0,0.0,651
591,1695809565539,0.3154297,0.92871094,-0.13769531,-0.4375,-1.09375,0.28125,0.0,0.0,0.0,652
592,1695809565579,0.31640625,0.92285156,-0.13671875,-0.25,-0.78125,0.21875,0.0,0.0,0.0,653
593,1695809565619,0.31445312,0.92578125,-0.13476562,-0.3125,-1.1875,0.15625,0.0,0.0,0.0,654
594,1695809565659,0.31347656,0.92871094,-0.14355469,-0.4375,-0.84375,0.03125,0.0,0.0,0.0,655
595,1695809565699,0.3251953,0.9199219,-0.14160156,-0.1875,-0.46875,0.21875,0.0,0.0,0.0,656
596,1695809565739,0.32128906,0.9199219,-0.13476562,-0.25,-0.09375,-0.09375,0.0,0.0,0.0,657
597,1695809565779,0.31054688,0.92871094,-0.13964844,-0.46875,0.03125,-0.21875,-12.4375,36.1875,-135.9375,658
598,1695809565819,0.3125,0.9199219,-0.13964844,-0.125,-0.15625,0.09375,0.0,0.0,0.0,659
599,1695809565859,0.32226562,0.93066406,-0.14257812,0.125,0.25,0.03125,0.0,0.0,0.0,660
600,1695809565899,0.31152344,0.9267578,-0.13671875,-0.125,0.09375,-0.03125,0.0,0.0,0.0,661
601,1695809565939,0.31933594,0.9248047,-0.12792969,0.125,0.15625,-0.03125,0.0,0.0,0.0,662
602,1695809565979,0.31347656,0.9248047,-0.12695312,-0.125,0.09375,-0.21875,0.0,0.0,0.0,663
603,1695809566019,0.31933594,0.9316406,-0.12890625,-0.90625,-0.34375,-0.40625,0.0,0.0,0.0,664
604,1695809566059,0.31347656,0.9316406,-0.140625,-0.1875,-0.09375,-0.09375,0.0,0.0,0.0,665
605,1695809566099,0.31640625,0.9169922,-0.12988281,-0.3125,-0.28125,0.21875,0.0,0.0,0.0,666
606,1695809566139,0.31933594,0.92285156,-0.13867188,-0.125,-0.46875,0.09375,0.0,0.0,0.0,667
607,1695809566179,0.31152344,0.92578125,-0.13183594,-0.125,-0.53125,0.09375,0.0,0.0,0.0,668
608,1695809566219,0.3173828,0.9277344,-0.13574219,0.25,-0.09375,0.03125,0.0,0.0,0.0,669
609,1695809566259,0.3076172,0.921875,-0.13378906,0.375,0.25,0.21875,-13.0625,35.3125,-136.6875,670
610,1695809566299,0.31445312,0.9238281,-0.1328125,0.125,0.09375,-0.03125,0.0,0.0,0.0,671
611,1695809566339,0.3154297,0.92871094,-0.13867188,0.25,0.15625,-0.15625,0.0,0.0,0.0,672
612,1695809566379,0.32226562,0.9267578,-0.13085938,0.375,0.3125,-0.03125,0.0,0.0,0.0,673
613,1695809566419,0.31445312,0.92285156,-0.13671875,0.0625,0.1875,0.09375,0.0,0.0,0.0,674
614,1695809566459,0.31835938,0.92871094,-0.13867188,0.3125,-0.15625,0.03125,0.0,0.0,0.0,675
615,1695809566499,0.31152344,0.92871094,-0.125,0.3125,-0.09375,0.03125,0.0,0.0,0.0,676
616,1695809566539,0.31835938,0.92089844,-0.13769531,0.25,0.25,0.09375,0.0,0.0,0.0,677
617,1695809566579,0.31152344,0.93359375,-0.13378906,0.375,-0.03125,0.09375,0.0,0.0,0.0,678
618,1695809566619,0.31054688,0.92285156,-0.140625,0.6875,0.375,0.09375,0.0,0.0,0.0,679
619,1695809566659,0.3203125,0.9248047,-0.140625,0.3125,0.25,0.09375,0.0,0.0,0.0,680
620,1695809566699,0.31445312,0.9375,-0.14453125,-0.125,-0.46875,0.15625,0.0,0.0,0.0,681
621,1695809566739,0.31347656,0.92578125,-0.140625,-0.375,0.03125,-0.03125,0.0,0.0,0.0,682
622,1695809566779,0.31152344,0.9296875,-0.13378906,0.1875,0.03125,0.03125,-12.4375,36.9375,-137.3125,683
623,1695809566819,0.31347656,0.9277344,-0.13867188,-0.0625,0.03125,0.15625,0.0,0.0,0.0,684
624,1695809566859,0.31933594,0.9277344,-0.13378906,-0.125,-0.15625,0.03125,0.0,0.0,0.0,685
625,1695809566899,0.3125,0.93359375,-0.14160156,-0.25,-0.34375,0.09375,0.0,0.0,0.0,686
626,1695809566939,0.3154297,0.92285156,-0.12207031,0.1875,0.1875,0.03125,0.0,0.0,0.0,687
627,1695809566979,0.32421875,0.9248047,-0.14648438,0.25,-0.15625,-0.03125,0.0,0.0,0.0,688
628,1695809567019,0.31054688,0.9277344,-0.13964844,-0.375,-0.15625,-0.03125,0.0,0.0,0.0,689
629,1695809567059,0.3154297,0.92578125,-0.14355469,-0.125,0.03125,-0.15625,0.0,0.0,0.0,690
630,1695809567099,0.32421875,0.92578125,-0.12402344,0.25,-0.03125,0.03125,0.0,0.0,0.0,691
631,1695809567139,0.31835938,0.92089844,-0.12988281,-0.125,-0.03125,0.09375,0.0,0.0,0.0,692
632,1695809567179,0.30371094,0.9189453,-0.14648438,-0.25,0.15625,0.09375,0.0,0.0,0.0,693
633,1695809567219,0.31445312,0.9345703,-0.13378906,0.1875,-0.03125,0.03125,0.0,0.0,0.0,694
634,1695809567259,0.32128906,0.9189453,-0.12792969,0.0625,0.09375,-0.03125,-13.375,38.125,-135.625,695
635,1695809567299,0.3154297,0.9199219,-0.14550781,-0.375,-0.03125,-0.15625,0.0,0.0,0.0,696
636,1695809567339,0.32128906,0.9248047,-0.13964844,-0.125,-0.03125,-0.09375,0.0,0.0,0.0,697
637,1695809567379,0.3232422,0.9267578,-0.13378906,0.125,0.03125,0.09375,0.0,0.0,0.0,698
638,1695809567419,0.32226562,0.92285156,-0.13769531,0.0625,-0.15625,-0.15625,0.0,0.0,0.0,699
639,1695809567459,0.3173828,0.9140625,-0.123046875,-0.53125,-0.21875,-0.15625,0.0,0.0,0.0,700
640,1695809567499,0.3232422,0.92871094,-0.125,-0.4375,0.09375,0.03125,0.0,0.0,0.0,701
641,1695809567539,0.3125,0.9345703,-0.13574219,0.25,0.09375,0.09375,0.0,0.0,0.0,702
642,1695809567579,0.3154297,0.9238281,-0.13574219,0.25,0.3125,-0.09375,0.0,0.0,0.0,703
643,1695809567619,0.31835938,0.9296875,-0.13476562,-0.375,-0.46875,0.15625,0.0,0.0,0.0,704
644,1695809567659,0.31054688,0.9199219,-0.11816406,-0.25,-0.40625,0.09375,0.0,0.0,0.0,705
645,1695809567699,0.31152344,0.9277344,-0.13964844,0.25,0.15625,0.15625,0.0,0.0,0.0,706
646,1695809567739,0.31933594,0.9248047,-0.13867188,0.125,0.1875,-0.09375,0.0,0.0,0.0,707
647,1695809567779,0.3173828,0.9248047,-0.1484375,-0.0625,0.15625,0.03125,-12.875,36.9375,-137.625,708
648,1695809567819,0.31152344,0.92578125,-0.13867188,0.125,0.4375,-0.09375,0.0,0.0,0.0,709
649,1695809567859,0.33007812,0.9169922,-0.13867188,0.0625,0.15625,-0.09375,0.0,0.0,0.0,710
650,1695809567899,0.31640625,0.92089844,-0.13574219,0.125,0.3125,0.03125,0.0,0.0,0.0,711
651,1695809567939,0.31640625,0.9277344,-0.13964844,0.375,0.5625,0.15625,0.0,0.0,0.0,712
652,1695809567979,0.32128906,0.9169922,-0.14550781,-0.125,0.15625,-0.03125,0.0,0.0,0.0,713
653,1695809568019,0.31445312,0.92285156,-0.13867188,0.125,0.3125,-0.15625,0.0,0.0,0.0,714
654,1695809568059,0.3203125,0.9248047,-0.14648438,-0.0625,0.09375,0.03125,0.0,0.0,0.0,715
655,1695809568099,0.32128906,0.9248047,-0.15234375,-0.0625,0.03125,0.03125,0.0,0.0,0.0,716
656,1695809568139,0.31640625,0.92578125,-0.14355469,0.0625,0.09375,-0.09375,0.0,0.0,0.0,717
657,1695809568179,0.3173828,0.9169922,-0.12792969,-0.125,-0.09375,-0.15625,0.0,0.0,0.0,718
658,1695809568219,0.3251953,0.9189453,-0.13964844,-0.25,0.03125,-0.09375,0.0,0.0,0.0,719
659,1695809568259,0.3154297,0.9199219,-0.14550781,-0.375,-0.15625,-0.15625,-12.875,37.25,-137.0,720
660,1695809568299,0.32226562,0.921875,-0.13964844,-0.125,0.15625,-0.09375,0.0,0.0,0.0,721
661,1695809568339,0.31933594,0.9248047,-0.14355469,0.125,0.25,0.03125,0.0,0.0,0.0,722
662,1695809568379,0.3203125,0.9267578,-0.14746094,-0.125,-0.21875,-0.15625,0.0,0.0,0.0,723
663,1695809568419,0.3203125,0.9238281,-0.13964844,-0.4375,-0.34375,0.09375,0.0,0.0,0.0,724
664,1695809568459,0.31054688,0.9121094,-0.14160156,-0.125,0.03125,0.03125,0.0,0.0,0.0,725
665,1695809568499,0.31640625,0.92871094,-0.14160156,-0.0625,0.1875,-0.46875,0.0,0.0,0.0,726
666,1695809568539,0.32910156,0.9316406,-0.1484375,-0.25,-0.21875,-0.15625,0.0,0.0,0.0,727
667,1695809568579,0.32128906,0.9296875,-0.13671875,-0.25,-0.03125,0.21875,0.0,0.0,0.0,728
668,1695809568619,0.3154297,0.9345703,-0.13769531,-0.0625,0.25,-0.15625,0.0,0.0,0.0,729
669,1695809568659,0.31347656,0.92871094,-0.14746094,0.0625,0.15625,-0.03125,0.0,0.0,0.0,730
670,1695809568699,0.3173828,0.92578125,-0.1484375,-0.0625,0.1875,-0.09375,0.0,0.0,0.0,731
671,1695809568739,0.3173828,0.92089844,-0.13769531,-0.125,-0.28125,0.03125,0.0,0.0,0.0,732
672,1695809568779,0.32617188,0.9238281,-0.14257812,0.25,0.25,-0.09375,-11.6875,36.9375,-137.875,733
673,1695809568819,0.31933594,0.9199219,-0.14648438,0.1875,0.15625,-0.03125,0.0,0.0,0.0,734
674,1695809568859,0.31054688,0.93359375,-0.13476562,-0.0625,0.15625,0.09375,0.0,0.0,0.0,735
675,1695809568899,0.31445312,0.9267578,-0.1328125,-0.0625,0.09375,-0.03125,0.0,0.0,0.0,736
676,1695809568939,0.31347656,0.92871094,-0.13671875,0.125,0.15625,-0.21875,0.0,0.0,0.0,737
677,1695809568979,0.32226562,0.92578125,-0.13671875,-0.125,0.03125,-0.03125,0.0,0.0,0.0,738
678,1695809569019,0.32421875,0.92285156,-0.13183594,-0.3125,0.15625,0.09375,0.0,0.0,0.0,739
679,1695809569059,0.32128906,0.92089844,-0.13867188,-0.0625,0.375,-0.09375,0.0,0.0,0.0,740
680,1695809569099,0.32226562,0.9238281,-0.13476562,-0.1875,-0.21875,0.03125,0.0,0.0,0.0,741
681,1695809569139,0.3173828,0.91796875,-0.14355469,-0.25,-0.46875,-0.09375,0.0,0.0,0.0,742
682,1695809569179,0.3154297,0.9238281,-0.12597656,-0.25,-0.34375,-0.15625,0.0,0.0,0.0,743
683,1695809569219,0.31933594,0.9277344,-0.12890625,-0.125,-0.28125,-0.03125,0.0,0.0,0.0,744
684,1695809569259,0.31835938,0.921875,-0.12792969,-0.0625,0.15625,-0.21875,-12.875,37.25,-137.625,745
685,1695809569299,0.3154297,0.9238281,-0.140625,-0.0625,0.09375,-0.03125,0.0,0.0,0.0,746
686,1695809569339,0.32226562,0.9248047,-0.14355469,-0.125,0.375,-0.09375,0.0,0.0,0.0,747
687,1695809569379,0.3173828,0.91503906,-0.12597656,0.0,0.375,-0.03125,0.0,0.0,0.0,748
688,1695809569419,0.32421875,0.92578125,-0.14453125,0.0,0.5,-0.21875,0.0,0.0,0.0,749
689,1695809569459,0.32226562,0.9189453,-0.13867188,0.125,0.3125,-0.15625,0.0,0.0,0.0,750
690,1695809569499,0.31933594,0.9267578,-0.13574219,-0.0625,-0.15625,0.03125,0.0,0.0,0.0,751
691,1695809569539,0.31640625,0.92871094,-0.15527344,-0.0625,0.5,-0.15625,0.0,0.0,0.0,752
692,1695809569579,0.3125,0.921875,-0.14550781,-0.1875,-0.09375,-0.09375,0.0,0.0,0.0,753
693,1695809569619,0.31152344,0.9189453,-0.14160156,-0.1875,0.1875,-0.09375,0.0,0.0,0.0,754
694,1695809569659,0.3203125,0.9248047,-0.13769531,0.125,0.625,-0.28125,0.0,0.0,0.0,755
695,1695809569699,0.3154297,0.9296875,-0.12402344,0.0,-0.03125,-0.09375,0.0,0.0,0.0,756
696,1695809569739,0.3173828,0.9121094,-0.14355469,-0.25,0.25,-0.15625,0.0,0.0,0.0,757
697,1695809569779,0.31640625,0.92089844,-0.14453125,-0.3125,0.3125,-0.34375,-13.0625,36.0625,-138.8125,758
698,1695809569819,0.31347656,0.92285156,-0.13867188,-0.375,-0.15625,-0.09375,0.0,0.0,0.0,759
699,1695809569859,0.31835938,0.92871094,-0.14648438,0.0,0.3125,-0.03125,0.0,0.0,0.0,760
700,1695809569899,0.31347656,0.921875,-0.140625,-0.0625,0.1875,-0.34375,0.0,0.0,0.0,761
701,1695809569939,0.31933594,0.9267578,-0.13574219,-0.46875,-0.21875,-0.09375,0.0,0.0,0.0,762
702,1695809569979,0.32421875,0.9199219,-0.13964844,-0.46875,-0.15625,-0.03125,0.0,0.0,0.0,763
703,1695809570019,0.3251953,0.9160156,-0.14453125,-0.3125,-0.34375,-0.28125,0.0,0.0,0.0,764
704,1695809570059,0.3173828,0.9296875,-0.140625,-0.25,-0.28125,-0.28125,0.0,0.0,0.0,765
705,1695809570099,0.31347656,0.92089844,-0.13769531,0.0625,0.15625,-0.03125,0.0,0.0,0.0,766
706,1695809570139,0.31347656,0.92089844,-0.13085938,-0.0625,0.5625,-0.21875,0.0,0.0,0.0,767
707,1695809570179,0.3173828,0.9316406,-0.15039062,-0.0625,0.25,-0.34375,0.0,0.0,0.0,768
708,1695809570219,0.3203125,0.92578125,-0.13378906,0.0,0.5,-0.09375,0.0,0.0,0.0,769
709,1695809570259,0.3203125,0.9296875,-0.14257812,-0.1875,0.3125,-0.21875,-11.6875,36.625,-138.625,770
710,1695809570299,0.31445312,0.92285156,-0.140625,-0.25,-0.15625,-0.09375,0.0,0.0,0.0,771
711,1695809570339,0.3125,0.9238281,-0.14746094,0.1875,0.3125,0.03125,0.0,0.0,0.0,772
712,1695809570379,0.3203125,0.9267578,-0.13964844,-0.0625,0.5625,0.03125,0.0,0.0,0.0,773
713,1695809570419,0.3173828,0.9169922,-0.14453125,-0.25,-0.15625,-0.34375,0.0,0.0,0.0,774
714,1695809570459,0.31445312,0.93066406,-0.14648438,-0.46875,-0.09375,-0.28125,0.0,0.0,0.0,775
715,1695809570499,0.3173828,0.92578125,-0.12988281,-0.0625,0.09375,-0.03125,0.0,0.0,0.0,776
716,1695809570539,0.3173828,0.9277344,-0.14648438,-0.1875,-0.03125,-0.21875,0.0,0.0,0.0,777
717,1695809570579,0.3173828,0.9326172,-0.14355469,0.0,0.15625,-0.09375,0.0,0.0,0.0,778
718,1695809570619,0.33007812,0.9267578,-0.12988281,0.3125,0.09375,0.09375,0.0,0.0,0.0,779
719,1695809570659,0.31445312,0.921875,-0.13476562,-0.25,-0.15625,-0.15625,0.0,0.0,0.0,780
720,1695809570699,0.3251953,0.9296875,-0.12792969,-0.3125,-0.15625,-0.09375,0.0,0.0,0.0,781
721,1695809570739,0.3173828,0.9277344,-0.13085938,-0.125,-0.09375,-0.03125,0.0,0.0,0.0,782
722,1695809570779,0.31445312,0.921875,-0.14648438,-0.125,-0.09375,-0.15625,-12.625,37.0625,-137.4375,783
723,1695809570819,0.31933594,0.9238281,-0.14648438,-0.4375,-0.15625,-0.15625,0.0,0.0,0.0,784
724,1695809570859,0.3173828,0.921875,-0.14257812,0.1875,0.375,0.03125,0.0,0.0,0.0,785
725,1695809570899,0.3076172,0.92089844,-0.13964844,-0.0625,0.25,-0.15625,0.0,0.0,0.0,786
726,1695809570939,0.31445312,0.9248047,-0.14648438,-0.125,0.25,-0.21875,0.0,0.0,0.0,787
727,1695809570979,0.32617188,0.9238281,-0.13867188,-0.125,0.03125,-0.09375,0.0,0.0,0.0,788
728,1695809571019,0.31933594,0.9267578,-0.14160156,-0.3125,-0.09375,-0.15625,0.0,0.0,0.0,789
729,1695809571059,0.31933594,0.92285156,-0.13476562,0.0625,-0.03125,-0.03125,0.0,0.0,0.0,790
730,1695809571099,0.32226562,0.9248047,-0.12207031,-0.53125,-0.03125,-0.21875,0.0,0.0,0.0,791
731,1695809571139,0.31933594,0.9238281,-0.14648438,-0.46875,0.4375,-0.28125,0.0,0.0,0.0,792
732,1695809571179,0.31445312,0.9199219,-0.13085938,0.0,0.25,-0.09375,0.0,0.0,0.0,793
733,1695809571219,0.31933594,0.9238281,-0.13671875,-0.125,-0.15625,-0.09375,0.0,0.0,0.0,794
734,1695809571259,0.3203125,0.92871094,-0.13183594,-0.125,-0.15625,-0.03125,-13.8125,36.0625,-137.4375,795
735,1695809571299,0.3154297,0.9296875,-0.13867188,-0.3125,-0.65625,0.09375,0.0,0.0,0.0,796
736,1695809571339,0.3095703,0.9199219,-0.13867188,-0.25,-0.40625,0.09375,0.0,0.0,0.0,797
737,1695809571379,0.31347656,0.9277344,-0.14355469,-0.3125,-0.46875,-0.03125,0.0,0.0,0.0,798
738,1695809571419,0.31640625,0.92285156,-0.13964844,-0.3125,-0.28125,-0.09375,0.0,0.0,0.0,799
739,1695809571459,0.31445312,0.9248047,-0.13769531,-0.0625,0.09375,0.03125,0.0,0.0,0.0,800
740,1695809571499,0.31835938,0.9189453,-0.140625,0.1875,0.15625,-0.03125,0.0,0.0,0.0,801
741,1695809571539,0.31152344,0.9326172,-0.13476562,-0.3125,-0.03125,-0.03125,0.0,0.0,0.0,802
742,1695809571579,0.31640625,0.9316406,-0.13476562,-0.125,0.03125,0.15625,0.0,0.0,0.0,803
743,1695809571619,0.31347656,0.92285156,-0.14453125,-0.125,-0.03125,-0.03125,0.0,0.0,0.0,804
744,1695809571659,0.31640625,0.9316406,-0.12792969,0.0625,0.375,-0.03125,0.0,0.0,0.0,805
745,1695809571699,0.31640625,0.921875,-0.13769531,-0.1875,0.09375,0.03125,0.0,0.0,0.0,806
746,1695809571739,0.31054688,0.92285156,-0.14550781,-0.125,0.375,-0.15625,0.0,0.0,0.0,807
747,1695809571779,0.3173828,0.9248047,-0.13769531,0.1875,0.3125,-0.03125,-13.9375,36.625,-137.0,808
748,1695809571819,0.3173828,0.9189453,-0.14257812,0.0625,0.125,-0.03125,0.0,0.0,0.0,809
749,1695809571859,0.31933594,0.9248047,-0.13769531,0.1875,0.25,-0.03125,0.0,0.0,0.0,810
750,1695809571899,0.32128906,0.92578125,-0.13085938,0.0,-0.1875,-0.03125,0.0,0.0,0.0,811
751,1695809571939,0.3154297,0.92578125,-0.13183594,0.125,-0.25,0.03125,0.0,0.0,0.0,812
752,1695809571979,0.32421875,0.92089844,-0.13769531,-0.125,-0.1875,0.03125,0.0,0.0,0.0,813
753,1695809572019,0.31933594,0.92578125,-0.13867188,0.0,-0.3125,-0.03125,0.0,0.0,0.0,814
754,1695809572059,0.31347656,0.9238281,-0.13378906,-0.1875,-0.1875,0.09375,0.0,0.0,0.0,815
755,1695809572099,0.31152344,0.9267578,-0.14355469,0.0625,-0.125,-0.09375,0.0,0.0,0.0,816
756,1695809572139,0.3125,0.9326172,-0.13378906,0.125,0.3125,0.09375,0.0,0.0,0.0,817
757,1695809572179,0.31933594,0.9316406,-0.13085938,-0.1875,-0.3125,0.15625,0.0,0.0,0.0,818
758,1695809572219,0.3203125,0.9248047,-0.13867188,0.0625,0.3125,-0.03125,0.0,0.0,0.0,819
759,1695809572259,0.3173828,0.9296875,-0.14648438,0.125,-0.0625,0.15625,-13.1875,37.25,-135.9375,820
