,timestamp,accel_x,accel_y,accel_z,gyro_x,gyro_y,gyro_z,mag_x,mag_y,mag_z,ind
0,1695809961237,0.45410156,1.4121094,-0.95996094,143.1875,-4.0,5.78125,0.0,0.0,0.0,0
1,1695809961277,0.96875,0.8203125,-0.60546875,86.5,-74.5,25.90625,0.0,0.0,0.0,1
2,1695809961317,0.48242188,1.3271484,-0.34472656,37.34375,-94.125,11.46875,0.0,0.0,0.0,2
3,1695809961357,0.15917969,0.22460938,-0.13671875,-119.09375,-90.78125,-19.84375,0.0,0.0,0.0,3
4,1695809961397,-0.06933594,-0.10449219,-0.29785156,-144.21875,14.75,-44.6875,0.0,0.0,0.0,4
5,1695809961437,0.020507812,0.2861328,-0.14355469,-34.65625,72.71875,-7.28125,0.0,0.0,0.0,5
6,1695809961477,-0.12597656,0.12402344,-0.049804688,21.59375,16.09375,41.1875,0.0,0.0,0.0,6
7,1695809961517,0.15332031,0.42871094,-0.20410156,24.59375,14.9375,46.65625,0.0,0.0,0.0,7
8,1695809961557,1.7617188,2.0136719,-0.55859375,31.4375,-26.34375,68.03125,0.0,0.0,0.0,8
9,1695809961597,-0.24414062,-0.03515625,-0.4189453,62.1875,51.5,33.71875,0.0,0.0,0.0,9
10,1695809961637,0.9453125,1.7675781,-0.296875,-55.125,52.21875,-30.84375,0.0,0.0,0.0,10
11,1695809961677,0.80371094,1.6523438,-0.4873047,-117.5,64.90625,-24.5625,0.0,0.0,0.0,11
12,1695809961717,0.6816406,1.0410156,-0.2841797,-136.34375,128.75,-9.46875,-15.0,37.6875,-147.625,12
13,1695809961757,0.6455078,0.9716797,-0.0390625,-143.375,79.3125,-45.625,0.0,0.0,0.0,13
14,1695809961797,0.5253906,0.6972656,-0.27246094,-57.25,86.53125,-54.09375,0.0,0.0,0.0,14
15,1695809961837,0.46484375,0.21289062,-0.056640625,-11.0,36.53125,-36.71875,0.0,0.0,0.0,15
16,1695809961877,-0.064453125,-0.0009765625,-0.1796875,12.375,-22.53125,-11.4375,0.0,0.0,0.0,16
17,1695809961917,-0.0029296875,0.17089844,-0.27734375,67.6875,-64.78125,18.65625,0.0,0.0,0.0,17
18,1695809961957,0.4375,0.5371094,0.21289062,116.03125,-82.0,-0.75,0.0,0.0,0.0,18
19,1695809961997,0.9921875,2.0136719,0.037109375,136.84375,-74.1875,71.5625,0.0,0.0,0.0,19
20,1695809962037,0.2705078,1.6191406,-0.061523438,148.5625,-40.5625,-8.75,0.0,0.0,0.0,20
21,1695809962077,0.90625,1.2236328,-0.6796875,118.40625,-4.71875,-11.625,0.0,0.0,0.0,21
22,1695809962117,0.7753906,1.1367188,-0.7607422,50.78125,-58.3125,11.46875,0.0,0.0,0.0,22
23,1695809962157,0.24511719,1.0898438,-0.2548828,-38.15625,-82.40625,0.03125,0.0,0.0,0.0,23
24,1695809962197,0.0078125,0.0029296875,-0.28027344,-150.15625,-61.125,-30.125,-19.9375,36.625,-155.875,24
25,1695809962237,0.1875,0.18359375,-0.24804688,-97.28125,14.0,-51.03125,0.0,0.0,0.0,25
26,1695809962277,-0.24414062,0.22753906,0.013671875,-5.96875,73.59375,22.5625,0.0,0.0,0.0,26
27,1695809962317,-0.16601562,0.21289062,-0.032226562,4.6875,22.0625,40.25,0.0,0.0,0.0,27
28,1695809962357,0.12597656,1.0224609,-0.2705078,77.875,13.59375,69.5625,0.0,0.0,0.0,28
29,1695809962397,0.6796875,1.6191406,0.115234375,7.75,-25.21875,17.1875,0.0,0.0,0.0,29
30,1695809962437,0.16210938,0.43554688,0.049804688,32.71875,98.375,-30.96875,0.0,0.0,0.0,30
31,1695809962477,0.9042969,2.0136719,-0.48046875,-93.25,41.90625,-22.71875,0.0,0.0,0.0,31
32,1695809962517,0.7792969,1.2480469,-0.26464844,-112.5625,139.8125,-0.21875,0.0,0.0,0.0,32
33,1695809962557,0.65722656,1.2490234,-0.064453125,-123.53125,111.625,-26.875,0.0,0.0,0.0,33
34,1695809962597,0.71191406,0.91308594,-0.33203125,-102.78125,96.09375,-39.5,0.0,0.0,0.0,34
35,1695809962637,0.56640625,0.6621094,-0.1796875,-29.96875,73.03125,-41.28125,0.0,0.0,0.0,35
36,1695809962677,0.39160156,0.07910156,-0.12890625,-2.9375,21.46875,-38.53125,0.0,0.0,0.0,36
37,1695809962717,0.041015625,-0.07421875,-0.043945312,24.90625,-55.875,-10.40625,-17.875,40.8125,-138.375,37
38,1695809962757,0.11035156,0.22363281,0.7128906,52.71875,-88.28125,11.8125,0.0,0.0,0.0,38
39,1695809962797,0.07910156,1.2783203,-0.022460938,136.0,-77.96875,9.75,0.0,0.0,0.0,39
40,1695809962837,0.44140625,1.6171875,-0.045898438,161.8125,-26.4375,46.1875,0.0,0.0,0.0,40
41,1695809962877,0.9267578,2.0136719,-0.390625,142.5625,-67.21875,-15.59375,0.0,0.0,0.0,41
42,1695809962917,0.8457031,1.2490234,-0.7734375,108.71875,-68.6875,-7.59375,0.0,0.0,0.0,42
43,1695809962957,0.45410156,1.3994141,-0.6972656,56.15625,-49.875,4.375,0.0,0.0,0.0,43
44,1695809962997,0.17773438,0.7216797,-0.045898438,-51.34375,-58.9375,9.8125,0.0,0.0,0.0,44
45,1695809963037,-0.049804688,-0.17773438,-0.20117188,-117.0,-23.40625,-25.09375,0.0,0.0,0.0,45
46,1695809963077,-0.0546875,-0.02734375,-0.0390625,-58.90625,46.65625,-34.25,0.0,0.0,0.0,46
47,1695809963117,-0.07910156,0.22070312,-0.051757812,-3.71875,44.46875,5.28125,0.0,0.0,0.0,47
48,1695809963157,0.018554688,0.15136719,-0.22460938,47.0625,15.96875,40.6875,-20.875,40.375,-152.625,48
49,1695809963197,0.24121094,1.3935547,0.3408203,156.90625,-9.65625,102.03125,0.0,0.0,0.0,49
50,1695809963237,-0.4326172,0.6611328,-0.8515625,-0.25,-45.90625,19.21875,0.0,0.0,0.0,50
51,1695809963277,0.8144531,0.9472656,0.034179688,33.09375,32.09375,-35.90625,0.0,0.0,0.0,51
52,1695809963317,1.2792969,2.0136719,-0.5732422,-103.21875,-1.0,-15.65625,0.0,0.0,0.0,52
53,1695809963357,0.73828125,1.1230469,-0.24804688,-173.875,95.625,2.84375,0.0,0.0,0.0,53
54,1695809963397,0.31445312,1.1337891,-0.022460938,-171.875,39.46875,-35.1875,0.0,0.0,0.0,54
55,1695809963437,0.37109375,0.6816406,-0.3515625,-86.25,76.625,-45.625,0.0,0.0,0.0,55
56,1695809963477,0.3720703,0.32226562,-0.13964844,-19.90625,61.375,-31.8125,0.0,0.0,0.0,56
57,1695809963517,0.30273438,-0.13867188,-0.0087890625,-11.65625,-27.375,-19.90625,0.0,0.0,0.0,57
58,1695809963557,-0.10449219,0.107421875,0.07324219,24.90625,-77.65625,9.875,0.0,0.0,0.0,58
59,1695809963597,0.13769531,0.296875,0.31152344,66.59375,-80.03125,10.40625,0.0,0.0,0.0,59
60,1695809963637,1.0253906,2.0136719,0.21386719,126.09375,-64.15625,50.34375,0.0,0.0,0.0,60
61,1695809963677,0.21191406,1.4873047,0.041992188,117.4375,-54.40625,32.4375,-19.375,40.8125,-145.5625,61
62,1695809963717,0.83691406,1.6621094,-0.67089844,133.71875,-20.28125,-16.0,0.0,0.0,0.0,62
63,1695809963757,0.8798828,1.2470703,-0.7470703,77.5625,-48.78125,21.34375,0.0,0.0,0.0,63
64,1695809963797,0.5,1.3300781,-0.5205078,43.34375,-47.375,8.28125,0.0,0.0,0.0,64
65,1695809963837,0.107421875,0.45214844,0.04296875,-82.9375,-67.34375,17.25,0.0,0.0,0.0,65
66,1695809963877,0.09375,0.095703125,-0.08496094,-99.65625,-5.625,-29.25,0.0,0.0,0.0,66
67,1695809963917,-0.12597656,0.25,0.059570312,-56.8125,51.1875,-21.875,0.0,0.0,0.0,67
68,1695809963957,-0.31054688,0.11230469,-0.068359375,-12.09375,66.1875,26.46875,0.0,0.0,0.0,68
69,1695809963997,0.18066406,0.27539062,-0.055664062,47.0625,40.625,39.21875,0.0,0.0,0.0,69
70,1695809964037,0.024414062,0.7470703,-0.453125,57.9375,52.46875,99.03125,0.0,0.0,0.0,70
71,1695809964077,0.33496094,0.58496094,-0.33789062,-34.375,-96.09375,26.53125,0.0,0.0,0.0,71
72,1695809964117,0.19628906,0.9667969,0.049804688,5.96875,30.5625,-24.375,0.0,0.0,0.0,72
73,1695809964157,0.8564453,1.8925781,-0.46972656,-120.0,41.90625,-12.09375,0.0,0.0,0.0,73
74,1695809964197,0.6767578,1.1396484,-0.15039062,-142.03125,122.34375,-0.625,-14.375,36.3125,-149.625,74
75,1695809964237,0.39160156,1.3134766,-0.06933594,-158.9375,59.4375,-40.1875,0.0,0.0,0.0,75
76,1695809964277,0.60839844,0.77441406,-0.24414062,-72.6875,114.71875,-51.59375,0.0,0.0,0.0,76
77,1695809964317,0.3876953,0.38867188,-0.123046875,-28.4375,62.0,-40.0,0.0,0.0,0.0,77
78,1695809964357,0.23828125,0.111328125,-0.16699219,4.09375,-16.5,-23.15625,0.0,0.0,0.0,78
79,1695809964397,-0.044921875,0.046875,0.05859375,49.125,-57.40625,6.09375,0.0,0.0,0.0,79
80,1695809964437,0.16992188,0.16503906,0.3720703,84.84375,-73.15625,2.3125,0.0,0.0,0.0,80
81,1695809964477,0.89746094,2.0136719,-0.390625,144.15625,-76.9375,49.28125,0.0,0.0,0.0,81
82,1695809964517,0.2626953,1.4267578,0.13867188,111.625,-54.40625,35.3125,0.0,0.0,0.0,82
83,1695809964557,0.9355469,1.7041016,-0.7128906,137.6875,-35.90625,-18.875,0.0,0.0,0.0,83
84,1695809964597,0.68847656,1.1425781,-0.75,63.40625,-66.6875,15.375,0.0,0.0,0.0,84
85,1695809964637,0.6386719,1.4355469,-0.38085938,47.0625,-51.40625,2.3125,0.0,0.0,0.0,85
86,1695809964677,-0.14453125,0.19433594,-0.016601562,-88.0625,-93.59375,-24.8125,-21.625,33.9375,-156.5,86
87,1695809964717,-0.06640625,-0.1015625,-0.1640625,-112.5,13.90625,-34.625,0.0,0.0,0.0,87
88,1695809964757,-0.005859375,0.13085938,-0.049804688,-38.40625,62.96875,-24.5625,0.0,0.0,0.0,88
89,1695809964797,-0.09375,0.12207031,-0.16894531,17.9375,34.78125,35.875,0.0,0.0,0.0,89
90,1695809964837,0.41503906,0.14453125,-0.19921875,48.21875,-0.09375,60.46875,0.0,0.0,0.0,90
91,1695809964877,0.43066406,2.0136719,0.015625,70.96875,40.75,144.28125,0.0,0.0,0.0,91
92,1695809964917,-0.5029297,0.12109375,-0.65527344,16.0625,21.53125,29.15625,0.0,0.0,0.0,92
93,1695809964957,1.0585938,1.8232422,-0.26757812,-59.75,54.90625,-21.625,0.0,0.0,0.0,93
94,1695809964997,0.9941406,1.7539062,-0.48632812,-109.375,44.96875,-39.4375,0.0,0.0,0.0,94
95,1695809965037,0.6191406,0.9765625,-0.14746094,-137.21875,125.28125,-3.3125,0.0,0.0,0.0,95
96,1695809965077,0.4638672,1.0703125,-0.080078125,-144.09375,54.84375,-46.03125,0.0,0.0,0.0,96
97,1695809965117,0.40039062,0.66308594,-0.140625,-56.8125,84.5,-48.25,0.0,0.0,0.0,97
98,1695809965157,0.25976562,0.111328125,-0.078125,-21.375,54.46875,-49.28125,0.0,0.0,0.0,98
99,1695809965197,0.21777344,0.06542969,-0.12011719,-0.84375,-16.5625,-23.46875,-20.25,42.8125,-136.6875,99
100,1695809965237,-0.103515625,0.23535156,0.15039062,25.4375,-59.46875,9.9375,0.0,0.0,0.0,100
101,1695809965277,0.38671875,0.375,0.6269531,96.3125,-76.3125,4.4375,0.0,0.0,0.0,101
102,1695809965317,1.3671875,2.0136719,-0.10253906,159.84375,-80.09375,56.375,0.0,0.0,0.0,102
103,1695809965357,0.6699219,1.640625,0.060546875,134.09375,-44.53125,21.84375,0.0,0.0,0.0,103
104,1695809965397,0.96777344,1.3232422,-0.75878906,128.90625,-112.21875,-3.25,0.0,0.0,0.0,104
105,1695809965437,0.66308594,1.4130859,-0.671875,58.53125,-124.40625,31.65625,0.0,0.0,0.0,105
106,1695809965477,0.2998047,1.3896484,-0.38476562,26.0,-92.78125,3.09375,0.0,0.0,0.0,106
107,1695809965517,0.052734375,0.041992188,0.044921875,-113.53125,-100.0,9.4375,0.0,0.0,0.0,107
108,1695809965557,-0.013671875,-0.01953125,-0.032226562,-127.0625,-35.53125,-23.9375,0.0,0.0,0.0,108
109,1695809965597,-0.103515625,0.08300781,-0.111328125,-68.90625,-18.875,-23.15625,0.0,0.0,0.0,109
110,1695809965637,-0.13378906,0.23632812,-0.12597656,-34.84375,-20.21875,3.53125,0.0,0.0,0.0,110
111,1695809965677,0.23339844,0.35253906,-0.17578125,43.40625,-52.15625,16.8125,-24.4375,39.9375,-146.75,111
112,1695809965717,0.28125,1.8564453,0.29492188,207.53125,-104.28125,71.625,0.0,0.0,0.0,112
113,1695809965757,0.111328125,0.3486328,-0.9902344,24.53125,-79.5625,7.65625,0.0,0.0,0.0,113
114,1695809965797,1.0576172,1.0410156,0.0078125,-11.15625,58.6875,9.0625,0.0,0.0,0.0,114
115,1695809965837,1.2412109,2.0136719,-0.4814453,-158.4375,-46.53125,9.875,0.0,0.0,0.0,115
116,1695809965877,0.4248047,1.4091797,-0.3642578,-194.65625,69.25,24.625,0.0,0.0,0.0,116
117,1695809965917,0.6230469,1.1308594,-0.22363281,-155.875,51.625,-0.03125,0.0,0.0,0.0,117
118,1695809965957,0.69140625,0.63671875,-0.12011719,-80.5625,20.4375,-39.5625,0.0,0.0,0.0,118
119,1695809965997,-0.033203125,0.36035156,-0.1953125,-31.6875,-13.625,-48.4375,0.0,0.0,0.0,119
120,1695809966037,0.1640625,0.015625,-0.1015625,11.0625,-68.3125,-43.28125,0.0,0.0,0.0,120
121,1695809966077,-0.08886719,0.043945312,-0.03125,35.03125,-114.34375,-18.34375,0.0,0.0,0.0,121
122,1695809966117,0.37695312,0.19726562,0.4375,85.375,-89.0,-23.21875,0.0,0.0,0.0,122
123,1695809966157,1.9335938,2.0136719,-0.22949219,119.5625,-142.0,22.375,-27.3125,38.875,-138.8125,123
124,1695809966197,0.63183594,1.1162109,0.24316406,95.46875,-118.90625,38.75,0.0,0.0,0.0,124
125,1695809966237,1.1855469,1.4326172,-0.7626953,102.90625,-145.28125,27.125,0.0,0.0,0.0,125
126,1695809966277,0.66308594,1.3144531,-0.50878906,34.0625,-171.59375,62.28125,0.0,0.0,0.0,126
127,1695809966317,0.3046875,1.5195312,-0.31640625,-7.15625,-142.0625,39.96875,0.0,0.0,0.0,127
128,1695809966357,0.2626953,0.4951172,0.0546875,-82.6875,-109.28125,31.46875,0.0,0.0,0.0,128
129,1695809966397,0.0048828125,0.15820312,0.0107421875,-119.09375,-81.5625,10.53125,0.0,0.0,0.0,129
130,1695809966437,-0.07714844,0.26464844,-0.12792969,-84.65625,-75.78125,8.03125,0.0,0.0,0.0,130
131,1695809966477,0.041992188,0.25097656,-0.07714844,-24.15625,-110.0,21.03125,0.0,0.0,0.0,131
132,1695809966517,0.12597656,0.37109375,-0.31640625,60.71875,-83.46875,64.0,0.0,0.0,0.0,132
133,1695809966557,0.55371094,0.6455078,0.16992188,140.625,-77.59375,117.15625,0.0,0.0,0.0,133
134,1695809966597,0.74609375,2.0136719,0.037109375,51.9375,-202.90625,-2.40625,0.0,0.0,0.0,134
135,1695809966637,0.28710938,0.6503906,0.20019531,72.75,-5.8125,-12.09375,0.0,0.0,0.0,135
136,1695809966677,0.9296875,2.0136719,-0.6953125,-78.5625,15.28125,30.625,-17.125,38.75,-141.0625,136
137,1695809966717,0.95214844,1.3300781,-0.734375,-177.6875,50.625,20.1875,0.0,0.0,0.0,137
138,1695809966757,0.58203125,1.0615234,-0.21777344,-198.125,40.03125,32.875,0.0,0.0,0.0,138
139,1695809966797,0.5263672,0.89453125,-0.17480469,-148.5,-9.4375,-9.65625,0.0,0.0,0.0,139
140,1695809966837,0.32714844,0.45214844,-0.033203125,-54.03125,-27.375,-43.78125,0.0,0.0,0.0,140
141,1695809966877,-0.07128906,0.0146484375,-0.09765625,-38.9375,-70.09375,-47.125,0.0,0.0,0.0,141
142,1695809966917,0.064453125,-0.09472656,-0.16894531,10.3125,-92.6875,-14.96875,0.0,0.0,0.0,142
143,1695809966957,0.08105469,0.08984375,0.32421875,26.125,-142.40625,3.09375,0.0,0.0,0.0,143
144,1695809966997,-0.0146484375,1.8134766,-0.08203125,135.6875,-157.25,10.65625,0.0,0.0,0.0,144
145,1695809967037,0.2939453,1.3916016,-0.13671875,79.71875,-82.84375,71.8125,0.0,0.0,0.0,145
146,1695809967077,1.5009766,1.4746094,-0.34570312,105.71875,-127.59375,27.9375,0.0,0.0,0.0,146
147,1695809967117,0.65722656,1.0761719,-0.69140625,46.75,-207.84375,48.375,0.0,0.0,0.0,147
148,1695809967157,0.28027344,1.6806641,-0.6669922,18.3125,-165.84375,59.375,0.0,0.0,0.0,148
149,1695809967197,0.4970703,1.1044922,-0.19921875,-9.21875,-116.84375,33.0625,-12.0,38.5625,-140.625,149
150,1695809967237,0.17089844,0.119140625,0.0068359375,-131.21875,-77.71875,49.1875,0.0,0.0,0.0,150
151,1695809967277,-0.07324219,0.37109375,-0.10253906,-114.5,-87.4375,-4.65625,0.0,0.0,0.0,151
152,1695809967317,-0.12011719,0.32226562,-0.1875,-63.46875,-63.125,7.1875,0.0,0.0,0.0,152
153,1695809967357,0.1796875,0.171875,-0.26464844,29.84375,-90.78125,41.375,0.0,0.0,0.0,153
154,1695809967397,0.3466797,0.23046875,-0.2685547,55.40625,-51.40625,89.75,0.0,0.0,0.0,154
155,1695809967437,0.43066406,2.0136719,0.45996094,16.59375,29.875,131.8125,0.0,0.0,0.0,155
156,1695809967477,-0.09765625,0.25,-0.7714844,7.75,-150.34375,30.0625,0.0,0.0,0.0,156
157,1695809967517,0.81933594,1.09375,0.13183594,-67.0625,51.75,45.28125,0.0,0.0,0.0,157
158,1695809967557,1.3037109,1.7822266,-0.46777344,-135.375,-50.625,41.59375,0.0,0.0,0.0,158
159,1695809967597,0.50878906,1.4599609,-0.22167969,-186.84375,33.375,34.78125,0.0,0.0,0.0,159
160,1695809967637,0.54296875,1.2080078,-0.064453125,-160.34375,40.6875,-1.125,0.0,0.0,0.0,160
161,1695809967677,0.46484375,0.8125,-0.21679688,-107.0625,32.03125,-29.4375,3.875,35.3125,-127.125,161
162,1695809967717,0.22460938,0.4140625,-0.19238281,-41.8125,15.59375,-42.3125,0.0,0.0,0.0,162
163,1695809967757,0.20996094,-0.087890625,-0.18457031,-47.1875,-36.21875,-29.25,0.0,0.0,0.0,163
164,1695809967797,0.1171875,-0.15625,0.08886719,4.875,-94.875,-4.71875,0.0,0.0,0.0,164
165,1695809967837,0.40429688,0.4794922,0.44628906,54.625,-107.875,11.03125,0.0,0.0,0.0,165
166,1695809967877,0.9277344,2.0136719,0.06933594,107.375,-99.15625,73.40625,0.0,0.0,0.0,166
167,1695809967917,0.43164062,1.1914062,0.11035156,88.625,-98.59375,28.125,0.0,0.0,0.0,167
168,1695809967957,0.82128906,1.7685547,-0.56640625,150.15625,-86.5,-9.84375,0.0,0.0,0.0,168
169,1695809967997,0.70410156,1.3603516,-0.64453125,102.28125,-69.78125,30.0,0.0,0.0,0.0,169
170,1695809968037,0.57128906,1.4550781,-0.4638672,46.9375,-62.71875,21.53125,0.0,0.0,0.0,170
171,1695809968077,0.125,0.28710938,-0.14257812,-71.78125,-72.65625,33.71875,0.0,0.0,0.0,171
172,1695809968117,-0.0048828125,0.13769531,-0.22070312,-104.375,-23.78125,-8.75,0.0,0.0,0.0,172
173,1695809968157,-0.07910156,0.107421875,-0.07421875,-60.78125,16.15625,-19.5,0.0,0.0,0.0,173
174,1695809968197,-0.07910156,-0.009765625,-0.13378906,-10.75,27.5625,24.75,8.25,35.5625,-144.1875,174
175,1695809968237,0.24121094,0.018554688,-0.3095703,3.59375,-1.78125,58.4375,0.0,0.0,0.0,175
176,1695809968277,0.022460938,1.7314453,0.16894531,139.46875,-27.0625,127.0,0.0,0.0,0.0,176
177,1695809968317,-0.71484375,0.4580078,-0.6279297,-39.96875,-6.4375,61.9375,0.0,0.0,0.0,177
178,1695809968357,0.72558594,1.3876953,0.35742188,8.96875,74.625,-23.40625,0.0,0.0,0.0,178
179,1695809968397,0.5966797,1.9697266,-0.28710938,-96.5625,43.8125,-28.46875,0.0,0.0,0.0,179
180,1695809968437,0.50683594,0.98339844,-0.078125,-119.09375,160.6875,4.5,0.0,0.0,0.0,180
181,1695809968477,0.50097656,0.9970703,0.068359375,-113.59375,99.9375,-33.40625,0.0,0.0,0.0,181
182,1695809968517,0.6748047,0.5908203,-0.3720703,-49.75,90.125,-41.84375,0.0,0.0,0.0,182
183,1695809968557,0.47851562,0.3203125,-0.33496094,-15.3125,65.78125,-29.4375,0.0,0.0,0.0,183
184,1695809968597,0.1875,0.10644531,-0.22363281,-32.34375,5.34375,-12.59375,0.0,0.0,0.0,184
185,1695809968637,0.13476562,-0.0390625,0.13964844,14.09375,-56.40625,4.96875,0.0,0.0,0.0,185
186,1695809968677,0.4453125,0.93652344,0.056640625,33.1875,-110.875,50.6875,11.6875,33.1875,-126.0625,186
187,1695809968717,0.0234375,1.7392578,-0.005859375,86.4375,-83.03125,56.625,0.0,0.0,0.0,187
188,1695809968757,0.45214844,1.9912109,-0.15722656,126.21875,-45.90625,7.84375,0.0,0.0,0.0,188
189,1695809968797,0.8769531,1.5966797,-0.61035156,145.625,-25.96875,-17.28125,0.0,0.0,0.0,189
190,1695809968837,0.73828125,1.5185547,-0.6923828,100.53125,-43.40625,2.65625,0.0,0.0,0.0,190
191,1695809968877,0.1171875,0.890625,-0.35839844,18.96875,-25.78125,7.90625,0.0,0.0,0.0,191
192,1695809968917,-0.11425781,-0.072265625,-0.01953125,-57.0,2.40625,-11.1875,0.0,0.0,0.0,192
193,1695809968957,-0.140625,-0.23144531,0.056640625,-57.3125,27.25,-32.375,0.0,0.0,0.0,193
194,1695809968997,-0.12109375,-0.12207031,-0.06347656,-6.90625,55.59375,-13.21875,0.0,0.0,0.0,194
195,1695809969037,0.2705078,0.21875,-0.42382812,30.9375,78.84375,45.9375,0.0,0.0,0.0,195
196,1695809969077,-0.001953125,1.2470703,-0.12207031,112.84375,22.5,119.90625,0.0,0.0,0.0,196
197,1695809969117,-0.90625,1.2470703,-0.5253906,-7.3125,-3.6875,35.125,0.0,0.0,0.0,197
198,1695809969157,0.4736328,1.3232422,0.32714844,27.46875,109.78125,-49.71875,0.0,0.0,0.0,198
199,1695809969197,0.64746094,2.0136719,-0.46875,-93.75,123.6875,-57.6875,18.125,25.6875,-143.0,199
200,1695809969237,0.83496094,0.89746094,0.0126953125,-119.3125,228.90625,-4.125,0.0,0.0,0.0,200
201,1695809969277,0.5029297,1.0039062,0.12792969,-126.84375,90.4375,-46.78125,0.0,0.0,0.0,201
202,1695809969317,0.55371094,0.6855469,-0.20019531,-47.78125,129.90625,-56.65625,0.0,0.0,0.0,202
203,1695809969357,0.38867188,0.32910156,-0.19238281,-6.21875,112.34375,-40.84375,0.0,0.0,0.0,203
204,1695809969397,0.43359375,-0.032226562,-0.15820312,22.15625,25.5625,-18.28125,0.0,0.0,0.0,204
205,1695809969437,0.13867188,0.09082031,0.125,44.90625,-40.71875,28.53125,0.0,0.0,0.0,205
206,1695809969477,0.041992188,0.4794922,0.3466797,66.34375,-82.46875,38.4375,0.0,0.0,0.0,206
207,1695809969517,1.0302734,2.0136719,-0.12890625,184.8125,-51.15625,54.46875,0.0,0.0,0.0,207
208,1695809969557,0.39160156,1.6035156,0.032226562,123.84375,-45.8125,-4.71875,0.0,0.0,0.0,208
209,1695809969597,0.8408203,1.6728516,-0.78222656,161.0625,-6.4375,-29.125,0.0,0.0,0.0,209
210,1695809969637,0.76660156,1.3173828,-0.7949219,84.65625,-65.5,-5.75,0.0,0.0,0.0,210
211,1695809969677,0.3623047,1.2900391,-0.3857422,58.46875,-35.90625,-13.8125,8.875,28.25,-141.625,211
212,1695809969717,-0.12109375,0.19726562,-0.15039062,-65.625,-8.09375,-10.65625,0.0,0.0,0.0,212
213,1695809969757,0.06738281,-0.072265625,-0.08496094,-98.75,38.4375,-34.75,0.0,0.0,0.0,213
214,1695809969797,-0.013671875,-0.051757812,-0.037109375,-28.9375,47.15625,-21.4375,0.0,0.0,0.0,214
215,1695809969837,-0.12890625,0.07324219,-0.23046875,12.875,44.78125,31.96875,0.0,0.0,0.0,215
216,1695809969877,0.18652344,0.04296875,-0.1796875,28.4375,20.71875,50.34375,0.0,0.0,0.0,216
217,1695809969917,0.6660156,2.0136719,-0.8183594,123.65625,-32.25,106.0625,0.0,0.0,0.0,217
218,1695809969957,-0.35839844,0.3857422,-0.3076172,57.75,52.21875,17.875,0.0,0.0,0.0,218
219,1695809969997,0.7285156,1.3388672,-0.4248047,-28.1875,39.59375,-23.53125,0.0,0.0,0.0,219
220,1695809970037,1.0361328,1.6777344,-0.3125,-107.78125,83.15625,-10.6875,0.0,0.0,0.0,220
221,1695809970077,0.8828125,1.2236328,-0.2548828,-137.34375,153.59375,-7.59375,0.0,0.0,0.0,221
222,1695809970117,0.5332031,1.0664062,-0.115234375,-120.25,50.75,-56.59375,0.0,0.0,0.0,222
223,1695809970157,0.26464844,0.8017578,-0.25097656,-50.28125,83.71875,-55.125,0.0,0.0,0.0,223
224,1695809970197,0.36816406,0.19238281,-0.10253906,-6.65625,67.78125,-50.625,5.125,29.125,-121.375,224
225,1695809970237,0.19140625,-0.0009765625,-0.061523438,18.0,-3.25,-34.6875,0.0,0.0,0.0,225
226,1695809970277,-0.024414062,0.028320312,0.07714844,48.34375,-53.6875,0.40625,0.0,0.0,0.0,226
227,1695809970317,0.3876953,0.14160156,0.4140625,77.15625,-83.34375,-2.34375,0.0,0.0,0.0,227
228,1695809970357,1.4248047,2.0136719,-0.46484375,162.28125,-101.90625,40.75,0.0,0.0,0.0,228
229,1695809970397,0.2421875,1.5097656,0.16308594,145.4375,-24.9375,35.3125,0.0,0.0,0.0,229
230,1695809970437,1.1416016,1.1494141,-0.7050781,130.3125,-87.65625,-18.40625,0.0,0.0,0.0,230
231,1695809970477,0.7548828,1.2236328,-0.7011719,41.9375,-124.46875,20.78125,0.0,0.0,0.0,231
232,1695809970517,0.36035156,1.40625,-0.4892578,4.5625,-76.3125,-7.34375,0.0,0.0,0.0,232
233,1695809970557,0.12207031,0.07421875,-0.057617188,-127.4375,-64.125,-5.5,0.0,0.0,0.0,233
234,1695809970597,-0.12109375,0.037109375,-0.19140625,-103.9375,15.1875,-35.3125,0.0,0.0,0.0,234
235,1695809970637,0.015625,0.18847656,-0.060546875,-19.84375,41.65625,-12.03125,0.0,0.0,0.0,235
236,1695809970677,-0.2578125,0.0087890625,-0.14941406,6.21875,29.53125,31.34375,3.875,36.3125,-139.5625,236
237,1695809970717,0.05078125,0.3408203,0.14550781,53.65625,30.125,43.375,0.0,0.0,0.0,237
238,1695809970757,2.0126953,2.0136719,-0.546875,66.65625,-155.71875,4.0,0.0,0.0,0.0,238
239,1695809970797,-0.0146484375,0.13867188,-0.11621094,29.59375,58.9375,8.21875,0.0,0.0,0.0,239
240,1695809970837,0.8925781,1.9160156,-0.26464844,-109.125,13.40625,17.75,0.0,0.0,0.0,240
241,1695809970877,0.74902344,1.3847656,-0.4111328,-173.875,72.4375,12.1875,0.0,0.0,0.0,241
242,1695809970917,0.48535156,1.3046875,-0.31445312,-148.9375,89.09375,-3.8125,0.0,0.0,0.0,242
243,1695809970957,0.40625,0.66015625,-0.21777344,-89.0,67.0625,-30.0,0.0,0.0,0.0,243
244,1695809970997,0.20507812,0.28710938,-0.24707031,-24.0,55.40625,-57.9375,0.0,0.0,0.0,244
245,1695809971037,0.2734375,0.09472656,-0.16796875,-23.25,-13.875,-55.5,0.0,0.0,0.0,245
246,1695809971077,-0.057617188,0.0087890625,-0.018554688,20.5,-61.5,-16.9375,0.0,0.0,0.0,246
247,1695809971117,0.11425781,0.11328125,0.23242188,55.25,-64.15625,-0.15625,0.0,0.0,0.0,247
248,1695809971157,0.48828125,2.0136719,-0.2109375,138.96875,-94.875,11.46875,0.0,0.0,0.0,248
249,1695809971197,0.13476562,1.4375,0.16308594,118.90625,-79.25,48.5625,0.875,32.875,-131.875,249
250,1695809971237,1.1083984,1.8701172,-0.7363281,137.21875,-54.09375,-1.375,0.0,0.0,0.0,250
251,1695809971277,1.0957031,1.0712891,-0.6220703,61.71875,-139.25,27.25,0.0,0.0,0.0,251
252,1695809971317,0.28320312,1.5351562,-0.40625,20.5,-90.34375,28.53125,0.0,0.0,0.0,252
253,1695809971357,0.12695312,0.4638672,0.17285156,-84.09375,-104.9375,26.09375,0.0,0.0,0.0,253
254,1695809971397,-0.20019531,-0.072265625,-0.0048828125,-116.53125,-33.21875,-14.375,0.0,0.0,0.0,254
255,1695809971437,-0.24511719,0.12597656,-0.11230469,-63.96875,13.28125,-26.5625,0.0,0.0,0.0,255
256,1695809971477,-0.125,0.28222656,-0.15917969,-3.0,34.46875,17.3125,0.0,0.0,0.0,256
257,1695809971517,0.29785156,0.15527344,-0.28125,60.1875,-27.25,61.9375,0.0,0.0,0.0,257
258,1695809971557,0.10644531,1.1464844,0.21582031,136.96875,-9.125,150.4375,0.0,0.0,0.0,258
259,1695809971597,-0.91796875,0.796875,-0.81640625,-24.65625,-103.84375,61.125,0.0,0.0,0.0,259
260,1695809971637,1.0742188,1.2314453,0.35351562,34.1875,65.21875,-34.6875,0.0,0.0,0.0,260
261,1695809971677,0.75878906,2.0136719,-0.49414062,-107.53125,7.0625,-33.03125,7.0625,28.25,-143.625,261
262,1695809971717,0.65625,1.2080078,-0.17480469,-167.65625,140.65625,23.40625,0.0,0.0,0.0,262
263,1695809971757,0.5185547,1.1640625,-0.001953125,-169.1875,84.03125,-15.40625,0.0,0.0,0.0,263
264,1695809971797,0.47851562,0.7128906,-0.2861328,-77.40625,91.28125,-49.03125,0.0,0.0,0.0,264
265,1695809971837,0.16113281,0.19824219,-0.16113281,-26.375,66.03125,-52.03125,0.0,0.0,0.0,265
266,1695809971877,0.23730469,0.057617188,-0.13476562,-19.21875,-4.34375,-37.0625,0.0,0.0,0.0,266
267,1695809971917,0.072265625,-0.001953125,0.09765625,24.15625,-39.75,4.0,0.0,0.0,0.0,267
268,1695809971957,0.34472656,0.16308594,0.390625,46.875,-68.5625,21.84375,0.0,0.0,0.0,268
269,1695809971997,0.4345703,2.0136719,-0.5126953,134.75,-88.28125,44.90625,0.0,0.0,0.0,269
270,1695809972037,0.296875,1.5429688,0.19628906,118.71875,-63.9375,42.15625,0.0,0.0,0.0,270
271,1695809972077,0.7314453,1.6923828,-0.70996094,155.75,0.46875,-10.9375,0.0,0.0,0.0,271
272,1695809972117,0.890625,1.1064453,-0.5566406,88.375,-48.3125,13.03125,0.0,0.0,0.0,272
273,1695809972157,0.37402344,1.2724609,-0.3623047,59.21875,-43.125,-1.4375,0.0,0.0,0.0,273
274,1695809972197,-0.03125,0.45507812,0.033203125,-39.625,-56.65625,-7.03125,7.0625,26.75,-147.5,274
275,1695809972237,-0.10839844,0.046875,-0.13964844,-89.84375,19.03125,-17.96875,0.0,0.0,0.0,275
276,1695809972277,0.064453125,0.13476562,-0.13574219,-31.625,57.21875,-28.9375,0.0,0.0,0.0,276
277,1695809972317,0.01171875,-0.0029296875,-0.09765625,2.5625,49.40625,23.40625,0.0,0.0,0.0,277
278,1695809972357,0.07324219,0.056640625,-0.11035156,25.15625,15.34375,64.90625,0.0,0.0,0.0,278
279,1695809972397,-0.018554688,1.5136719,-0.40527344,124.8125,-7.71875,112.03125,0.0,0.0,0.0,279
280,1695809972437,-0.59277344,0.29785156,-0.5800781,9.53125,19.09375,99.96875,0.0,0.0,0.0,280
281,1695809972477,0.40039062,0.9785156,0.022460938,19.03125,31.65625,-14.78125,0.0,0.0,0.0,281
282,1695809972517,0.97753906,2.0039062,-0.3955078,-89.84375,56.3125,-24.5,0.0,0.0,0.0,282
283,1695809972557,0.8125,1.1582031,-0.17871094,-107.65625,134.75,-16.875,0.0,0.0,0.0,283
284,1695809972597,0.5234375,0.99316406,-0.04296875,-125.125,72.0,-39.03125,0.0,0.0,0.0,284
285,1695809972637,0.375,0.9941406,-0.17675781,-74.59375,98.96875,-54.34375,0.0,0.0,0.0,285
286,1695809972677,0.30371094,0.6777344,-0.3486328,-13.0,101.96875,-41.59375,8.6875,28.375,-127.25,286
287,1695809972717,0.43652344,0.052734375,-0.095703125,12.9375,77.6875,-35.90625,0.0,0.0,0.0,287
288,1695809972757,0.15625,-0.11328125,-0.049804688,16.46875,-16.0625,-4.46875,0.0,0.0,0.0,288
289,1695809972797,0.20019531,0.11621094,0.24804688,39.71875,-75.34375,23.71875,0.0,0.0,0.0,289
290,1695809972837,0.5214844,2.0136719,-0.28515625,95.65625,-127.84375,54.0625,0.0,0.0,0.0,290
291,1695809972877,0.052734375,1.4033203,-0.068359375,102.71875,-52.625,33.96875,0.0,0.0,0.0,291
292,1695809972917,0.9628906,1.7646484,-0.39453125,160.09375,12.1875,-24.3125,0.0,0.0,0.0,292
293,1695809972957,0.8535156,1.1513672,-0.68066406,111.3125,-15.15625,-5.40625,0.0,0.0,0.0,293
294,1695809972997,0.5234375,1.4326172,-0.64453125,73.59375,-14.625,-4.0,0.0,0.0,0.0,294
295,1695809973037,0.024414062,0.6904297,-0.111328125,0.375,-9.53125,-18.28125,0.0,0.0,0.0,295
296,1695809973077,-0.047851562,-0.01953125,-0.19042969,-81.90625,60.21875,-23.15625,0.0,0.0,0.0,296
297,1695809973117,0.09863281,0.0146484375,-0.15722656,-55.96875,51.1875,-39.09375,0.0,0.0,0.0,297
298,1695809973157,-0.037109375,-0.08984375,0.009765625,5.25,77.6875,22.0,0.0,0.0,0.0,298
299,1695809973197,-0.044921875,0.16992188,-0.3544922,17.21875,37.8125,47.40625,7.375,29.5625,-133.25,299
300,1695809973237,0.6269531,2.0136719,-0.34277344,101.9375,38.625,108.375,0.0,0.0,0.0,300
301,1695809973277,-0.53222656,0.50878906,-0.35546875,26.5625,4.96875,-4.125,0.0,0.0,0.0,301
302,1695809973317,0.67285156,1.3115234,0.033203125,37.90625,74.4375,-59.78125,0.0,0.0,0.0,302
303,1695809973357,1.0136719,1.7382812,-0.45898438,-75.4375,92.25,-17.34375,0.0,0.0,0.0,303
304,1695809973397,0.83496094,1.1484375,-0.19921875,-93.09375,162.09375,-9.71875,0.0,0.0,0.0,304
305,1695809973437,0.43945312,1.1982422,-0.0048828125,-105.53125,93.71875,-49.59375,0.0,0.0,0.0,305
306,1695809973477,0.46972656,0.96484375,-0.203125,-67.25,121.1875,-61.0625,0.0,0.0,0.0,306
307,1695809973517,0.7167969,0.5136719,-0.2626953,-3.40625,106.96875,-53.90625,0.0,0.0,0.0,307
308,1695809973557,0.29589844,0.11328125,-0.20800781,-0.3125,47.34375,-32.0,0.0,0.0,0.0,308
309,1695809973597,0.171875,0.051757812,-0.06347656,33.09375,-10.09375,-6.25,0.0,0.0,0.0,309
310,1695809973637,-0.032226562,0.087890625,0.14257812,61.03125,-44.09375,8.71875,0.0,0.0,0.0,310
311,1695809973677,0.46972656,1.203125,0.07519531,136.78125,-66.78125,-0.03125,0.0,31.5625,-117.1875,311
312,1695809973717,0.13183594,1.6464844,-0.0546875,143.96875,-0.9375,61.75,0.0,0.0,0.0,312
313,1695809973757,1.0351562,1.5595703,-0.3046875,121.75,-37.0625,-26.28125,0.0,0.0,0.0,313
314,1695809973797,1.0,1.1455078,-0.6611328,99.4375,-108.40625,-12.84375,0.0,0.0,0.0,314
315,1695809973837,0.4345703,1.3876953,-0.7421875,74.15625,-99.21875,6.09375,0.0,0.0,0.0,315
316,1695809973877,0.43847656,1.1142578,-0.16601562,2.625,-85.03125,-2.09375,0.0,0.0,0.0,316
317,1695809973917,-0.046875,0.0234375,-0.15234375,-119.25,-58.0,-8.5,0.0,0.0,0.0,317
318,1695809973957,-0.052734375,0.10546875,-0.13867188,-106.1875,23.34375,-23.75,0.0,0.0,0.0,318
319,1695809973997,0.0009765625,0.2685547,-0.032226562,-25.4375,48.25,-23.65625,0.0,0.0,0.0,319
320,1695809974037,-0.046875,0.07910156,-0.18945312,21.46875,33.25,26.65625,0.0,0.0,0.0,320
321,1695809974077,0.07324219,0.91308594,-0.029296875,120.4375,-22.46875,58.375,0.0,0.0,0.0,321
322,1695809974117,1.4589844,2.0136719,-0.5527344,44.6875,-80.90625,20.3125,0.0,0.0,0.0,322
323,1695809974157,0.13183594,0.8251953,-0.11035156,-16.78125,-11.6875,-2.65625,0.0,0.0,0.0,323
324,1695809974197,0.58691406,1.7529297,-0.38378906,-103.21875,31.46875,19.09375,2.5625,36.1875,-136.25,324
325,1695809974237,1.1113281,1.2695312,-0.6435547,-137.5625,50.5625,3.6875,0.0,0.0,0.0,325
326,1695809974277,0.5214844,1.1796875,-0.36328125,-139.09375,73.84375,10.84375,0.0,0.0,0.0,326
327,1695809974317,0.5810547,0.78808594,-0.27441406,-109.8125,31.53125,-26.15625,0.0,0.0,0.0,327
328,1695809974357,0.27148438,0.5361328,-0.25195312,-27.15625,21.65625,-48.84375,0.0,0.0,0.0,328
329,1695809974397,0.13085938,0.12109375,-0.08105469,-5.90625,-15.53125,-56.96875,0.0,0.0,0.0,329
330,1695809974437,0.0029296875,0.01171875,-0.032226562,27.59375,-68.625,-31.03125,0.0,0.0,0.0,330
331,1695809974477,0.21679688,0.07910156,0.79589844,55.65625,-103.28125,-18.03125,0.0,0.0,0.0,331
332,1695809974517,1.1289062,2.0136719,-0.24609375,126.53125,-107.5625,13.34375,0.0,0.0,0.0,332
333,1695809974557,0.3076172,1.3300781,0.2998047,99.90625,-65.8125,61.875,0.0,0.0,0.0,333
334,1695809974597,1.2255859,1.6533203,-0.57714844,109.6875,-83.21875,32.5,0.0,0.0,0.0,334
335,1695809974637,0.7763672,1.0673828,-0.50683594,57.75,-156.9375,51.1875,0.0,0.0,0.0,335
336,1695809974677,0.2783203,1.4746094,-0.47558594,21.375,-137.21875,52.71875,4.375,34.8125,-143.875,336
337,1695809974717,0.46484375,0.8876953,-0.041992188,-33.875,-138.21875,9.3125,0.0,0.0,0.0,337
338,1695809974757,0.21875,0.1328125,-0.0703125,-140.6875,-107.4375,19.03125,0.0,0.0,0.0,338
339,1695809974797,-0.111328125,0.2998047,-0.09667969,-114.3125,-89.0,-3.75,0.0,0.0,0.0,339
340,1695809974837,-0.052734375,0.40527344,0.0390625,-50.59375,-90.65625,11.21875,0.0,0.0,0.0,340
341,1695809974877,0.0234375,0.25976562,-0.171875,2.125,-112.375,28.59375,0.0,0.0,0.0,341
342,1695809974917,0.22753906,0.890625,-0.01953125,134.28125,-128.1875,60.46875,0.0,0.0,0.0,342
343,1695809974957,0.81933594,2.0136719,-0.15234375,1.40625,-174.28125,2.3125,0.0,0.0,0.0,343
344,1695809974997,0.5654297,0.47558594,-0.3466797,-1.28125,-9.65625,42.9375,0.0,0.0,0.0,344
345,1695809975037,0.96972656,1.6289062,-0.4169922,-120.3125,-68.875,73.96875,0.0,0.0,0.0,345
346,1695809975077,0.7832031,1.1123047,-0.4345703,-189.875,-52.21875,57.15625,0.0,0.0,0.0,346
347,1695809975117,0.2705078,1.2666016,-0.22363281,-175.34375,-31.28125,36.96875,0.0,0.0,0.0,347
348,1695809975157,0.44921875,0.71484375,-0.095703125,-102.1875,-49.875,-1.0625,0.0,0.0,0.0,348
349,1695809975197,0.038085938,0.39648438,-0.0625,-43.15625,-56.59375,-32.4375,6.75,35.3125,-141.625,349
350,1695809975237,0.028320312,0.18261719,-0.11035156,-22.46875,-85.96875,-32.5,0.0,0.0,0.0,350
351,1695809975277,0.28027344,-0.11425781,-0.057617188,0.625,-116.125,-15.59375,0.0,0.0,0.0,351
352,1695809975317,0.31054688,0.37304688,0.44921875,51.15625,-150.34375,-17.96875,0.0,0.0,0.0,352
353,1695809975357,1.3613281,2.0136719,0.08496094,84.65625,-170.5625,42.46875,0.0,0.0,0.0,353
354,1695809975397,0.6591797,1.0830078,0.08105469,43.46875,-127.90625,62.65625,0.0,0.0,0.0,354
355,1695809975437,1.2734375,1.4082031,-0.6279297,48.53125,-155.53125,49.53125,0.0,0.0,0.0,355
356,1695809975477,0.74316406,1.4023438,-0.4453125,23.6875,-211.28125,62.65625,0.0,0.0,0.0,356
357,1695809975517,0.24511719,1.5820312,-0.30859375,-4.34375,-173.125,49.46875,0.0,0.0,0.0,357
358,1695809975557,0.25878906,0.7011719,0.0234375,-59.3125,-98.09375,49.78125,0.0,0.0,0.0,358
359,1695809975597,0.19824219,0.27734375,-0.046875,-116.46875,-59.78125,19.28125,0.0,0.0,0.0,359
360,1695809975637,-0.19726562,0.44140625,-0.107421875,-96.5,-65.40625,-3.4375,0.0,0.0,0.0,360
361,1695809975677,-0.13769531,0.28515625,-0.2529297,-25.9375,-76.0,15.90625,-7.0625,35.5625,-163.875,361
362,1695809975717,0.20703125,0.06738281,-0.24804688,64.03125,-58.3125,57.53125,0.0,0.0,0.0,362
363,1695809975757,0.7128906,0.44628906,0.09375,139.65625,-14.78125,141.09375,0.0,0.0,0.0,363
364,1695809975797,0.81640625,2.0136719,-0.10058594,-29.78125,-144.96875,39.28125,0.0,0.0,0.0,364
365,1695809975837,0.15722656,0.8388672,0.15429688,34.5,9.5625,7.5625,0.0,0.0,0.0,365
366,1695809975877,0.6621094,1.8984375,-0.4248047,-107.125,6.9375,2.25,0.0,0.0,0.0,366
367,1695809975917,0.953125,1.1650391,-0.16992188,-117.90625,86.65625,12.90625,0.0,0.0,0.0,367
368,1695809975957,0.48339844,1.1777344,-0.051757812,-146.71875,75.90625,1.8125,0.0,0.0,0.0,368
369,1695809975997,0.62402344,1.0917969,-0.13964844,-124.875,82.375,-9.96875,0.0,0.0,0.0,369
370,1695809976037,0.49414062,0.7841797,-0.234375,-41.5625,54.34375,-27.84375,0.0,0.0,0.0,370
371,1695809976077,0.36621094,0.2783203,-0.29003906,-24.96875,16.03125,-27.5,0.0,0.0,0.0,371
372,1695809976117,0.2265625,-0.0048828125,-0.034179688,7.8125,-40.25,-20.15625,0.0,0.0,0.0,372
373,1695809976157,0.10644531,0.0126953125,-0.21484375,48.03125,-89.3125,-0.3125,0.0,0.0,0.0,373
374,1695809976197,0.3125,1.0615234,0.13378906,93.4375,-100.5625,8.875,-2.375,36.9375,-152.875,374
375,1695809976237,0.14550781,1.6464844,-0.00390625,132.15625,-47.75,72.375,0.0,0.0,0.0,375
376,1695809976277,0.625,1.5751953,-0.040039062,116.875,-60.3125,10.21875,0.0,0.0,0.0,376
377,1695809976317,0.8232422,1.2880859,-0.6279297,117.96875,-64.46875,-0.09375,0.0,0.0,0.0,377
378,1695809976357,0.6074219,1.3945312,-0.62109375,67.9375,-69.0625,26.59375,0.0,0.0,0.0,378
379,1695809976397,0.4248047,1.0917969,-0.19726562,14.59375,-70.75,9.3125,0.0,0.0,0.0,379
380,1695809976437,0.04296875,0.061523438,-0.13476562,-89.40625,-69.96875,-12.59375,0.0,0.0,0.0,380
381,1695809976477,-0.029296875,0.10644531,-0.3310547,-120.1875,14.4375,-21.375,0.0,0.0,0.0,381
382,1695809976517,0.030273438,0.32714844,-0.19726562,-36.5,29.40625,-4.90625,0.0,0.0,0.0,382
383,1695809976557,-0.009765625,0.16796875,-0.0146484375,26.0625,14.25,34.46875,0.0,0.0,0.0,383
384,1695809976597,-0.0234375,0.44628906,-0.21191406,35.34375,30.375,54.71875,0.0,0.0,0.0,384
385,1695809976637,1.6621094,2.0136719,-0.15820312,4.6875,-12.34375,56.625,0.0,0.0,0.0,385
386,1695809976677,0.16992188,0.33496094,-0.25097656,38.5,50.21875,33.0625,-6.75,28.6875,-163.5625,386
387,1695809976717,1.0146484,1.7900391,-0.3076172,-54.375,22.9375,-30.96875,0.0,0.0,0.0,387
388,1695809976757,0.8300781,1.4589844,-0.25683594,-126.53125,75.78125,-8.4375,0.0,0.0,0.0,388
389,1695809976797,0.57910156,1.2773438,-0.12792969,-139.78125,113.6875,-3.125,0.0,0.0,0.0,389
390,1695809976837,0.6953125,1.2841797,-0.20703125,-113.09375,89.28125,-39.5,0.0,0.0,0.0,390
391,1695809976877,0.6015625,0.58691406,-0.16113281,-25.34375,104.15625,-50.3125,0.0,0.0,0.0,391
392,1695809976917,0.296875,0.13378906,-0.20410156,-28.75,38.71875,-41.9375,0.0,0.0,0.0,392
393,1695809976957,0.24121094,0.0048828125,-0.15332031,8.84375,-23.9375,-17.65625,0.0,0.0,0.0,393
394,1695809976997,0.08691406,0.0,0.038085938,32.34375,-73.375,24.625,0.0,0.0,0.0,394
395,1695809977037,0.4716797,0.59765625,0.36035156,82.53125,-139.4375,18.90625,0.0,0.0,0.0,395
396,1695809977077,0.70996094,2.0136719,-0.12109375,170.03125,-105.375,41.59375,0.0,0.0,0.0,396
397,1695809977117,0.3720703,1.8896484,0.17578125,175.28125,-43.34375,-49.34375,0.0,0.0,0.0,397
398,1695809977157,1.0986328,1.5488281,-0.9824219,139.78125,-33.28125,-50.0,0.0,0.0,0.0,398
399,1695809977197,0.7480469,1.2558594,-0.7792969,49.25,-47.9375,4.5,-7.5,27.3125,-162.8125,399
400,1695809977237,0.044921875,0.6269531,0.032226562,-76.0,-61.0,3.28125,0.0,0.0,0.0,400
401,1695809977277,-0.038085938,-0.25976562,0.0703125,-121.09375,-33.40625,-29.5,0.0,0.0,0.0,401
402,1695809977317,-0.14355469,-0.15527344,-0.111328125,-42.90625,21.15625,-38.0,0.0,0.0,0.0,402
403,1695809977357,-0.0390625,0.20410156,-0.234375,26.0625,90.6875,17.0,0.0,0.0,0.0,403
404,1695809977397,0.35546875,0.21679688,-0.28027344,79.15625,21.78125,50.6875,0.0,0.0,0.0,404
405,1695809977437,-0.47558594,0.46484375,0.4375,83.5625,33.5,101.25,0.0,0.0,0.0,405
406,1695809977477,0.87890625,1.8359375,-0.5263672,-5.1875,-112.5625,-46.09375,0.0,0.0,0.0,406
407,1695809977517,0.3154297,0.4169922,0.07519531,62.3125,57.96875,-4.78125,0.0,0.0,0.0,407
408,1695809977557,1.3867188,2.0136719,-0.5566406,-59.25,23.09375,34.9375,0.0,0.0,0.0,408
409,1695809977597,0.78222656,1.5234375,-0.6816406,-212.71875,62.59375,0.71875,0.0,0.0,0.0,409
410,1695809977637,0.35253906,1.2773438,-0.22070312,-197.9375,61.875,-23.09375,-3.875,32.0,-153.1875,410
411,1695809977677,0.47558594,1.0722656,-0.28320312,-124.03125,81.53125,-52.875,0.0,0.0,0.0,411
412,1695809977717,0.37890625,0.3642578,-0.044921875,-22.9375,59.96875,-62.15625,0.0,0.0,0.0,412
413,1695809977757,0.21191406,0.001953125,-0.11328125,-10.75,-25.09375,-49.875,0.0,0.0,0.0,413
414,1695809977797,-0.061523438,0.0234375,-0.08984375,44.625,-81.9375,-13.8125,0.0,0.0,0.0,414
415,1695809977837,-0.0234375,0.14550781,0.15039062,61.84375,-78.6875,0.40625,0.0,0.0,0.0,415
416,1695809977877,0.16601562,1.6484375,-0.16210938,129.46875,-93.84375,9.75,0.0,0.0,0.0,416
417,1695809977917,0.16210938,1.40625,-0.30566406,131.03125,-69.71875,54.125,0.0,0.0,0.0,417
418,1695809977957,1.1640625,1.8984375,-0.6074219,137.875,-90.96875,-9.125,0.0,0.0,0.0,418
419,1695809977997,0.6826172,1.3378906,-0.74316406,90.9375,-113.84375,17.75,0.0,0.0,0.0,419
420,1695809978037,0.34277344,1.4755859,-0.5097656,48.875,-54.34375,17.625,0.0,0.0,0.0,420
421,1695809978077,0.18066406,0.5410156,0.08300781,-91.125,-95.46875,18.09375,0.0,0.0,0.0,421
422,1695809978117,0.10839844,-0.057617188,-0.23144531,-148.6875,-40.5625,-19.5625,0.0,0.0,0.0,422
423,1695809978157,0.051757812,0.22949219,-0.15722656,-83.125,-4.0625,-11.8125,0.0,0.0,0.0,423
424,1695809978197,-0.19433594,0.3095703,-0.02734375,0.96875,-2.71875,19.6875,-18.625,31.5625,-159.8125,424
425,1695809978237,0.19628906,0.23632812,-0.23046875,35.78125,-47.21875,39.65625,0.0,0.0,0.0,425
426,1695809978277,0.068359375,0.4013672,0.15527344,103.875,-17.0625,89.21875,0.0,0.0,0.0,426
427,1695809978317,1.6572266,2.0136719,-0.3671875,80.6875,-188.8125,-16.1875,0.0,0.0,0.0,427
428,1695809978357,0.08984375,0.099609375,-0.041015625,67.3125,75.21875,32.28125,0.0,0.0,0.0,428
429,1695809978397,0.9736328,1.9042969,-0.75683594,-80.625,39.71875,33.0,0.0,0.0,0.0,429
430,1695809978437,0.6875,1.3378906,-0.67089844,-182.1875,39.90625,9.25,0.0,0.0,0.0,430
431,1695809978477,0.5878906,1.3759766,-0.49804688,-189.21875,65.65625,7.125,0.0,0.0,0.0,431
432,1695809978517,0.7158203,0.7890625,-0.20214844,-145.4375,27.8125,-24.875,0.0,0.0,0.0,432
433,1695809978557,0.18554688,0.6386719,-0.15820312,-86.1875,11.09375,-51.15625,0.0,0.0,0.0,433
434,1695809978597,0.18066406,0.057617188,-0.0068359375,-69.40625,-19.5625,-56.96875,0.0,0.0,0.0,434
435,1695809978637,0.0107421875,-0.08203125,-0.07714844,-8.25,-62.46875,-28.53125,0.0,0.0,0.0,435
436,1695809978677,0.06640625,0.11230469,0.82128906,35.8125,-82.78125,-10.46875,-17.375,39.9375,-146.75,436
437,1695809978717,0.08300781,1.1435547,-0.0009765625,100.78125,-110.3125,17.5625,0.0,0.0,0.0,437
438,1695809978757,0.4921875,1.4423828,-0.10839844,110.59375,-74.78125,62.78125,0.0,0.0,0.0,438
439,1695809978797,0.9951172,1.9677734,-0.3330078,139.78125,-98.28125,12.3125,0.0,0.0,0.0,439
440,1695809978837,0.7558594,1.3066406,-0.6152344,119.625,-122.9375,31.84375,0.0,0.0,0.0,440
441,1695809978877,0.3955078,1.5664062,-0.6796875,55.3125,-95.96875,40.09375,0.0,0.0,0.0,441
442,1695809978917,0.4326172,1.0126953,-0.24316406,-26.78125,-89.0,25.96875,0.0,0.0,0.0,442
443,1695809978957,0.025390625,0.02734375,-0.21582031,-125.625,-40.4375,23.28125,0.0,0.0,0.0,443
444,1695809978997,-0.043945312,0.056640625,-0.060546875,-69.75,-23.78125,-7.46875,0.0,0.0,0.0,444
445,1695809979037,-0.14550781,0.032226562,-0.076171875,-35.21875,8.15625,25.3125,0.0,0.0,0.0,445
446,1695809979077,0.032226562,0.028320312,-0.14746094,2.875,1.375,57.84375,0.0,0.0,0.0,446
447,1695809979117,0.05859375,0.74316406,-0.20898438,70.4375,2.71875,83.34375,0.0,0.0,0.0,447
448,1695809979157,2.0126953,2.0136719,-0.20898438,9.15625,-89.0625,45.15625,0.0,0.0,0.0,448
449,1695809979197,0.21484375,0.25585938,-0.25585938,22.8125,1.375,32.15625,-19.625,35.125,-158.0,449
450,1695809979237,0.73535156,1.5078125,-0.24316406,-99.375,20.65625,37.5,0.0,0.0,0.0,450
451,1695809979277,0.8642578,1.2734375,-0.4326172,-176.6875,53.75,16.53125,0.0,0.0,0.0,451
452,1695809979317,0.48339844,1.4208984,-0.34472656,-169.5625,57.09375,-18.34375,0.0,0.0,0.0,452
453,1695809979357,0.5439453,0.8935547,-0.16601562,-133.65625,86.09375,-40.65625,0.0,0.0,0.0,453
454,1695809979397,0.5576172,0.5996094,-0.30273438,-75.625,70.09375,-53.375,0.0,0.0,0.0,454
455,1695809979437,0.2265625,0.22753906,-0.16503906,-57.5,27.25,-47.5,0.0,0.0,0.0,455
456,1695809979477,0.10546875,-0.02734375,0.0029296875,-2.0,-33.96875,-33.78125,0.0,0.0,0.0,456
457,1695809979517,0.041992188,-0.041015625,0.0703125,26.25,-70.53125,2.65625,0.0,0.0,0.0,457
458,1695809979557,0.22753906,0.78027344,0.1484375,80.625,-92.1875,18.21875,0.0,0.0,0.0,458
459,1695809979597,0.82714844,2.0136719,0.048828125,131.15625,-100.375,68.75,0.0,0.0,0.0,459
460,1695809979637,0.484375,1.5664062,-0.015625,124.9375,-92.375,3.03125,0.0,0.0,0.0,460
461,1695809979677,0.6347656,1.4863281,-0.6972656,130.1875,-47.625,-2.09375,-19.375,39.0625,-146.875,461
462,1695809979717,0.5566406,1.4443359,-0.67871094,84.96875,-44.21875,26.71875,0.0,0.0,0.0,462
463,1695809979757,0.5986328,1.2792969,-0.2626953,5.0,-70.46875,9.625,0.0,0.0,0.0,463
464,1695809979797,-0.08886719,0.015625,-0.0703125,-110.90625,-59.03125,-6.1875,0.0,0.0,0.0,464
465,1695809979837,-0.0048828125,0.04296875,-0.119140625,-81.65625,17.8125,-22.375,0.0,0.0,0.0,465
466,1695809979877,-0.21972656,0.16015625,-0.09765625,-24.78125,71.8125,6.375,0.0,0.0,0.0,466
467,1695809979917,0.056640625,0.11035156,0.043945312,19.34375,30.6875,42.8125,0.0,0.0,0.0,467
468,1695809979957,0.22851562,0.17382812,-0.17773438,29.90625,49.21875,67.375,0.0,0.0,0.0,468
469,1695809979997,0.9863281,2.0136719,-0.22753906,91.1875,-51.0,95.3125,0.0,0.0,0.0,469
470,1695809980037,-0.14257812,0.16894531,-0.4345703,48.71875,16.6875,41.25,0.0,0.0,0.0,470
471,1695809980077,0.72558594,1.5771484,-0.13574219,-35.875,76.28125,-6.5,0.0,0.0,0.0,471
472,1695809980117,1.1269531,1.5380859,-0.33007812,-120.0,81.09375,-12.53125,0.0,0.0,0.0,472
473,1695809980157,0.81640625,1.2919922,-0.29882812,-138.5,112.09375,-16.3125,0.0,0.0,0.0,473
474,1695809980197,0.69921875,1.2246094,-0.57714844,-123.71875,72.59375,-51.03125,-12.875,36.1875,-144.1875,474
475,1695809980237,0.41210938,0.8544922,-0.12792969,-57.875,78.03125,-52.21875,0.0,0.0,0.0,475
476,1695809980277,0.32910156,0.22851562,-0.0009765625,-23.25,47.03125,-46.90625,0.0,0.0,0.0,476
477,1695809980317,0.14160156,-0.11230469,-0.076171875,6.84375,-21.375,-28.84375,0.0,0.0,0.0,477
478,1695809980357,-0.12695312,0.12207031,0.01953125,33.5625,-71.0625,1.125,0.0,0.0,0.0,478
479,1695809980397,0.3154297,0.4267578,0.42089844,81.3125,-67.46875,4.875,0.0,0.0,0.0,479
480,1695809980437,1.4111328,2.0136719,-0.36816406,151.1875,-72.03125,54.1875,0.0,0.0,0.0,480
481,1695809980477,0.4326172,1.4589844,0.11035156,131.46875,-82.125,5.84375,0.0,0.0,0.0,481
482,1695809980517,0.5527344,1.5332031,-0.6699219,170.03125,-7.40625,-18.5,0.0,0.0,0.0,482
483,1695809980557,0.8847656,1.1582031,-0.75,94.59375,-43.0625,10.59375,0.0,0.0,0.0,483
484,1695809980597,0.5703125,1.3212891,-0.4189453,31.125,-58.3125,-11.1875,0.0,0.0,0.0,484
485,1695809980637,-0.034179688,-0.0087890625,-0.056640625,-110.90625,-71.125,-20.34375,0.0,0.0,0.0,485
486,1695809980677,0.0234375,-0.01953125,-0.24804688,-132.25,24.9375,-25.03125,-21.125,37.25,-154.875,486
487,1695809980717,-0.046875,0.13964844,-0.1953125,-46.21875,57.78125,-8.5,0.0,0.0,0.0,487
488,1695809980757,-0.09863281,0.16699219,-0.05859375,28.75,18.53125,28.65625,0.0,0.0,0.0,488
489,1695809980797,0.47851562,0.5205078,-0.21484375,39.3125,-2.84375,49.1875,0.0,0.0,0.0,489
490,1695809980837,0.55078125,2.0136719,-0.01171875,46.25,22.8125,94.28125,0.0,0.0,0.0,490
491,1695809980877,0.30371094,0.14941406,-0.39453125,57.96875,7.25,21.34375,0.0,0.0,0.0,491
492,1695809980917,0.70703125,1.2675781,-0.10839844,-43.9375,56.5,12.0625,0.0,0.0,0.0,492
493,1695809980957,1.0390625,1.6923828,-0.40722656,-123.15625,15.46875,-9.3125,0.0,0.0,0.0,493
494,1695809980997,0.6435547,1.3955078,-0.3984375,-160.59375,92.125,-5.40625,0.0,0.0,0.0,494
495,1695809981037,0.57910156,1.1552734,-0.13769531,-148.25,51.96875,-34.5625,0.0,0.0,0.0,495
496,1695809981077,0.47460938,0.8544922,-0.28125,-94.0625,88.34375,-44.34375,0.0,0.0,0.0,496
497,1695809981117,0.54785156,0.40820312,-0.14648438,-22.71875,57.78125,-47.75,0.0,0.0,0.0,497
498,1695809981157,0.13378906,-0.0234375,-0.17773438,-7.5625,4.8125,-37.1875,0.0,0.0,0.0,498
499,1695809981197,0.041992188,-0.060546875,0.040039062,39.6875,-56.125,-15.875,-19.375,39.8125,-141.0625,499
500,1695809981237,0.17675781,0.6972656,0.22851562,81.0,-77.59375,7.3125,0.0,0.0,0.0,500
501,1695809981277,1.0205078,2.0136719,0.15527344,129.625,-71.6875,67.71875,0.0,0.0,0.0,501
502,1695809981317,0.49609375,1.2841797,0.0,86.5,-105.96875,18.21875,0.0,0.0,0.0,502
503,1695809981357,0.6064453,1.6923828,-0.6152344,138.0625,-67.40625,-16.0,0.0,0.0,0.0,503
504,1695809981397,0.5205078,1.4121094,-0.7529297,88.875,-78.40625,9.625,0.0,0.0,0.0,504
505,1695809981437,0.5253906,1.2294922,-0.35839844,2.25,-83.34375,3.46875,0.0,0.0,0.0,505
506,1695809981477,-0.05859375,0.14746094,-0.11425781,-98.75,-66.5625,-10.75,0.0,0.0,0.0,506
507,1695809981517,0.053710938,-0.041992188,-0.24609375,-116.8125,20.3125,-15.03125,0.0,0.0,0.0,507
508,1695809981557,-0.0029296875,0.15722656,-0.103515625,-41.8125,45.9375,-10.9375,0.0,0.0,0.0,508
509,1695809981597,-0.046875,0.046875,-0.15820312,32.03125,38.78125,33.4375,0.0,0.0,0.0,509
510,1695809981637,0.14257812,0.6269531,-0.13671875,36.875,36.34375,56.5,0.0,0.0,0.0,510
511,1695809981677,2.0126953,2.0136719,-0.052734375,27.90625,-3.6875,59.1875,-21.125,40.5625,-147.625,511
512,1695809981717,0.17089844,0.095703125,-0.34765625,47.0,24.8125,-14.90625,0.0,0.0,0.0,512
513,1695809981757,0.8095703,1.9277344,-0.15625,-78.90625,80.0,-9.40625,0.0,0.0,0.0,513
514,1695809981797,0.9873047,1.5410156,-0.5292969,-127.125,92.8125,-14.0625,0.0,0.0,0.0,514
515,1695809981837,0.73046875,1.1650391,-0.22070312,-162.40625,143.59375,7.3125,0.0,0.0,0.0,515
516,1695809981877,0.59375,1.0595703,-0.13964844,-115.96875,81.6875,-44.53125,0.0,0.0,0.0,516
517,1695809981917,0.42578125,0.49023438,-0.22070312,-36.5625,95.3125,-57.03125,0.0,0.0,0.0,517
518,1695809981957,0.29589844,0.10644531,-0.17285156,-32.21875,32.03125,-53.71875,0.0,0.0,0.0,518
519,1695809981997,0.17871094,-0.14453125,-0.0107421875,29.78125,-33.90625,-16.6875,0.0,0.0,0.0,519
520,1695809982037,-0.14355469,0.12890625,0.42285156,36.0,-90.28125,24.34375,0.0,0.0,0.0,520
521,1695809982077,0.23925781,1.2919922,0.16601562,104.3125,-100.84375,35.75,0.0,0.0,0.0,521
522,1695809982117,0.35839844,1.5595703,0.1328125,162.78125,-51.34375,58.6875,0.0,0.0,0.0,522
523,1695809982157,0.6464844,2.0136719,-0.32714844,160.65625,-48.90625,-3.1875,0.0,0.0,0.0,523
524,1695809982197,0.8310547,1.1992188,-0.7138672,137.4375,-44.03125,4.5625,-18.75,38.875,-150.625,524
525,1695809982237,0.5888672,1.3232422,-0.66308594,56.21875,-65.875,20.71875,0.0,0.0,0.0,525
526,1695809982277,0.30273438,0.95410156,-0.076171875,-23.1875,-84.4375,8.46875,0.0,0.0,0.0,526
527,1695809982317,-0.024414062,-0.047851562,-0.16992188,-145.03125,-46.46875,-24.875,0.0,0.0,0.0,527
528,1695809982357,0.005859375,0.0078125,-0.16992188,-90.15625,28.59375,-20.53125,0.0,0.0,0.0,528
529,1695809982397,-0.1484375,0.1875,-0.053710938,-13.1875,54.0,12.6875,0.0,0.0,0.0,529
530,1695809982437,0.034179688,0.21386719,-0.13964844,29.40625,3.5625,44.40625,0.0,0.0,0.0,530
531,1695809982477,0.107421875,1.0595703,-0.47851562,95.9375,-49.15625,70.34375,0.0,0.0,0.0,531
532,1695809982517,0.53125,2.0136719,-0.17382812,7.75,-55.875,-10.28125,0.0,0.0,0.0,532
533,1695809982557,0.21289062,0.3798828,-0.1171875,46.03125,69.125,-8.25,0.0,0.0,0.0,533
534,1695809982597,0.8769531,2.0136719,-0.4638672,-106.03125,68.65625,3.9375,0.0,0.0,0.0,534
535,1695809982637,0.94433594,1.3964844,-0.37695312,-150.21875,132.84375,7.0625,0.0,0.0,0.0,535
536,1695809982677,0.44921875,1.1669922,-0.034179688,-163.28125,92.125,-28.21875,-13.1875,36.9375,-145.875,536
537,1695809982717,0.4765625,0.9824219,-0.2626953,-112.625,90.25,-61.90625,0.0,0.0,0.0,537
538,1695809982757,0.43847656,0.3564453,-0.23339844,-28.375,85.71875,-65.5,0.0,0.0,0.0,538
539,1695809982797,0.26757812,-0.015625,-0.1171875,-36.75,21.78125,-46.03125,0.0,0.0,0.0,539
540,1695809982837,0.0390625,-0.029296875,0.051757812,11.46875,-39.34375,-14.65625,0.0,0.0,0.0,540
541,1695809982877,0.05078125,0.12011719,0.37402344,47.53125,-66.5625,17.5,0.0,0.0,0.0,541
542,1695809982917,0.29003906,2.0136719,-0.36816406,117.6875,-114.71875,42.71875,0.0,0.0,0.0,542
543,1695809982957,0.7167969,1.21875,0.59277344,134.03125,-81.8125,42.09375,0.0,0.0,0.0,543
544,1695809982997,0.79589844,2.0136719,-0.46777344,174.875,-62.875,-12.46875,0.0,0.0,0.0,544
545,1695809983037,0.81347656,1.3173828,-0.7314453,128.59375,-62.21875,2.90625,0.0,0.0,0.0,545
546,1695809983077,0.52441406,1.4990234,-0.6582031,73.78125,-49.875,6.5,0.0,0.0,0.0,546
547,1695809983117,0.13476562,0.5859375,-0.05078125,-46.4375,-77.0,11.21875,0.0,0.0,0.0,547
548,1695809983157,0.08886719,-0.021484375,-0.22558594,-150.15625,-23.03125,-16.4375,0.0,0.0,0.0,548
549,1695809983197,0.005859375,-0.09472656,-0.08203125,-99.78125,7.71875,-17.90625,-23.875,35.75,-150.625,549
550,1695809983237,-0.16796875,0.17675781,-0.022460938,-11.46875,25.0625,12.4375,0.0,0.0,0.0,550
551,1695809983277,0.16796875,0.4033203,-0.30273438,23.8125,12.78125,38.90625,0.0,0.0,0.0,551
552,1695809983317,0.21582031,0.4091797,-0.07421875,80.9375,6.875,82.125,0.0,0.0,0.0,552
553,1695809983357,2.0126953,2.0136719,0.07714844,89.0,-221.21875,-6.625,0.0,0.0,0.0,553
554,1695809983397,0.19140625,0.2734375,-0.08984375,69.40625,65.28125,6.75,0.0,0.0,0.0,554
555,1695809983437,0.76171875,1.5859375,-0.48535156,-61.09375,59.3125,40.6875,0.0,0.0,0.0,555
556,1695809983477,0.87597656,1.3447266,-0.5019531,-128.53125,72.59375,-2.78125,0.0,0.0,0.0,556
557,1695809983517,0.72265625,1.2773438,-0.3486328,-158.6875,105.375,4.3125,0.0,0.0,0.0,557
558,1695809983557,0.50097656,0.97558594,-0.22851562,-120.125,47.53125,-37.8125,0.0,0.0,0.0,558
559,1695809983597,0.3564453,0.7236328,-0.30566406,-53.53125,76.40625,-48.1875,0.0,0.0,0.0,559
560,1695809983637,0.50390625,-0.009765625,0.029296875,-37.0,28.0625,-51.46875,0.0,0.0,0.0,560
561,1695809983677,0.0,0.103515625,-0.1171875,0.96875,-46.65625,-24.5625,-17.375,41.0,-136.125,561
562,1695809983717,-0.13574219,0.20117188,-0.5371094,52.0,-86.15625,1.1875,0.0,0.0,0.0,562
563,1695809983757,-0.026367188,1.3974609,-0.27539062,126.46875,-102.1875,11.46875,0.0,0.0,0.0,563
564,1695809983797,0.375,1.2539062,-0.07324219,134.9375,-58.8125,32.625,0.0,0.0,0.0,564
565,1695809983837,0.91796875,1.8828125,-0.32714844,163.6875,-85.71875,-5.15625,0.0,0.0,0.0,565
566,1695809983877,0.7080078,1.3271484,-0.84375,117.0,-120.3125,-12.65625,0.0,0.0,0.0,566
567,1695809983917,0.24316406,1.2792969,-0.6738281,43.9375,-99.8125,-4.40625,0.0,0.0,0.0,567
568,1695809983957,0.45410156,0.5654297,0.016601562,-71.65625,-102.25,-5.5,0.0,0.0,0.0,568
569,1695809983997,-0.055664062,-0.032226562,-0.484375,-164.5625,-34.375,-5.8125,0.0,0.0,0.0,569
570,1695809984037,-0.016601562,0.39941406,-0.20898438,-83.4375,25.84375,-17.21875,0.0,0.0,0.0,570
571,1695809984077,-0.13476562,0.28222656,0.16113281,22.59375,-5.6875,1.6875,0.0,0.0,0.0,571
572,1695809984117,-0.15527344,0.19433594,-0.15332031,10.375,-8.5,6.09375,0.0,0.0,0.0,572
573,1695809984157,0.08203125,0.56933594,0.13769531,125.71875,-11.625,45.75,0.0,0.0,0.0,573
574,1695809984197,1.1953125,2.0136719,-0.3515625,35.59375,-58.3125,3.59375,-24.75,38.75,-148.6875,574
575,1695809984237,0.3798828,0.33007812,-0.0146484375,31.4375,61.1875,14.8125,0.0,0.0,0.0,575
576,1695809984277,1.0166016,1.6152344,-0.5332031,-66.84375,-5.5625,35.75,0.0,0.0,0.0,576
577,1695809984317,0.71191406,1.1894531,-0.5830078,-163.09375,30.5,21.09375,0.0,0.0,0.0,577
578,1695809984357,0.4580078,1.1796875,-0.23925781,-177.75,74.0625,19.03125,0.0,0.0,0.0,578
579,1695809984397,0.5341797,0.96191406,-0.12207031,-148.125,52.15625,-17.40625,0.0,0.0,0.0,579
580,1695809984437,0.3642578,0.984375,-0.30664062,-62.8125,35.0625,-50.5,0.0,0.0,0.0,580
581,1695809984477,0.29492188,0.29296875,-0.07714844,-4.9375,9.75,-66.3125,0.0,0.0,0.0,581
582,1695809984517,0.043945312,-0.12988281,-0.032226562,31.625,-64.78125,-48.90625,0.0,0.0,0.0,582
583,1695809984557,0.1328125,0.057617188,0.20898438,55.46875,-113.0,-13.375,0.0,0.0,0.0,583
584,1695809984597,0.67089844,1.9960938,-0.3798828,113.78125,-134.84375,19.03125,0.0,0.0,0.0,584
585,1695809984637,0.44335938,1.1816406,-0.19726562,77.75,-89.3125,38.96875,0.0,0.0,0.0,585
586,1695809984677,0.9970703,1.7246094,-0.34472656,143.875,-80.90625,6.6875,-24.4375,39.3125,-143.3125,586
587,1695809984717,0.7939453,1.1083984,-0.6982422,93.25,-117.53125,32.3125,0.0,0.0,0.0,587
588,1695809984757,0.48535156,1.2324219,-0.6220703,34.78125,-115.75,57.34375,0.0,0.0,0.0,588
589,1695809984797,0.51464844,0.7871094,0.046875,-34.375,-113.5,56.625,0.0,0.0,0.0,589
590,1695809984837,0.06542969,0.12402344,0.06933594,-138.96875,-134.1875,28.3125,0.0,0.0,0.0,590
591,1695809984877,-0.16113281,0.3984375,-0.08984375,-112.5,-106.59375,1.125,0.0,0.0,0.0,591
592,1695809984917,-0.083984375,0.53515625,-0.11621094,-73.4375,-36.8125,6.5,0.0,0.0,0.0,592
593,1695809984957,0.13769531,0.41308594,-0.2626953,28.125,-58.4375,32.15625,0.0,0.0,0.0,593
594,1695809984997,0.5888672,0.32714844,-0.4482422,83.1875,-77.53125,76.5625,0.0,0.0,0.0,594
595,1695809985037,0.1015625,2.0136719,0.36132812,40.84375,53.875,143.40625,0.0,0.0,0.0,595
596,1695809985077,0.23925781,0.3076172,-0.8408203,64.5,-152.25,14.625,0.0,0.0,0.0,596
597,1695809985117,0.6015625,0.9892578,-0.22070312,-38.09375,43.3125,27.625,0.0,0.0,0.0,597
598,1695809985157,1.2255859,1.6933594,-0.72753906,-69.21875,-36.09375,22.625,0.0,0.0,0.0,598
599,1695809985197,0.8457031,1.2089844,-0.6123047,-166.875,-0.34375,26.09375,-17.125,38.0,-144.9375,599
600,1695809985237,0.5,0.9736328,-0.29101562,-217.84375,-16.5625,23.78125,0.0,0.0,0.0,600
601,1695809985277,0.4716797,1.0117188,-0.29296875,-156.5,-21.75,-11.625,0.0,0.0,0.0,601
602,1695809985317,0.50390625,0.58203125,-0.16601562,-55.71875,-34.375,-32.4375,0.0,0.0,0.0,602
603,1695809985357,0.087890625,0.0087890625,-0.026367188,-34.78125,-88.78125,-41.28125,0.0,0.0,0.0,603
604,1695809985397,0.057617188,0.10839844,-0.14746094,-0.3125,-126.65625,-26.03125,0.0,0.0,0.0,604
605,1695809985437,0.14160156,0.01953125,0.2890625,27.96875,-156.15625,-4.59375,0.0,0.0,0.0,605
606,1695809985477,0.20996094,1.4023438,-0.028320312,78.6875,-185.875,18.59375,0.0,0.0,0.0,606
607,1695809985517,0.29785156,1.28125,-0.05859375,78.78125,-103.1875,68.65625,0.0,0.0,0.0,607
608,1695809985557,1.0966797,1.5429688,-0.19921875,66.40625,-119.78125,45.6875,0.0,0.0,0.0,608
609,1695809985597,0.8144531,1.1650391,-0.5644531,49.6875,-173.71875,63.28125,0.0,0.0,0.0,609
610,1695809985637,0.57421875,1.5498047,-0.58496094,15.4375,-166.53125,83.40625,0.0,0.0,0.0,610
611,1695809985677,0.49609375,1.3574219,-0.25,-18.90625,-144.96875,59.65625,-10.8125,39.3125,-140.125,611
612,1695809985717,0.21191406,0.5419922,-0.12890625,-84.59375,-119.40625,46.1875,0.0,0.0,0.0,612
613,1695809985757,0.0107421875,0.49609375,-0.15332031,-115.71875,-103.28125,6.8125,0.0,0.0,0.0,613
614,1695809985797,-0.07910156,0.3876953,-0.016601562,-81.40625,-84.1875,-11.5,0.0,0.0,0.0,614
615,1695809985837,-0.01171875,0.12988281,-0.13574219,4.625,-71.625,29.875,0.0,0.0,0.0,615
616,1695809985877,0.41796875,0.24414062,-0.2578125,37.09375,-29.0,76.40625,0.0,0.0,0.0,616
617,1695809985917,0.42578125,0.36035156,0.30859375,73.3125,-17.28125,151.53125,0.0,0.0,0.0,617
618,1695809985957,0.67089844,2.0136719,-0.06542969,24.84375,-267.71875,-4.78125,0.0,0.0,0.0,618
619,1695809985997,0.043945312,0.47753906,0.25195312,68.53125,23.0625,26.65625,0.0,0.0,0.0,619
620,1695809986037,1.0537109,1.9501953,-0.546875,-81.125,-28.21875,17.1875,0.0,0.0,0.0,620
621,1695809986077,1.0478516,1.2978516,-0.4921875,-156.0,7.53125,22.5625,0.0,0.0,0.0,621
622,1695809986117,0.4951172,1.3574219,-0.34375,-181.59375,22.5,11.5625,0.0,0.0,0.0,622
623,1695809986157,0.5390625,0.9707031,-0.21875,-137.4375,43.0,-14.96875,0.0,0.0,0.0,623
624,1695809986197,0.42773438,0.65625,-0.27441406,-69.875,17.1875,-45.0625,2.125,32.4375,-125.3125,624
625,1695809986237,0.27929688,0.07421875,-0.061523438,-58.65625,-16.4375,-57.28125,0.0,0.0,0.0,625
626,1695809986277,0.107421875,-0.08203125,-0.015625,-15.3125,-77.78125,-29.3125,0.0,0.0,0.0,626
627,1695809986317,-0.076171875,0.055664062,0.06933594,18.0,-113.625,8.09375,0.0,0.0,0.0,627
628,1695809986357,0.38085938,0.4580078,0.39160156,81.40625,-116.0,6.3125,0.0,0.0,0.0,628
629,1695809986397,1.46875,2.0136719,-0.087890625,130.3125,-139.96875,81.09375,0.0,0.0,0.0,629
630,1695809986437,0.46777344,1.4433594,0.119140625,139.90625,-111.09375,21.46875,0.0,0.0,0.0,630
631,1695809986477,0.9160156,1.4570312,-0.7451172,131.84375,-77.34375,7.5625,0.0,0.0,0.0,631
632,1695809986517,0.8125,1.34375,-0.74902344,74.9375,-112.875,34.78125,0.0,0.0,0.0,632
633,1695809986557,0.4267578,1.3144531,-0.2705078,-14.71875,-113.84375,14.75,0.0,0.0,0.0,633
634,1695809986597,-0.022460938,0.029296875,-0.15820312,-134.21875,-102.75,7.65625,0.0,0.0,0.0,634
635,1695809986637,-0.111328125,0.068359375,-0.17871094,-100.40625,-10.8125,-16.0625,0.0,0.0,0.0,635
636,1695809986677,-0.060546875,0.12109375,-0.15820312,-60.59375,28.84375,3.9375,4.625,36.9375,-148.375,636
637,1695809986717,0.16601562,0.087890625,-0.125,17.46875,2.65625,54.65625,0.0,0.0,0.0,637
638,1695809986757,0.16210938,0.24804688,-0.203125,34.84375,12.0625,83.09375,0.0,0.0,0.0,638
639,1695809986797,1.1787109,2.0136719,-0.060546875,12.6875,7.1875,80.53125,0.0,0.0,0.0,639
640,1695809986837,0.046875,0.20996094,-0.6044922,17.15625,-31.09375,34.21875,0.0,0.0,0.0,640
641,1695809986877,0.92285156,1.2890625,-0.00390625,-63.15625,55.34375,22.5625,0.0,0.0,0.0,641
642,1695809986917,1.0097656,1.7490234,-0.3486328,-124.875,7.0,4.25,0.0,0.0,0.0,642
643,1695809986957,0.5185547,1.2714844,-0.22070312,-159.3125,88.28125,21.21875,0.0,0.0,0.0,643
644,1695809986997,0.56347656,1.1806641,-0.11425781,-135.0,55.03125,-26.8125,0.0,0.0,0.0,644
645,1695809987037,0.4892578,0.71972656,-0.23632812,-72.9375,69.375,-40.0,0.0,0.0,0.0,645
646,1695809987077,0.34472656,0.31933594,-0.14941406,-43.53125,42.15625,-45.6875,0.0,0.0,0.0,646
647,1695809987117,0.18359375,0.030273438,-0.171875,-34.3125,-6.75,-30.59375,0.0,0.0,0.0,647
648,1695809987157,0.0546875,-0.037109375,0.10839844,20.5625,-46.78125,-4.28125,0.0,0.0,0.0,648
649,1695809987197,0.25683594,0.84765625,0.4765625,67.25,-81.375,26.40625,11.875,33.3125,-132.8125,649
650,1695809987237,0.4580078,2.0136719,0.26367188,138.96875,-70.21875,65.09375,0.0,0.0,0.0,650
651,1695809987277,0.35351562,1.6455078,0.013671875,137.8125,-61.96875,6.09375,0.0,0.0,0.0,651
652,1695809987317,0.89941406,1.4345703,-0.5078125,165.84375,-16.5625,-13.625,0.0,0.0,0.0,652
653,1695809987357,0.72558594,1.4033203,-0.6855469,102.28125,-67.90625,10.59375,0.0,0.0,0.0,653
654,1695809987397,0.3935547,1.2705078,-0.23242188,17.8125,-55.25,-5.625,0.0,0.0,0.0,654
655,1695809987437,-0.15722656,0.029296875,-0.11621094,-73.4375,-13.15625,-16.0,0.0,0.0,0.0,655
656,1695809987477,-0.032226562,-0.041015625,-0.20214844,-91.4375,55.15625,-23.59375,0.0,0.0,0.0,656
657,1695809987517,0.08691406,0.016601562,-0.08691406,-32.34375,29.03125,-25.0,0.0,0.0,0.0,657
658,1695809987557,0.22363281,0.10449219,-0.3095703,38.5,49.90625,44.46875,0.0,0.0,0.0,658
659,1695809987597,0.125,0.26367188,-0.115234375,28.4375,59.0625,88.71875,0.0,0.0,0.0,659
660,1695809987637,2.0126953,2.0136719,-0.44335938,41.0625,-85.46875,29.75,0.0,0.0,0.0,660
661,1695809987677,0.099609375,0.11425781,-0.21191406,95.53125,62.46875,17.96875,9.875,24.1875,-150.1875,661
662,1695809987717,0.9609375,1.7988281,-0.24316406,-59.6875,94.40625,14.5,0.0,0.0,0.0,662
663,1695809987757,0.8300781,1.5019531,-0.4638672,-89.84375,75.0625,-17.0625,0.0,0.0,0.0,663
664,1695809987797,0.6738281,1.1796875,-0.23925781,-145.9375,111.3125,-14.25,0.0,0.0,0.0,664
665,1695809987837,0.40722656,1.1484375,-0.16699219,-135.6875,79.375,-54.21875,0.0,0.0,0.0,665
666,1695809987877,0.60839844,0.72265625,-0.265625,-68.65625,114.46875,-58.25,0.0,0.0,0.0,666
667,1695809987917,0.44726562,0.08984375,-0.22558594,-33.625,64.3125,-57.75,0.0,0.0,0.0,667
668,1695809987957,0.044921875,0.13378906,-0.2109375,-27.78125,13.53125,-43.84375,0.0,0.0,0.0,668
669,1695809987997,0.11035156,0.020507812,0.09765625,24.65625,-19.6875,-7.21875,0.0,0.0,0.0,669
670,1695809988037,0.3076172,0.52734375,0.4033203,59.875,-59.84375,21.65625,0.0,0.0,0.0,670
671,1695809988077,0.91503906,2.0136719,0.091796875,155.53125,-73.875,73.09375,0.0,0.0,0.0,671
672,1695809988117,0.32910156,1.5419922,0.13574219,110.03125,-83.53125,35.875,0.0,0.0,0.0,672
673,1695809988157,0.7607422,1.8183594,-0.60546875,161.1875,-14.125,-15.65625,0.0,0.0,0.0,673
674,1695809988197,0.7558594,1.4335938,-0.7128906,112.1875,-53.3125,18.59375,8.875,28.5625,-147.8125,674
675,1695809988237,0.5800781,1.3642578,-0.4345703,54.375,-62.15625,0.53125,0.0,0.0,0.0,675
676,1695809988277,-0.049804688,0.20800781,-0.017578125,-73.1875,-69.0,-5.625,0.0,0.0,0.0,676
677,1695809988317,-0.13378906,-0.08984375,-0.24707031,-99.125,32.625,-25.96875,0.0,0.0,0.0,677
678,1695809988357,-0.033203125,-0.14550781,0.06542969,-52.375,76.21875,-23.9375,0.0,0.0,0.0,678
679,1695809988397,-0.09765625,0.16699219,-0.12890625,25.8125,62.34375,39.09375,0.0,0.0,0.0,679
680,1695809988437,0.43164062,0.28027344,-0.1875,46.6875,43.4375,59.71875,0.0,0.0,0.0,680
681,1695809988477,-0.33398438,1.1191406,0.07910156,59.4375,45.21875,127.65625,0.0,0.0,0.0,681
682,1695809988517,-0.14355469,0.53222656,-0.6357422,-19.28125,4.75,60.09375,0.0,0.0,0.0,682
683,1695809988557,0.3857422,1.1835938,-0.034179688,-13.0,75.125,-0.375,0.0,0.0,0.0,683
684,1695809988597,0.86816406,1.8720703,-0.36328125,-58.53125,102.34375,-27.59375,0.0,0.0,0.0,684
685,1695809988637,0.9873047,1.0615234,-0.17480469,-120.125,175.9375,-14.25,0.0,0.0,0.0,685
686,1695809988677,0.72265625,1.3212891,-0.08203125,-133.125,83.84375,-57.09375,14.6875,23.4375,-136.5625,686
687,1695809988717,0.50390625,0.91503906,-0.32128906,-54.25,115.6875,-60.03125,0.0,0.0,0.0,687
688,1695809988757,0.3984375,0.26171875,-0.17285156,-1.34375,94.8125,-56.65625,0.0,0.0,0.0,688
689,1695809988797,0.29785156,0.055664062,-0.15722656,-7.5,32.6875,-46.78125,0.0,0.0,0.0,689
690,1695809988837,0.09082031,-0.016601562,0.037109375,25.75,-45.8125,-2.84375,0.0,0.0,0.0,690
691,1695809988877,0.22167969,0.20410156,0.29101562,47.71875,-77.46875,23.0625,0.0,0.0,0.0,691
692,1695809988917,0.3701172,2.0136719,-0.22558594,139.03125,-92.6875,39.90625,0.0,0.0,0.0,692
693,1695809988957,0.32421875,1.5908203,-0.3857422,149.90625,-69.90625,38.75,0.0,0.0,0.0,693
694,1695809988997,0.9111328,2.0136719,-0.5126953,170.15625,-24.1875,-19.4375,0.0,0.0,0.0,694
695,1695809989037,1.0517578,1.2753906,-0.8154297,106.5625,-62.09375,3.03125,0.0,0.0,0.0,695
696,1695809989077,0.45117188,1.3837891,-0.6230469,82.65625,-46.21875,-5.875,0.0,0.0,0.0,696
697,1695809989117,0.078125,0.49804688,0.01953125,-53.53125,-57.28125,5.09375,0.0,0.0,0.0,697
698,1695809989157,0.13183594,0.030273438,-0.22460938,-120.125,1.8125,-31.34375,0.0,0.0,0.0,698
699,1695809989197,0.0,-0.07519531,0.001953125,-82.65625,29.09375,-32.5625,8.125,28.8125,-143.625,699
700,1695809989237,-0.3310547,0.09863281,0.052734375,5.625,35.375,-1.5625,0.0,0.0,0.0,700
701,1695809989277,0.0126953125,0.34570312,-0.05859375,20.875,49.125,25.96875,0.0,0.0,0.0,701
702,1695809989317,0.0546875,0.71972656,-0.40039062,92.84375,50.15625,79.25,0.0,0.0,0.0,702
703,1695809989357,0.87890625,1.4091797,-0.047851562,-6.65625,-74.5625,-17.96875,0.0,0.0,0.0,703
704,1695809989397,0.33203125,0.65527344,0.1328125,26.3125,77.6875,16.34375,0.0,0.0,0.0,704
705,1695809989437,0.6894531,1.7695312,-0.5654297,-80.5625,38.375,-18.21875,0.0,0.0,0.0,705
706,1695809989477,0.9375,1.3212891,-0.36816406,-128.84375,106.0,-17.0,0.0,0.0,0.0,706
707,1695809989517,0.6435547,1.0820312,-0.0546875,-141.34375,89.625,-37.375,0.0,0.0,0.0,707
708,1695809989557,0.6503906,1.1669922,-0.23144531,-123.96875,100.25,-50.0,0.0,0.0,0.0,708
709,1695809989597,0.59375,0.6933594,-0.35839844,-45.59375,73.21875,-54.46875,0.0,0.0,0.0,709
710,1695809989637,0.31152344,0.038085938,-0.12402344,-30.03125,16.46875,-54.34375,0.0,0.0,0.0,710
711,1695809989677,0.01171875,0.01953125,0.001953125,7.375,-65.21875,-21.5,6.125,30.5,-123.5,711
712,1695809989717,-0.08691406,0.1171875,0.15234375,43.09375,-89.5625,11.09375,0.0,0.0,0.0,712
713,1695809989757,0.140625,1.1884766,-0.015625,106.1875,-95.78125,17.5,0.0,0.0,0.0,713
714,1695809989797,0.45410156,1.53125,0.0068359375,149.0,-72.28125,40.25,0.0,0.0,0.0,714
715,1695809989837,0.578125,2.0136719,-0.25585938,160.9375,-72.59375,-11.0,0.0,0.0,0.0,715
716,1695809989877,0.74121094,1.3955078,-0.8066406,146.3125,-32.25,-0.6875,0.0,0.0,0.0,716
717,1695809989917,0.71777344,1.4013672,-0.7402344,70.3125,-48.25,10.71875,0.0,0.0,0.0,717
718,1695809989957,0.27929688,0.5175781,-0.06738281,-53.90625,-71.625,9.125,0.0,0.0,0.0,718
719,1695809989997,0.001953125,-0.072265625,-0.080078125,-116.40625,-35.53125,-16.9375,0.0,0.0,0.0,719
720,1695809990037,-0.18554688,-0.22851562,-0.17871094,-96.8125,33.53125,-15.09375,0.0,0.0,0.0,720
721,1695809990077,-0.14550781,-0.013671875,0.040039062,-43.8125,54.34375,-15.59375,0.0,0.0,0.0,721
722,1695809990117,0.15234375,0.5058594,-0.203125,30.6875,-4.53125,29.46875,0.0,0.0,0.0,722
723,1695809990157,0.36035156,0.59765625,-0.35546875,90.6875,-38.96875,64.0,0.0,0.0,0.0,723
724,1695809990197,2.0126953,2.0136719,-0.18261719,49.5,-80.03125,36.53125,9.0,28.375,-142.875,724
725,1695809990237,0.08300781,0.21582031,-0.3388672,46.875,34.78125,24.40625,0.0,0.0,0.0,725
726,1695809990277,0.8076172,1.7333984,-0.10253906,-89.90625,98.375,34.09375,0.0,0.0,0.0,726
727,1695809990317,0.9160156,1.6289062,-0.3779297,-143.125,81.6875,-8.375,0.0,0.0,0.0,727
728,1695809990357,0.71484375,1.2890625,-0.2626953,-158.8125,114.65625,-7.65625,0.0,0.0,0.0,728
729,1695809990397,0.66503906,1.0390625,-0.2861328,-118.53125,79.8125,-48.59375,0.0,0.0,0.0,729
730,1695809990437,0.41601562,0.53027344,-0.22949219,-37.0,79.1875,-50.125,0.0,0.0,0.0,730
731,1695809990477,0.20019531,-0.0078125,-0.059570312,-31.5,23.46875,-38.90625,0.0,0.0,0.0,731
732,1695809990517,0.024414062,-0.001953125,-0.1640625,7.625,-26.5,-11.5625,0.0,0.0,0.0,732
733,1695809990557,0.080078125,0.1640625,-0.26757812,44.96875,-53.625,6.03125,0.0,0.0,0.0,733
734,1695809990597,0.5644531,2.0136719,-0.30664062,108.75,-113.65625,25.6875,0.0,0.0,0.0,734
735,1695809990637,0.15429688,1.4140625,-0.07910156,104.625,-86.8125,25.0,0.0,0.0,0.0,735
736,1695809990677,0.79589844,2.0136719,-0.36816406,166.0625,-20.46875,-13.3125,10.625,27.8125,-138.1875,736
737,1695809990717,1.1152344,1.2460938,-0.7714844,122.5,-47.03125,7.125,0.0,0.0,0.0,737
738,1695809990757,0.42773438,1.3935547,-0.51953125,60.25,-62.03125,18.28125,0.0,0.0,0.0,738
739,1695809990797,-0.0068359375,0.48339844,0.1171875,-38.28125,-78.34375,16.40625,0.0,0.0,0.0,739
740,1695809990837,-0.22753906,-0.12695312,-0.18164062,-98.9375,22.75,-10.53125,0.0,0.0,0.0,740
741,1695809990877,-0.08984375,-0.16992188,0.13183594,-36.1875,36.96875,-36.71875,0.0,0.0,0.0,741
742,1695809990917,-0.16015625,-0.0087890625,-0.11230469,4.5625,52.34375,21.875,0.0,0.0,0.0,742
743,1695809990957,0.30859375,0.41503906,-0.3330078,44.90625,39.71875,45.6875,0.0,0.0,0.0,743
744,1695809990997,-0.21484375,1.3291016,-0.2109375,97.09375,5.59375,124.75,0.0,0.0,0.0,744
745,1695809991037,-1.2851562,0.18359375,-0.7080078,37.53125,-76.5625,4.625,0.0,0.0,0.0,745
746,1695809991077,0.46679688,0.7890625,0.13378906,62.9375,113.625,0.40625,0.0,0.0,0.0,746
747,1695809991117,1.1669922,2.0136719,-0.4951172,-44.3125,73.46875,-31.9375,0.0,0.0,0.0,747
748,1695809991157,0.76953125,1.0527344,-0.25097656,-131.65625,163.625,2.65625,0.0,0.0,0.0,748
749,1695809991197,0.4970703,1.0205078,-0.0625,-151.0625,93.25,-28.15625,12.4375,22.8125,-138.1875,749
750,1695809991237,0.56347656,0.9375,0.053710938,-77.875,126.625,-62.875,0.0,0.0,0.0,750
751,1695809991277,0.43554688,0.45410156,-0.19726562,-15.4375,104.71875,-52.03125,0.0,0.0,0.0,751
752,1695809991317,0.4248047,-0.0625,-0.05078125,-5.96875,39.96875,-43.34375,0.0,0.0,0.0,752
753,1695809991357,0.047851562,0.00390625,0.016601562,27.78125,-26.28125,-6.96875,0.0,0.0,0.0,753
754,1695809991397,-0.0029296875,0.20019531,0.09863281,47.59375,-54.15625,19.4375,0.0,0.0,0.0,754
755,1695809991437,0.3515625,1.6542969,-0.02734375,106.75,-66.0,37.28125,0.0,0.0,0.0,755
756,1695809991477,0.3232422,1.3486328,-0.54589844,125.0625,-36.78125,59.65625,0.0,0.0,0.0,756
757,1695809991517,0.8359375,2.0048828,-0.4326172,141.46875,-51.65625,2.0625,0.0,0.0,0.0,757
758,1695809991557,0.41503906,1.2626953,-0.7910156,98.8125,-37.375,28.25,0.0,0.0,0.0,758
759,1695809991597,0.53222656,1.4433594,-0.6953125,104.4375,-21.375,-1.125,0.0,0.0,0.0,759
