,timestamp,accel_x,accel_y,accel_z,gyro_x,gyro_y,gyro_z,mag_x,mag_y,mag_z,ind
0,1695809503830,0.3017578,-0.033203125,-0.96972656,0.03125,-0.21875,-0.25,0.0,0.0,0.0,211
1,1695809503870,0.29296875,-0.018554688,-0.98339844,-0.875,-0.40625,-0.1875,0.0,0.0,0.0,212
2,1695809503910,0.29589844,-0.013671875,-0.97753906,0.09375,-0.09375,-0.25,0.0,0.0,0.0,213
3,1695809503950,0.28515625,-0.022460938,-0.9814453,-0.5625,-0.34375,0.0,0.0,0.0,0.0,214
4,1695809503990,0.29003906,-0.016601562,-0.9824219,-0.5,-0.34375,-0.25,0.0,0.0,0.0,215
5,1695809504030,0.29296875,-0.026367188,-0.9824219,-0.03125,-0.03125,0.0,0.0,0.0,0.0,216
6,1695809504070,0.2939453,-0.017578125,-0.9736328,-0.4375,-0.15625,-0.4375,0.0,0.0,0.0,217
7,1695809504110,0.30078125,-0.0078125,-0.98535156,0.03125,0.09375,-0.375,0.0,0.0,0.0,218
8,1695809504150,0.3017578,-0.013671875,-0.9863281,-0.03125,0.15625,-0.25,0.0,0.0,0.0,219
9,1695809504190,0.3017578,-0.005859375,-0.98535156,-0.15625,-0.21875,-0.375,0.0,0.0,0.0,220
10,1695809504230,0.29785156,-0.013671875,-0.9824219,-0.09375,0.25,-0.25,-17.6875,-15.125,-163.125,221
11,1695809504270,0.29785156,-0.0126953125,-0.9892578,-0.21875,-0.34375,-0.25,0.0,0.0,0.0,222
12,1695809504310,0.296875,-0.0087890625,-0.9785156,-0.15625,0.25,-0.0625,0.0,0.0,0.0,223
13,1695809504350,0.30273438,-0.020507812,-0.9824219,-0.15625,0.09375,-0.25,0.0,0.0,0.0,224
14,1695809504390,0.2919922,-0.017578125,-0.9921875,-0.09375,-0.03125,-0.5625,0.0,0.0,0.0,225
15,1695809504430,0.2861328,-0.013671875,-0.97753906,0.15625,0.4375,-0.125,0.0,0.0,0.0,226
16,1695809504470,0.2939453,-0.0078125,-0.9814453,-0.09375,0.25,-0.0625,0.0,0.0,0.0,227
17,1695809504510,0.29882812,-0.0126953125,-0.9794922,-0.21875,0.21875,0.125,0.0,0.0,0.0,228
18,1695809504550,0.30273438,-0.015625,-0.9863281,-0.09375,-0.03125,0.125,0.0,0.0,0.0,229
19,1695809504590,0.29296875,-0.020507812,-0.9824219,-0.21875,-0.15625,0.0,0.0,0.0,0.0,230
20,1695809504630,0.29785156,-0.0146484375,-0.9716797,-0.09375,-0.03125,0.0,0.0,0.0,0.0,231
21,1695809504670,0.29101562,-0.021484375,-0.9794922,-0.25,-0.15625,0.0,0.0,0.0,0.0,232
22,1695809504710,0.2919922,-0.016601562,-0.9736328,-0.09375,-0.09375,-0.4375,-18.0,-13.3125,-163.375,233
23,1695809504750,0.30859375,-0.013671875,-0.9794922,-0.09375,-0.03125,-0.375,0.0,0.0,0.0,234
24,1695809504790,0.29296875,-0.009765625,-0.9814453,-0.25,-0.28125,-0.3125,0.0,0.0,0.0,235
25,1695809504830,0.2890625,-0.015625,-0.98339844,0.28125,-0.09375,-0.125,0.0,0.0,0.0,236
26,1695809504870,0.30664062,-0.016601562,-0.9824219,0.09375,0.09375,-0.0625,0.0,0.0,0.0,237
27,1695809504910,0.30273438,-0.018554688,-0.9736328,0.59375,0.21875,-0.125,0.0,0.0,0.0,238
28,1695809504950,0.29296875,-0.016601562,-0.984375,0.03125,0.03125,-0.0625,0.0,0.0,0.0,239
29,1695809504990,0.30078125,-0.0126953125,-0.9794922,0.15625,-0.09375,-0.1875,0.0,0.0,0.0,240
30,1695809505030,0.29589844,-0.015625,-0.96875,-0.09375,-0.40625,-0.0625,0.0,0.0,0.0,241
31,1695809505070,0.296875,-0.0126953125,-0.9892578,-0.03125,-0.09375,-0.25,0.0,0.0,0.0,242
32,1695809505110,0.2861328,-0.009765625,-0.98046875,0.09375,0.5625,-0.3125,0.0,0.0,0.0,243
33,1695809505150,0.2998047,-0.018554688,-0.9873047,-0.03125,0.25,-0.0625,0.0,0.0,0.0,244
34,1695809505190,0.29003906,-0.0146484375,-0.9921875,-0.15625,0.15625,0.1875,0.0,0.0,0.0,245
35,1695809505230,0.30078125,-0.00390625,-0.98339844,-0.21875,0.03125,0.0,-16.9375,-13.9375,-163.375,246
36,1695809505270,0.29492188,-0.017578125,-0.9824219,0.34375,0.09375,0.21875,0.0,0.0,0.0,247
37,1695809505310,0.2998047,-0.01171875,-0.984375,-0.03125,-0.09375,0.0625,0.0,0.0,0.0,248
38,1695809505350,0.29492188,-0.021484375,-0.9785156,0.40625,-0.03125,0.125,0.0,0.0,0.0,249
39,1695809505390,0.296875,-0.01953125,-0.97265625,0.09375,0.03125,0.125,0.0,0.0,0.0,250
40,1695809505430,0.2998047,-0.0146484375,-0.9921875,0.09375,-0.09375,0.0625,0.0,0.0,0.0,251
41,1695809505470,0.29882812,-0.0068359375,-0.9765625,0.09375,-0.34375,0.0,0.0,0.0,0.0,252
42,1695809505510,0.29589844,-0.013671875,-0.9941406,0.03125,0.09375,0.0625,0.0,0.0,0.0,253
43,1695809505550,0.29101562,-0.016601562,-0.9814453,-0.21875,-0.53125,0.0,0.0,0.0,0.0,254
44,1695809505590,0.296875,-0.01953125,-0.9951172,0.21875,0.03125,-0.125,0.0,0.0,0.0,255
45,1695809505630,0.29785156,-0.017578125,-0.9824219,-0.09375,0.25,-0.0625,0.0,0.0,0.0,256
46,1695809505670,0.29492188,-0.0068359375,-0.9863281,-0.21875,-0.59375,-0.125,0.0,0.0,0.0,257
47,1695809505710,0.29882812,-0.013671875,-0.9941406,-0.03125,0.25,0.1875,-17.375,-15.125,-163.6875,258
48,1695809505750,0.2998047,-0.03125,-0.9765625,-0.375,-0.65625,0.28125,0.0,0.0,0.0,259
49,1695809505790,0.29296875,-0.01171875,-0.9824219,-0.75,-0.53125,-0.0625,0.0,0.0,0.0,260
50,1695809505830,0.29296875,-0.01953125,-0.9824219,0.03125,0.09375,0.125,0.0,0.0,0.0,261
51,1695809505870,0.3017578,-0.017578125,-0.9824219,0.21875,-0.21875,-0.0625,0.0,0.0,0.0,262
52,1695809505910,0.3017578,-0.021484375,-0.9746094,-0.03125,0.3125,-0.125,0.0,0.0,0.0,263
53,1695809505950,0.2939453,-0.015625,-0.984375,-0.15625,0.21875,0.0625,0.0,0.0,0.0,264
54,1695809505990,0.3017578,-0.01171875,-0.9716797,0.21875,0.375,0.125,0.0,0.0,0.0,265
55,1695809506030,0.29296875,-0.0078125,-0.9814453,-0.15625,-0.34375,0.21875,0.0,0.0,0.0,266
56,1695809506070,0.29785156,-0.0146484375,-0.9746094,0.15625,-0.15625,0.21875,0.0,0.0,0.0,267
57,1695809506110,0.29003906,-0.017578125,-0.97265625,-0.3125,-0.34375,0.21875,0.0,0.0,0.0,268
58,1695809506150,0.296875,-0.009765625,-0.9794922,0.03125,-0.09375,0.0,0.0,0.0,0.0,269
59,1695809506190,0.29882812,-0.0146484375,-0.97558594,0.34375,-0.09375,0.125,0.0,0.0,0.0,270
60,1695809506230,0.29882812,-0.01953125,-0.9873047,-0.3125,-0.46875,-0.25,-17.375,-14.375,-163.6875,271
61,1695809506270,0.29492188,-0.0126953125,-0.97558594,0.21875,0.03125,0.21875,0.0,0.0,0.0,272
62,1695809506310,0.29492188,-0.0146484375,-0.97265625,-0.3125,0.09375,0.40625,0.0,0.0,0.0,273
63,1695809506350,0.30371094,-0.0078125,-0.9746094,0.0,-0.125,-0.03125,0.0,0.0,0.0,274
64,1695809506390,0.29492188,-0.013671875,-0.99121094,-0.125,-0.3125,0.21875,0.0,0.0,0.0,275
65,1695809506430,0.2939453,-0.0087890625,-0.9814453,-0.125,-0.4375,0.21875,0.0,0.0,0.0,276
66,1695809506470,0.29882812,-0.0146484375,-0.984375,0.34375,-0.46875,0.15625,0.0,0.0,0.0,277
67,1695809506510,0.29492188,-0.018554688,-0.97558594,0.03125,0.25,0.21875,0.0,0.0,0.0,278
68,1695809506550,0.2919922,-0.0107421875,-0.9921875,-0.4375,-0.4375,0.15625,0.0,0.0,0.0,279
69,1695809506590,0.30371094,-0.0107421875,-0.98828125,-0.0625,0.6875,0.03125,0.0,0.0,0.0,280
70,1695809506630,0.29101562,-0.01953125,-0.97753906,-0.125,0.1875,0.28125,0.0,0.0,0.0,281
71,1695809506670,0.3076172,-0.0107421875,-0.9794922,-0.125,0.0,0.09375,0.0,0.0,0.0,282
72,1695809506710,0.2919922,-0.020507812,-0.9794922,0.65625,0.125,0.03125,-18.0,-13.9375,-163.375,283
73,1695809506750,0.29003906,-0.017578125,-0.96777344,-0.25,-0.53125,0.15625,0.0,0.0,0.0,284
74,1695809506790,0.2939453,-0.01171875,-0.9902344,0.40625,-0.0625,0.21875,0.0,0.0,0.0,285
75,1695809506830,0.296875,-0.022460938,-0.97265625,0.15625,0.0625,0.59375,0.0,0.0,0.0,286
76,1695809506870,0.3076172,-0.0087890625,-0.9863281,-0.3125,-0.375,-0.09375,0.0,0.0,0.0,287
77,1695809506910,0.30371094,-0.022460938,-0.9785156,0.21875,-0.3125,-0.03125,0.0,0.0,0.0,288
78,1695809506950,0.2861328,-0.021484375,-0.9794922,-0.0625,-0.3125,0.21875,0.0,0.0,0.0,289
79,1695809506990,0.28222656,-0.0078125,-0.9902344,-0.25,-0.4375,-0.09375,0.0,0.0,0.0,290
80,1695809507030,0.29882812,-0.013671875,-0.9736328,0.34375,0.3125,0.03125,0.0,0.0,0.0,291
81,1695809507070,0.29492188,-0.01953125,-0.9814453,-0.125,-0.25,-0.09375,0.0,0.0,0.0,292
82,1695809507110,0.30078125,-0.0126953125,-0.9892578,-0.0625,-0.3125,-0.1875,0.0,0.0,0.0,293
83,1695809507150,0.29296875,-0.01171875,-0.98535156,0.03125,0.3125,-0.09375,0.0,0.0,0.0,294
84,1695809507190,0.29882812,-0.015625,-0.98339844,0.21875,0.1875,-0.09375,0.0,0.0,0.0,295
85,1695809507230,0.29492188,-0.0107421875,-0.99121094,-0.0625,-0.0625,0.09375,-17.5625,-13.1875,-163.875,296
86,1695809507270,0.29296875,-0.00390625,-0.984375,0.0,0.1875,-0.09375,0.0,0.0,0.0,297
87,1695809507310,0.296875,-0.018554688,-0.9794922,0.21875,0.3125,0.21875,0.0,0.0,0.0,298
88,1695809507350,0.28808594,-0.005859375,-0.96972656,0.03125,-0.0625,0.09375,0.0,0.0,0.0,299
89,1695809507390,0.29492188,-0.009765625,-0.9736328,0.28125,0.125,0.03125,0.0,0.0,0.0,300
90,1695809507430,0.29296875,-0.025390625,-0.9902344,0.03125,0.4375,0.09375,0.0,0.0,0.0,301
91,1695809507470,0.30566406,-0.0068359375,-0.96875,0.0,-0.4375,0.03125,0.0,0.0,0.0,302
92,1695809507510,0.29589844,-0.03125,-0.98046875,0.21875,-0.25,0.15625,0.0,0.0,0.0,303
93,1695809507550,0.29492188,-0.016601562,-0.97753906,-0.3125,0.0,-0.03125,0.0,0.0,0.0,304
94,1695809507590,0.3046875,-0.01171875,-0.97265625,0.28125,-0.125,0.03125,0.0,0.0,0.0,305
95,1695809507630,0.29492188,-0.020507812,-0.9785156,-0.125,0.0,0.03125,0.0,0.0,0.0,306
96,1695809507670,0.2998047,-0.0146484375,-0.97558594,-0.0625,-0.53125,-0.1875,0.0,0.0,0.0,307
97,1695809507710,0.2919922,-0.01953125,-0.98339844,0.15625,0.125,-0.03125,-17.875,-14.8125,-164.3125,308
98,1695809507750,0.29492188,-0.018554688,-0.97265625,-0.0625,0.0,-0.15625,0.0,0.0,0.0,309
99,1695809507790,0.30273438,-0.01171875,-0.9941406,0.09375,-0.25,0.03125,0.0,0.0,0.0,310
100,1695809507830,0.2841797,-0.025390625,-0.96875,0.15625,0.125,0.21875,0.0,0.0,0.0,311
101,1695809507870,0.3017578,-0.0107421875,-0.96777344,-0.5,-0.3125,0.15625,0.0,0.0,0.0,312
102,1695809507910,0.29785156,-0.022460938,-0.98046875,0.28125,-0.1875,-0.09375,0.0,0.0,0.0,313
103,1695809507950,0.29589844,-0.018554688,-0.9824219,0.03125,0.0625,-0.09375,0.0,0.0,0.0,314
104,1695809507990,0.2890625,-0.018554688,-0.98339844,0.15625,0.1875,-0.09375,0.0,0.0,0.0,315
105,1695809508030,0.29785156,-0.022460938,-0.9765625,0.28125,0.375,-0.09375,0.0,0.0,0.0,316
106,1695809508070,0.28808594,-0.021484375,-0.98046875,-0.1875,-0.1875,0.09375,0.0,0.0,0.0,317
107,1695809508110,0.296875,-0.0126953125,-0.98535156,-0.1875,0.125,-0.15625,0.0,0.0,0.0,318
108,1695809508150,0.29492188,-0.017578125,-0.9765625,0.21875,0.625,0.40625,0.0,0.0,0.0,319
109,1695809508190,0.30273438,-0.013671875,-0.96875,-0.3125,-0.65625,0.15625,-17.5625,-14.5,-164.625,320
110,1695809508230,0.29003906,-0.0126953125,-0.97558594,0.46875,0.4375,0.28125,0.0,0.0,0.0,321
111,1695809508270,0.2890625,-0.017578125,-0.97753906,0.0,-0.0625,0.28125,0.0,0.0,0.0,322
112,1695809508310,0.28710938,-0.016601562,-0.9951172,-0.1875,-0.4375,-0.03125,0.0,0.0,0.0,323
113,1695809508350,0.29492188,-0.0126953125,-0.9658203,0.28125,0.0,0.09375,0.0,0.0,0.0,324
114,1695809508390,0.28808594,-0.017578125,-0.97558594,-0.5,-0.4375,-0.15625,0.0,0.0,0.0,325
115,1695809508430,0.296875,-0.0107421875,-0.98828125,0.65625,0.375,-0.09375,0.0,0.0,0.0,326
116,1695809508470,0.2939453,-0.028320312,-0.9746094,-0.0625,-0.1875,-0.15625,0.0,0.0,0.0,327
117,1695809508510,0.29101562,-0.01171875,-0.9941406,-0.3125,-0.125,-0.15625,0.0,0.0,0.0,328
118,1695809508550,0.30371094,-0.0107421875,-0.98535156,0.15625,0.125,0.03125,0.0,0.0,0.0,329
119,1695809508590,0.2861328,-0.0068359375,-0.984375,0.09375,0.0625,0.03125,0.0,0.0,0.0,330
120,1695809508630,0.29589844,-0.018554688,-0.97558594,0.15625,-0.3125,0.15625,0.0,0.0,0.0,331
121,1695809508670,0.29003906,-0.025390625,-0.984375,0.0,0.25,0.09375,0.0,0.0,0.0,332
122,1695809508710,0.29882812,-0.021484375,-0.98046875,-0.125,-0.3125,-0.15625,-17.125,-14.8125,-162.8125,333
123,1695809508750,0.2998047,-0.018554688,-0.99121094,0.21875,-0.125,-0.09375,0.0,0.0,0.0,334
124,1695809508790,0.27929688,-0.017578125,-0.99121094,-0.125,-0.1875,0.03125,0.0,0.0,0.0,335
125,1695809508830,0.29296875,-0.017578125,-0.98046875,-0.125,-0.0625,-0.03125,0.0,0.0,0.0,336
126,1695809508870,0.29101562,-0.01953125,-0.99121094,-0.125,0.1875,-0.15625,0.0,0.0,0.0,337
127,1695809508910,0.28808594,-0.020507812,-0.9863281,0.0,0.375,-0.09375,0.0,0.0,0.0,338
128,1695809508950,0.2939453,-0.01953125,-0.9892578,0.21875,0.5,-0.09375,0.0,0.0,0.0,339
129,1695809508990,0.3017578,-0.026367188,-0.9736328,-0.0625,-0.1875,-0.15625,0.0,0.0,0.0,340
130,1695809509030,0.3017578,-0.0234375,-0.97753906,-0.125,-0.0625,-0.15625,0.0,0.0,0.0,341
131,1695809509070,0.2939453,-0.025390625,-0.98535156,-0.0625,0.53125,0.1875,0.0,0.0,0.0,342
132,1695809509110,0.30273438,-0.015625,-0.97558594,-0.0625,0.0,0.25,0.0,0.0,0.0,343
133,1695809509150,0.29882812,-0.021484375,-0.9794922,-0.0625,0.3125,-0.03125,0.0,0.0,0.0,344
134,1695809509190,0.30273438,-0.0126953125,-0.98046875,0.25,-0.0625,-0.15625,-17.375,-13.9375,-163.125,345
135,1695809509230,0.2939453,-0.0107421875,-0.984375,-0.125,-0.125,0.125,0.0,0.0,0.0,346
136,1695809509270,0.28808594,-0.017578125,-0.9951172,-0.125,-0.0625,0.0625,0.0,0.0,0.0,347
137,1695809509310,0.29589844,-0.0107421875,-0.9951172,-0.0625,-0.375,-0.15625,0.0,0.0,0.0,348
138,1695809509350,0.3017578,-0.018554688,-0.97753906,-0.125,-0.125,-0.21875,0.0,0.0,0.0,349
139,1695809509390,0.296875,-0.0146484375,-0.98828125,-0.125,-0.125,-0.09375,0.0,0.0,0.0,350
140,1695809509430,0.29589844,-0.020507812,-0.9892578,-0.0625,0.1875,0.0625,0.0,0.0,0.0,351
141,1695809509470,0.2998047,-0.018554688,-0.97753906,-0.1875,-0.0625,-0.09375,0.0,0.0,0.0,352
142,1695809509510,0.29492188,-0.016601562,-0.98046875,-0.21875,-0.25,-0.09375,0.0,0.0,0.0,353
143,1695809509550,0.3017578,-0.022460938,-0.97753906,-0.28125,-0.0625,0.0,0.0,0.0,0.0,354
144,1695809509590,0.296875,-0.030273438,-0.9765625,0.125,0.125,-0.09375,0.0,0.0,0.0,355
145,1695809509630,0.29492188,-0.018554688,-0.9765625,-0.21875,-0.1875,-0.15625,0.0,0.0,0.0,356
146,1695809509670,0.29882812,-0.017578125,-0.9902344,0.0625,0.125,-0.21875,0.0,0.0,0.0,357
147,1695809509710,0.29492188,-0.016601562,-0.9736328,-0.125,0.0625,-0.21875,-18.4375,-13.9375,-162.625,358
148,1695809509750,0.2783203,-0.0078125,-0.9785156,-0.28125,-0.125,0.0,0.0,0.0,0.0,359
149,1695809509790,0.2861328,-0.0146484375,-0.98339844,-0.1875,0.0,0.0625,0.0,0.0,0.0,360
150,1695809509830,0.29589844,-0.017578125,-0.9921875,-0.125,0.0,-0.03125,0.0,0.0,0.0,361
151,1695809509870,0.29296875,-0.025390625,-0.98828125,-0.125,-0.125,-0.15625,0.0,0.0,0.0,362
152,1695809509910,0.28710938,-0.016601562,-0.9980469,0.25,0.34375,0.0,0.0,0.0,0.0,363
153,1695809509950,0.2939453,-0.0107421875,-0.9873047,-0.1875,0.3125,-0.09375,0.0,0.0,0.0,364
154,1695809509990,0.29296875,-0.015625,-0.9824219,0.1875,0.125,-0.34375,0.0,0.0,0.0,365
155,1695809510030,0.2939453,-0.022460938,-0.98339844,0.0,0.25,0.0,0.0,0.0,0.0,366
156,1695809510070,0.2919922,-0.0126953125,-0.9951172,0.0,0.25,-0.09375,0.0,0.0,0.0,367
157,1695809510110,0.29296875,-0.0146484375,-0.9794922,0.25,0.125,-0.15625,0.0,0.0,0.0,368
158,1695809510150,0.29785156,-0.013671875,-0.984375,-0.1875,-0.3125,0.0625,0.0,0.0,0.0,369
159,1695809510190,0.29492188,-0.0146484375,-0.9902344,-0.53125,-0.5,-0.03125,-18.3125,-14.1875,-164.3125,370
160,1695809510230,0.2939453,-0.021484375,-0.9863281,-0.21875,-0.125,0.0,0.0,0.0,0.0,371
161,1695809510270,0.30371094,-0.018554688,-0.9785156,-0.125,-0.0625,-0.09375,0.0,0.0,0.0,372
162,1695809510310,0.296875,-0.013671875,-0.98535156,-0.28125,-0.3125,-0.09375,0.0,0.0,0.0,373
163,1695809510350,0.29101562,-0.020507812,-0.9794922,0.25,0.125,-0.34375,0.0,0.0,0.0,374
164,1695809510390,0.29296875,-0.018554688,-0.9824219,-0.125,-0.125,-0.21875,0.0,0.0,0.0,375
165,1695809510430,0.29492188,-0.016601562,-0.9794922,0.0,0.0625,-0.28125,0.0,0.0,0.0,376
166,1695809510470,0.28808594,-0.0107421875,-0.9794922,-0.1875,0.1875,-0.09375,0.0,0.0,0.0,377
167,1695809510510,0.29589844,-0.0107421875,-0.97265625,-0.21875,-0.25,-0.21875,0.0,0.0,0.0,378
168,1695809510550,0.29296875,-0.013671875,-0.98046875,-0.1875,-0.125,-0.09375,0.0,0.0,0.0,379
169,1695809510590,0.29101562,-0.017578125,-0.97558594,-0.1875,-0.125,-0.15625,0.0,0.0,0.0,380
170,1695809510630,0.2919922,-0.0146484375,-0.98339844,-0.125,0.0,-0.34375,0.0,0.0,0.0,381
171,1695809510670,0.2890625,-0.0126953125,-0.98339844,0.0,0.3125,-0.09375,-19.0625,-14.6875,-163.6875,382
172,1695809510710,0.296875,-0.0107421875,-0.97558594,0.0,-0.25,-0.15625,0.0,0.0,0.0,383
173,1695809510750,0.29101562,-0.021484375,-0.98535156,0.0,0.0,0.0625,0.0,0.0,0.0,384
174,1695809510790,0.29589844,-0.01953125,-0.98828125,-0.0625,0.1875,-0.09375,0.0,0.0,0.0,385
175,1695809510830,0.29101562,-0.0078125,-0.9824219,0.5625,0.1875,-0.03125,0.0,0.0,0.0,386
176,1695809510870,0.3017578,-0.013671875,-0.9746094,-0.0625,0.25,-0.21875,0.0,0.0,0.0,387
177,1695809510910,0.296875,-0.018554688,-0.99609375,-0.0625,0.34375,-0.09375,0.0,0.0,0.0,388
178,1695809510950,0.29296875,-0.020507812,-0.9902344,0.0625,0.34375,0.0625,0.0,0.0,0.0,389
179,1695809510990,0.3017578,-0.015625,-0.9892578,-0.125,-0.0625,0.0625,0.0,0.0,0.0,390
180,1695809511030,0.30371094,-0.013671875,-0.984375,-0.125,-0.3125,0.0625,0.0,0.0,0.0,391
181,1695809511070,0.28710938,-0.0078125,-0.98339844,-0.0625,0.0625,0.0625,0.0,0.0,0.0,392
182,1695809511110,0.29101562,-0.0146484375,-0.98828125,-0.125,-0.25,0.0,0.0,0.0,0.0,393
183,1695809511150,0.29785156,-0.009765625,-0.9794922,-0.125,-0.375,-0.15625,-18.3125,-14.1875,-164.625,394
184,1695809511190,0.28710938,-0.022460938,-0.9892578,-0.0625,0.1875,-0.03125,0.0,0.0,0.0,395
185,1695809511230,0.29492188,-0.017578125,-0.9794922,-0.46875,-0.1875,-0.15625,0.0,0.0,0.0,396
186,1695809511270,0.30273438,-0.016601562,-0.9873047,-0.0625,-0.0625,-0.09375,0.0,0.0,0.0,397
187,1695809511310,0.29296875,-0.018554688,-0.9902344,-0.21875,-0.25,-0.03125,0.0,0.0,0.0,398
188,1695809511350,0.2998047,-0.021484375,-0.9824219,-0.21875,-0.0625,-0.15625,0.0,0.0,0.0,399
189,1695809511390,0.296875,-0.020507812,-0.9794922,-0.21875,0.1875,-0.09375,0.0,0.0,0.0,400
190,1695809511430,0.29785156,-0.015625,-0.9824219,0.0,-0.1875,-0.21875,0.0,0.0,0.0,401
191,1695809511470,0.28320312,-0.009765625,-0.98535156,-0.0625,0.125,-0.03125,0.0,0.0,0.0,402
192,1695809511510,0.29296875,-0.018554688,-0.9941406,-0.28125,0.0625,-0.15625,0.0,0.0,0.0,403
193,1695809511550,0.29101562,-0.0087890625,-0.96875,0.25,0.1875,0.0,0.0,0.0,0.0,404
194,1695809511590,0.29882812,-0.016601562,-0.9814453,-0.125,0.0625,0.125,0.0,0.0,0.0,405
195,1695809511630,0.29296875,-0.0126953125,-0.9824219,-0.0625,0.0625,0.0,0.0,0.0,0.0,406
196,1695809511670,0.29296875,-0.017578125,-0.97753906,-0.0625,0.0,0.0625,0.0,0.0,0.0,407
197,1695809511710,0.2939453,-0.021484375,-0.9785156,0.1875,0.25,0.0,-18.625,-13.75,-164.875,408
198,1695809511750,0.28808594,-0.009765625,-0.98339844,-0.0625,0.0625,-0.03125,0.0,0.0,0.0,409
199,1695809511790,0.29882812,-0.016601562,-0.9707031,-0.125,-0.0625,-0.09375,0.0,0.0,0.0,410
200,1695809511830,0.296875,-0.013671875,-0.9785156,0.125,-0.0625,-0.21875,0.0,0.0,0.0,411
201,1695809511870,0.29492188,-0.013671875,-0.9716797,-0.125,-0.125,-0.09375,0.0,0.0,0.0,412
202,1695809511910,0.3017578,-0.0087890625,-0.96972656,-0.0625,0.0625,-0.34375,0.0,0.0,0.0,413
203,1695809511950,0.3017578,-0.028320312,-0.9765625,-0.125,-0.1875,-0.21875,0.0,0.0,0.0,414
204,1695809511990,0.28710938,-0.028320312,-0.984375,-0.28125,-0.5625,-0.03125,0.0,0.0,0.0,415
205,1695809512030,0.27929688,-0.015625,-0.9814453,-0.28125,-0.125,-0.09375,0.0,0.0,0.0,416
206,1695809512070,0.2890625,-0.025390625,-0.9785156,0.0,-0.1875,-0.15625,0.0,0.0,0.0,417
207,1695809512110,0.29492188,-0.0107421875,-0.9814453,-0.40625,0.0625,-0.21875,0.0,0.0,0.0,418
208,1695809512150,0.29101562,-0.021484375,-0.98046875,0.0,0.1875,-0.21875,0.0,0.0,0.0,419
209,1695809512190,0.296875,-0.0146484375,-0.9902344,-0.1875,-0.3125,-0.40625,-18.4375,-13.9375,-165.0625,420
210,1695809512230,0.3017578,-0.0146484375,-0.98828125,0.0625,0.0625,-0.15625,0.0,0.0,0.0,421
211,1695809512270,0.29296875,-0.0146484375,-0.9707031,-0.59375,-0.25,-0.03125,0.0,0.0,0.0,422
212,1695809512310,0.3017578,-0.01171875,-0.98339844,-0.21875,0.25,-0.21875,0.0,0.0,0.0,423
213,1695809512350,0.2861328,-0.020507812,-0.9765625,-0.0625,0.34375,0.25,0.0,0.0,0.0,424
214,1695809512390,0.29882812,-0.0146484375,-0.9794922,0.0,0.0,-0.03125,0.0,0.0,0.0,425
215,1695809512430,0.28515625,-0.01953125,-0.9892578,0.1875,0.3125,0.1875,0.0,0.0,0.0,426
216,1695809512470,0.29296875,-0.017578125,-0.9736328,0.125,-0.375,-0.21875,0.0,0.0,0.0,427
217,1695809512510,0.29785156,-0.0146484375,-0.9794922,0.0,-0.125,-0.09375,0.0,0.0,0.0,428
218,1695809512550,0.28222656,-0.0126953125,-0.96972656,0.25,-0.0625,-0.09375,0.0,0.0,0.0,429
219,1695809512590,0.2919922,-0.020507812,-0.98535156,-0.1875,-0.0625,-0.09375,0.0,0.0,0.0,430
220,1695809512630,0.29101562,-0.020507812,-0.9824219,-0.40625,-0.1875,0.1875,0.0,0.0,0.0,431
221,1695809512670,0.29492188,-0.021484375,-0.9716797,-0.0625,-0.125,0.0,0.0,0.0,0.0,432
222,1695809512710,0.2861328,-0.018554688,-0.9902344,-0.21875,0.0625,0.0,-18.875,-13.1875,-164.875,433
223,1695809512750,0.29492188,-0.021484375,-0.9863281,0.125,0.3125,-0.03125,0.0,0.0,0.0,434
224,1695809512790,0.29785156,-0.0078125,-0.9902344,-0.1875,-0.25,0.0,0.0,0.0,0.0,435
225,1695809512830,0.2890625,-0.0107421875,-0.9785156,-0.0625,0.0,-0.03125,0.0,0.0,0.0,436
226,1695809512870,0.29003906,-0.020507812,-0.9794922,0.375,-0.1875,-0.03125,0.0,0.0,0.0,437
227,1695809512910,0.29003906,-0.021484375,-0.9736328,-0.0625,0.125,0.125,0.0,0.0,0.0,438
228,1695809512950,0.29003906,-0.01953125,-0.9863281,0.3125,-0.3125,0.0,0.0,0.0,0.0,439
229,1695809512990,0.28710938,-0.015625,-0.99121094,-0.34375,-0.125,0.0,0.0,0.0,0.0,440
230,1695809513030,0.29785156,-0.015625,-0.98339844,0.25,0.46875,-0.03125,0.0,0.0,0.0,441
231,1695809513070,0.29492188,-0.015625,-0.9824219,0.3125,0.34375,0.0625,0.0,0.0,0.0,442
232,1695809513110,0.29296875,-0.016601562,-0.98535156,-0.0625,0.0625,0.0,0.0,0.0,0.0,443
233,1695809513150,0.29589844,-0.013671875,-0.97558594,0.0,0.1875,0.25,0.0,0.0,0.0,444
234,1695809513190,0.2939453,-0.020507812,-0.98535156,-0.125,-0.375,-0.09375,-17.875,-15.5625,-164.3125,445
235,1695809513230,0.27734375,-0.0146484375,-0.984375,-0.21875,-0.1875,0.1875,0.0,0.0,0.0,446
236,1695809513270,0.3017578,-0.01953125,-0.9814453,0.0625,-0.3125,-0.09375,0.0,0.0,0.0,447
237,1695809513310,0.29785156,-0.013671875,-0.98046875,-0.40625,-0.0625,0.0,0.0,0.0,0.0,448
238,1695809513350,0.29101562,-0.017578125,-0.9716797,0.0625,-0.1875,0.0,0.0,0.0,0.0,449
239,1695809513390,0.29101562,-0.0078125,-0.98828125,-0.1875,-0.3125,-0.03125,0.0,0.0,0.0,450
240,1695809513430,0.29101562,-0.013671875,-0.9785156,-0.1875,-0.0625,-0.15625,0.0,0.0,0.0,451
241,1695809513470,0.2841797,-0.0107421875,-0.9814453,0.0625,-0.0625,0.3125,0.0,0.0,0.0,452
242,1695809513510,0.29296875,-0.013671875,-0.9736328,-0.28125,-0.0625,0.25,0.0,0.0,0.0,453
243,1695809513550,0.2939453,-0.016601562,-0.9765625,-0.0625,-0.0625,0.0625,0.0,0.0,0.0,454
244,1695809513590,0.29003906,-0.0146484375,-0.96972656,0.375,0.0625,0.125,0.0,0.0,0.0,455
245,1695809513630,0.29003906,-0.0087890625,-0.99121094,-0.125,-0.25,-0.09375,0.0,0.0,0.0,456
246,1695809513670,0.28808594,-0.0146484375,-0.9814453,-0.0625,0.125,0.0625,0.0,0.0,0.0,457
247,1695809513710,0.29101562,-0.018554688,-0.9746094,-0.125,0.0,0.125,-18.4375,-14.375,-165.0625,458
248,1695809513750,0.30078125,-0.0234375,-0.9794922,0.125,0.25,0.1875,0.0,0.0,0.0,459
249,1695809513790,0.2939453,-0.0107421875,-0.9873047,-0.21875,-0.1875,0.0,0.0,0.0,0.0,460
250,1695809513830,0.28710938,-0.022460938,-0.9824219,0.25,0.125,0.25,0.0,0.0,0.0,461
251,1695809513870,0.29101562,-0.0234375,-0.9746094,-0.0625,-0.3125,0.25,0.0,0.0,0.0,462
252,1695809513910,0.2939453,-0.016601562,-0.9824219,-0.1875,-0.3125,0.0,0.0,0.0,0.0,463
253,1695809513950,0.29101562,-0.0087890625,-0.9863281,-0.34375,-0.25,-0.09375,0.0,0.0,0.0,464
254,1695809513990,0.2939453,-0.01953125,-0.9794922,-0.0625,-0.4375,0.125,0.0,0.0,0.0,465
255,1695809514030,0.29101562,-0.01953125,-0.9794922,-0.34375,-0.1875,0.1875,0.0,0.0,0.0,466
256,1695809514070,0.2890625,-0.015625,-0.97558594,-0.125,-0.4375,-0.03125,0.0,0.0,0.0,467
257,1695809514110,0.30273438,-0.021484375,-0.9863281,-0.34375,0.1875,0.0625,0.0,0.0,0.0,468
258,1695809514150,0.2939453,-0.009765625,-0.9902344,0.1875,0.1875,0.0625,0.0,0.0,0.0,469
259,1695809514190,0.28808594,-0.015625,-0.9892578,0.125,0.125,0.0625,-19.0625,-14.375,-164.0,470
260,1695809514230,0.28125,-0.017578125,-0.9824219,-0.65625,0.0,0.0,0.0,0.0,0.0,471
261,1695809514270,0.29785156,-0.01953125,-0.98339844,-0.125,-0.3125,-0.15625,0.0,0.0,0.0,472
262,1695809514310,0.29101562,-0.016601562,-0.9824219,-0.34375,0.25,0.0625,0.0,0.0,0.0,473
263,1695809514350,0.29492188,-0.015625,-1.0019531,-0.34375,-0.3125,-0.09375,0.0,0.0,0.0,474
264,1695809514390,0.2861328,-0.015625,-0.9921875,-0.59375,-0.0625,0.0,0.0,0.0,0.0,475
265,1695809514430,0.29492188,-0.0087890625,-0.9902344,-0.40625,0.3125,-0.09375,0.0,0.0,0.0,476
266,1695809514470,0.296875,-0.013671875,-0.98828125,0.25,0.0625,0.0625,0.0,0.0,0.0,477
267,1695809514510,0.28710938,-0.0078125,-0.9824219,-0.125,0.0625,0.1875,0.0,0.0,0.0,478
268,1695809514550,0.2841797,-0.017578125,-0.97558594,-0.125,-0.125,0.0,0.0,0.0,0.0,479
269,1695809514590,0.28808594,-0.0078125,-0.9765625,-0.0625,0.1875,0.0625,0.0,0.0,0.0,480
270,1695809514630,0.29785156,-0.0146484375,-0.98535156,0.5,-0.0625,-0.03125,0.0,0.0,0.0,481
271,1695809514670,0.2861328,-0.0234375,-0.98828125,0.0625,0.0625,0.3125,0.0,0.0,0.0,482
272,1695809514710,0.29785156,-0.0029296875,-0.9863281,-0.125,-0.3125,-0.15625,-18.625,-15.5625,-164.875,483
273,1695809514750,0.29589844,-0.013671875,-0.98339844,0.125,0.40625,0.125,0.0,0.0,0.0,484
274,1695809514790,0.27539062,-0.016601562,-0.9980469,-0.46875,-0.375,-0.09375,0.0,0.0,0.0,485
275,1695809514830,0.2861328,-0.016601562,-0.99121094,0.0,0.0625,-0.21875,0.0,0.0,0.0,486
276,1695809514870,0.28515625,-0.016601562,-0.9873047,-0.0625,0.1875,-0.09375,0.0,0.0,0.0,487
277,1695809514910,0.2890625,-0.01171875,-0.9873047,-0.125,-0.125,-0.15625,0.0,0.0,0.0,488
278,1695809514950,0.29296875,-0.020507812,-0.97558594,0.25,0.1875,-0.09375,0.0,0.0,0.0,489
279,1695809514990,0.2861328,-0.0146484375,-0.98828125,-0.125,0.0,0.125,0.0,0.0,0.0,490
280,1695809515030,0.2919922,-0.021484375,-0.99121094,0.375,0.40625,0.0625,0.0,0.0,0.0,491
281,1695809515070,0.28027344,-0.01953125,-0.9736328,-0.125,0.0,-0.03125,0.0,0.0,0.0,492
282,1695809515110,0.2939453,-0.01171875,-0.99121094,-0.78125,-0.125,-0.15625,0.0,0.0,0.0,493
283,1695809515150,0.2890625,-0.0087890625,-0.98828125,0.5625,0.34375,-0.09375,0.0,0.0,0.0,494
284,1695809515190,0.2890625,-0.018554688,-0.9785156,-0.1875,0.0625,-0.21875,-16.9375,-13.9375,-164.4375,495
285,1695809515230,0.2919922,-0.0146484375,-0.9873047,-0.0625,0.0625,-0.15625,0.0,0.0,0.0,496
286,1695809515270,0.29003906,-0.025390625,-0.9785156,0.0625,0.46875,0.1875,0.0,0.0,0.0,497
287,1695809515310,0.29589844,-0.016601562,-0.97558594,-0.125,-0.0625,-0.09375,0.0,0.0,0.0,498
288,1695809515350,0.29101562,-0.016601562,-0.98535156,0.375,0.40625,-0.03125,0.0,0.0,0.0,499
289,1695809515390,0.29101562,-0.021484375,-0.9824219,-0.0625,0.65625,0.0625,0.0,0.0,0.0,500
290,1695809515430,0.29492188,-0.0126953125,-0.97753906,0.1875,0.1875,-0.09375,0.0,0.0,0.0,501
291,1695809515470,0.2919922,-0.013671875,-0.9824219,-0.0625,0.25,0.09375,0.0,0.0,0.0,502
292,1695809515510,0.29589844,-0.017578125,-0.97265625,0.625,-0.34375,0.21875,0.0,0.0,0.0,503
293,1695809515550,0.28710938,-0.015625,-0.9873047,-0.0625,-0.15625,0.28125,0.0,0.0,0.0,504
294,1695809515590,0.29492188,-0.015625,-0.9863281,-0.0625,-0.65625,-0.03125,0.0,0.0,0.0,505
295,1695809515630,0.29003906,-0.0126953125,-0.9941406,0.3125,-0.21875,0.21875,0.0,0.0,0.0,506
296,1695809515670,0.29003906,-0.0146484375,-0.9794922,1.09375,0.125,0.09375,0.0,0.0,0.0,507
297,1695809515710,0.29296875,-0.015625,-0.9765625,0.375,0.0,0.15625,-18.0,-14.375,-165.0625,508
298,1695809515750,0.29492188,-0.017578125,-0.98828125,0.125,-0.15625,-0.09375,0.0,0.0,0.0,509
299,1695809515790,0.3017578,-0.016601562,-0.97265625,-0.0625,-0.09375,0.03125,0.0,0.0,0.0,510
300,1695809515830,0.2841797,-0.016601562,-0.9921875,-0.375,-0.28125,-0.03125,0.0,0.0,0.0,511
301,1695809515870,0.296875,-0.0146484375,-0.98339844,0.0,0.0,0.15625,0.0,0.0,0.0,512
302,1695809515910,0.2939453,-0.017578125,-0.9794922,-0.25,-0.0625,0.03125,0.0,0.0,0.0,513
303,1695809515950,0.2890625,-0.0107421875,-0.99121094,-0.0625,-0.34375,-0.09375,0.0,0.0,0.0,514
304,1695809515990,0.28808594,-0.018554688,-0.9814453,-0.25,0.0,0.03125,0.0,0.0,0.0,515
305,1695809516030,0.296875,-0.005859375,-0.9824219,-0.3125,-0.15625,-0.15625,0.0,0.0,0.0,516
306,1695809516070,0.2939453,-0.015625,-0.9736328,0.125,0.1875,-0.09375,0.0,0.0,0.0,517
307,1695809516110,0.2841797,-0.01953125,-0.99121094,-0.3125,-0.15625,-0.21875,0.0,0.0,0.0,518
308,1695809516150,0.29003906,-0.0107421875,-0.9863281,0.0,-0.0625,-0.21875,0.0,0.0,0.0,519
309,1695809516190,0.2890625,-0.0146484375,-0.98046875,0.0,0.0625,-0.03125,-18.4375,-15.4375,-164.0,520
310,1695809516230,0.2841797,-0.0107421875,-0.99121094,0.0,0.0625,-0.03125,0.0,0.0,0.0,521
311,1695809516270,0.2861328,-0.0126953125,-0.9863281,-0.125,0.0,-0.09375,0.0,0.0,0.0,522
312,1695809516310,0.29296875,-0.020507812,-0.9873047,0.25,0.375,0.15625,0.0,0.0,0.0,523
313,1695809516350,0.29003906,-0.01171875,-0.97558594,0.1875,-0.53125,0.03125,0.0,0.0,0.0,524
314,1695809516390,0.2890625,-0.01953125,-0.9765625,-0.3125,-0.28125,-0.21875,0.0,0.0,0.0,525
315,1695809516430,0.29003906,-0.0234375,-0.98828125,0.5,-0.09375,-0.09375,0.0,0.0,0.0,526
316,1695809516470,0.2861328,-0.018554688,-0.98339844,-0.125,-0.28125,0.15625,0.0,0.0,0.0,527
317,1695809516510,0.28808594,-0.024414062,-0.98046875,0.1875,-0.15625,0.09375,0.0,0.0,0.0,528
318,1695809516550,0.29101562,-0.0107421875,-0.9921875,0.0,-0.0625,0.09375,0.0,0.0,0.0,529
319,1695809516590,0.29492188,-0.01953125,-0.97753906,0.0625,-0.0625,0.03125,0.0,0.0,0.0,530
320,1695809516630,0.2939453,-0.016601562,-0.9824219,-0.53125,-0.28125,0.15625,0.0,0.0,0.0,531
321,1695809516670,0.30273438,-0.017578125,-0.9765625,0.1875,-0.53125,0.21875,0.0,0.0,0.0,532
322,1695809516710,0.29101562,-0.024414062,-0.9902344,-0.53125,-0.40625,0.15625,-17.875,-15.25,-163.5625,533
323,1695809516750,0.29492188,-0.0126953125,-0.9716797,0.125,-0.40625,-0.28125,0.0,0.0,0.0,534
324,1695809516790,0.2861328,-0.0234375,-0.98535156,-0.125,0.125,0.03125,0.0,0.0,0.0,535
325,1695809516830,0.28125,-0.017578125,-0.99121094,-0.5,-0.34375,-0.34375,0.0,0.0,0.0,536
326,1695809516870,0.3017578,-0.01171875,-0.9902344,0.4375,0.0,-0.15625,0.0,0.0,0.0,537
327,1695809516910,0.29003906,-0.022460938,-0.9746094,-0.0625,-0.15625,0.15625,0.0,0.0,0.0,538
328,1695809516950,0.29296875,-0.0126953125,-0.9824219,0.125,0.0625,-0.21875,0.0,0.0,0.0,539
329,1695809516990,0.2861328,-0.021484375,-0.9794922,0.3125,0.25,0.34375,0.0,0.0,0.0,540
330,1695809517030,0.28710938,-0.013671875,-0.97753906,-0.1875,-0.15625,-0.03125,0.0,0.0,0.0,541
331,1695809517070,0.2890625,-0.026367188,-0.98535156,0.125,0.375,0.15625,0.0,0.0,0.0,542
332,1695809517110,0.29296875,-0.009765625,-0.9746094,-0.59375,-0.15625,0.15625,0.0,0.0,0.0,543
333,1695809517150,0.30078125,-0.0068359375,-0.98535156,0.0625,0.4375,-0.15625,0.0,0.0,0.0,544
334,1695809517190,0.29101562,-0.0126953125,-0.9892578,-0.125,-0.09375,0.15625,-18.3125,-14.1875,-163.5625,545
335,1695809517230,0.2841797,-0.0126953125,-0.99121094,0.0,0.375,-0.15625,0.0,0.0,0.0,546
336,1695809517270,0.29101562,-0.017578125,-0.9814453,0.625,0.25,-0.21875,0.0,0.0,0.0,547
337,1695809517310,0.28320312,-0.01953125,-0.9746094,-0.0625,-0.15625,-0.03125,0.0,0.0,0.0,548
338,1695809517350,0.28027344,-0.013671875,-0.99316406,0.125,0.0625,0.03125,0.0,0.0,0.0,549
339,1695809517390,0.2939453,-0.0146484375,-0.9746094,0.3125,-0.21875,-0.03125,0.0,0.0,0.0,550
340,1695809517430,0.2890625,-0.01953125,-0.9873047,-0.125,0.0,-0.09375,0.0,0.0,0.0,551
341,1695809517470,0.296875,-0.01953125,-0.9873047,-0.0625,-0.53125,-0.21875,0.0,0.0,0.0,552
342,1695809517510,0.28808594,-0.015625,-0.9921875,0.0625,0.0,-0.34375,0.0,0.0,0.0,553
343,1695809517550,0.29003906,-0.015625,-0.9716797,0.0,-0.15625,-0.15625,0.0,0.0,0.0,554
344,1695809517590,0.29003906,-0.026367188,-0.98535156,0.0,0.125,-0.21875,0.0,0.0,0.0,555
345,1695809517630,0.28710938,-0.020507812,-0.9824219,-0.3125,0.0,-0.03125,0.0,0.0,0.0,556
346,1695809517670,0.29589844,-0.0068359375,-0.9863281,0.1875,-0.15625,-0.03125,0.0,0.0,0.0,557
347,1695809517710,0.29296875,-0.0146484375,-0.9765625,0.0625,-0.0625,0.03125,-19.8125,-14.6875,-163.125,558
348,1695809517750,0.28710938,-0.013671875,-0.9794922,-0.375,-0.21875,-0.09375,0.0,0.0,0.0,559
349,1695809517790,0.296875,-0.01953125,-0.9824219,0.25,0.25,-0.21875,0.0,0.0,0.0,560
350,1695809517830,0.28808594,-0.029296875,-0.9658203,-0.0625,-0.21875,-0.09375,0.0,0.0,0.0,561
351,1695809517870,0.28515625,-0.013671875,-1.0,0.0625,-0.0625,-0.28125,0.0,0.0,0.0,562
352,1695809517910,0.296875,-0.025390625,-0.9785156,0.25,-0.0625,0.09375,0.0,0.0,0.0,563
353,1695809517950,0.28027344,-0.013671875,-0.9941406,0.125,0.0,0.03125,0.0,0.0,0.0,564
354,1695809517990,0.29003906,-0.0146484375,-0.97265625,0.4375,0.4375,0.21875,0.0,0.0,0.0,565
355,1695809518030,0.28808594,-0.021484375,-0.97558594,-0.375,-0.0625,0.4375,0.0,0.0,0.0,566
356,1695809518070,0.29589844,-0.016601562,-0.99121094,0.0625,-0.34375,0.28125,0.0,0.0,0.0,567
357,1695809518110,0.27929688,-0.018554688,-0.9863281,-0.3125,-0.40625,0.03125,0.0,0.0,0.0,568
358,1695809518150,0.27929688,-0.017578125,-0.9794922,0.125,-0.15625,0.09375,0.0,0.0,0.0,569
359,1695809518190,0.28710938,-0.0146484375,-0.984375,-0.0625,-0.09375,-0.09375,-18.875,-14.8125,-164.875,570
360,1695809518230,0.29589844,-0.015625,-0.9902344,0.0,0.0625,-0.34375,0.0,0.0,0.0,571
361,1695809518270,0.2861328,-0.017578125,-0.98535156,-0.4375,-0.65625,-0.03125,0.0,0.0,0.0,572
362,1695809518310,0.2890625,-0.020507812,-0.99121094,-0.375,0.0625,-0.03125,0.0,0.0,0.0,573
363,1695809518350,0.29296875,-0.0087890625,-0.97753906,0.0,-0.09375,-0.21875,0.0,0.0,0.0,574
364,1695809518390,0.28710938,-0.009765625,-0.9785156,-0.0625,0.0625,0.03125,0.0,0.0,0.0,575
365,1695809518430,0.29003906,-0.0126953125,-0.9736328,0.0,-0.28125,0.03125,0.0,0.0,0.0,576
366,1695809518470,0.28320312,-0.016601562,-0.98046875,0.0,-0.09375,0.15625,0.0,0.0,0.0,577
367,1695809518510,0.2939453,-0.015625,-0.9794922,0.0625,-0.21875,0.09375,0.0,0.0,0.0,578
368,1695809518550,0.2841797,-0.025390625,-0.98339844,0.0,-0.15625,-0.03125,0.0,0.0,0.0,579
369,1695809518590,0.28808594,-0.0078125,-0.98339844,0.1875,0.5,0.03125,0.0,0.0,0.0,580
370,1695809518630,0.29296875,-0.016601562,-0.9785156,0.1875,0.125,0.03125,0.0,0.0,0.0,581
371,1695809518670,0.29296875,-0.021484375,-0.98339844,-0.0625,-0.0625,-0.15625,0.0,0.0,0.0,582
372,1695809518710,0.29296875,-0.013671875,-0.99316406,0.5,0.375,0.21875,-16.625,-13.3125,-165.0625,583
373,1695809518750,0.2861328,-0.029296875,-0.96777344,0.0625,0.0,0.15625,0.0,0.0,0.0,584
374,1695809518790,0.2841797,-0.0146484375,-0.9921875,-0.125,-0.09375,0.09375,0.0,0.0,0.0,585
375,1695809518830,0.28808594,-0.013671875,-0.9892578,0.3125,0.1875,0.15625,0.0,0.0,0.0,586
376,1695809518870,0.29492188,-0.0146484375,-0.98535156,-0.1875,-0.53125,-0.03125,0.0,0.0,0.0,587
377,1695809518910,0.28808594,-0.01171875,-0.9941406,0.3125,-0.34375,-0.03125,0.0,0.0,0.0,588
378,1695809518950,0.29003906,-0.016601562,-0.98828125,-0.375,-0.09375,0.03125,0.0,0.0,0.0,589
379,1695809518990,0.2841797,-0.013671875,-0.9824219,-0.0625,-0.40625,-0.09375,0.0,0.0,0.0,590
380,1695809519030,0.2841797,-0.020507812,-0.984375,-0.0625,-0.15625,0.03125,0.0,0.0,0.0,591
381,1695809519070,0.28710938,-0.016601562,-0.9824219,-0.1875,-0.21875,-0.15625,0.0,0.0,0.0,592
382,1695809519110,0.29296875,-0.021484375,-0.98339844,-0.0625,-0.0625,-0.15625,0.0,0.0,0.0,593
383,1695809519150,0.2861328,-0.0126953125,-0.99121094,-0.1875,-0.15625,0.03125,0.0,0.0,0.0,594
384,1695809519190,0.29101562,-0.0126953125,-0.9736328,-0.125,-0.21875,-0.03125,-19.5,-14.375,-163.6875,595
385,1695809519230,0.28027344,-0.026367188,-0.98535156,-0.0625,-0.15625,0.09375,0.0,0.0,0.0,596
386,1695809519270,0.2890625,-0.028320312,-0.9785156,-0.0625,-0.09375,-0.15625,0.0,0.0,0.0,597
387,1695809519310,0.296875,-0.017578125,-0.9863281,-0.4375,-0.28125,-0.28125,0.0,0.0,0.0,598
388,1695809519350,0.2890625,-0.013671875,-0.9902344,-0.0625,-0.0625,-0.03125,0.0,0.0,0.0,599
389,1695809519390,0.28515625,-0.0107421875,-0.9824219,-0.0625,-0.09375,0.09375,0.0,0.0,0.0,600
390,1695809519430,0.28320312,-0.015625,-0.9824219,0.0,-0.09375,0.03125,0.0,0.0,0.0,601
391,1695809519470,0.28808594,-0.00390625,-0.9892578,0.0,0.4375,-0.03125,0.0,0.0,0.0,602
392,1695809519510,0.2890625,-0.021484375,-0.99609375,0.25,0.5,-0.03125,0.0,0.0,0.0,603
393,1695809519550,0.2890625,-0.018554688,-0.9892578,0.3125,0.1875,0.15625,0.0,0.0,0.0,604
394,1695809519590,0.28515625,-0.021484375,-0.98339844,0.0,0.0625,0.09375,0.0,0.0,0.0,605
395,1695809519630,0.28515625,-0.018554688,-0.9863281,-0.0625,-0.15625,0.09375,0.0,0.0,0.0,606
396,1695809519670,0.28808594,-0.015625,-0.99121094,0.1875,-0.28125,0.03125,0.0,0.0,0.0,607
397,1695809519710,0.28222656,-0.020507812,-0.9951172,-0.1875,-0.15625,0.09375,-17.5625,-13.75,-165.375,608
398,1695809519750,0.2734375,-0.021484375,-0.98535156,-0.0625,-0.40625,-0.03125,0.0,0.0,0.0,609
399,1695809519790,0.29589844,-0.01171875,-0.9970703,0.0,-0.21875,-0.09375,0.0,0.0,0.0,610
400,1695809519830,0.28710938,-0.01953125,-0.98339844,-0.0625,-0.0625,0.09375,0.0,0.0,0.0,611
401,1695809519870,0.29101562,-0.01953125,-0.9736328,-0.0625,-0.28125,-0.15625,0.0,0.0,0.0,612
402,1695809519910,0.27929688,-0.017578125,-0.9707031,-0.125,0.0625,-0.03125,0.0,0.0,0.0,613
403,1695809519950,0.296875,-0.015625,-0.99121094,-0.1875,-0.09375,-0.09375,0.0,0.0,0.0,614
404,1695809519990,0.2890625,-0.0146484375,-0.98339844,-0.0625,-0.34375,-0.15625,0.0,0.0,0.0,615
405,1695809520030,0.28710938,-0.018554688,-0.98339844,0.0,0.0625,-0.03125,0.0,0.0,0.0,616
406,1695809520070,0.28515625,-0.0068359375,-0.97558594,0.0625,-0.09375,-0.09375,0.0,0.0,0.0,617
407,1695809520110,0.28808594,-0.017578125,-0.9765625,-0.125,-0.09375,-0.09375,0.0,0.0,0.0,618
408,1695809520150,0.29589844,-0.0146484375,-0.9892578,0.0,0.375,-0.09375,0.0,0.0,0.0,619
409,1695809520190,0.29296875,-0.015625,-0.9902344,0.1875,-0.0625,-0.03125,-17.6875,-13.625,-164.75,620
410,1695809520230,0.28515625,-0.018554688,-0.9765625,0.125,0.0,0.03125,0.0,0.0,0.0,621
411,1695809520270,0.2783203,-0.017578125,-0.9794922,0.0,0.1875,-0.03125,0.0,0.0,0.0,622
412,1695809520310,0.2861328,-0.025390625,-0.97558594,0.3125,-0.09375,-0.09375,0.0,0.0,0.0,623
413,1695809520350,0.2939453,-0.01171875,-0.98828125,-0.125,0.3125,0.03125,0.0,0.0,0.0,624
414,1695809520390,0.29296875,-0.0126953125,-0.9824219,0.1875,0.1875,0.09375,0.0,0.0,0.0,625
415,1695809520430,0.2861328,-0.009765625,-0.98046875,0.4375,0.3125,0.09375,0.0,0.0,0.0,626
416,1695809520470,0.28710938,-0.009765625,-0.99316406,-0.1875,0.1875,0.21875,0.0,0.0,0.0,627
417,1695809520510,0.29296875,-0.022460938,-0.9814453,0.375,0.0625,0.21875,0.0,0.0,0.0,628
418,1695809520550,0.29785156,-0.018554688,-0.984375,0.0625,0.125,0.09375,0.0,0.0,0.0,629
419,1695809520590,0.30273438,-0.018554688,-0.9667969,-0.125,-0.09375,0.09375,0.0,0.0,0.0,630
420,1695809520630,0.29296875,-0.013671875,-0.9794922,0.0,-0.28125,0.15625,0.0,0.0,0.0,631
421,1695809520670,0.2939453,-0.015625,-0.96972656,-0.09375,-0.46875,0.125,0.0,0.0,0.0,632
422,1695809520710,0.29003906,-0.017578125,-0.99121094,-0.28125,-0.25,-0.1875,-18.75,-14.375,-163.375,633
423,1695809520750,0.28808594,-0.009765625,-0.9814453,-0.09375,-0.25,-0.1875,0.0,0.0,0.0,634
424,1695809520790,0.29101562,-0.0087890625,-0.97753906,-0.0625,-0.0625,-0.125,0.0,0.0,0.0,635
425,1695809520830,0.29589844,-0.026367188,-0.9873047,-0.34375,-0.125,0.0,0.0,0.0,0.0,636
426,1695809520870,0.2919922,-0.018554688,-0.9736328,-0.0625,-0.0625,-0.25,0.0,0.0,0.0,637
427,1695809520910,0.2919922,-0.0146484375,-0.9892578,-0.34375,-0.3125,0.0625,0.0,0.0,0.0,638
428,1695809520950,0.28710938,-0.01953125,-0.99316406,-0.40625,-0.3125,-0.125,0.0,0.0,0.0,639
429,1695809520990,0.28710938,-0.020507812,-0.9814453,-0.0625,0.0625,-0.0625,0.0,0.0,0.0,640
430,1695809521030,0.29003906,-0.020507812,-0.9863281,-0.15625,0.0625,-0.25,0.0,0.0,0.0,641
431,1695809521070,0.28320312,-0.0146484375,-0.9863281,0.0,-0.375,-0.4375,0.0,0.0,0.0,642
432,1695809521110,0.29492188,-0.0126953125,-0.9951172,-0.09375,0.125,-0.1875,0.0,0.0,0.0,643
433,1695809521150,0.29785156,-0.015625,-0.97753906,-0.34375,0.0625,-0.125,0.0,0.0,0.0,644
434,1695809521190,0.29101562,-0.01953125,-0.9824219,-0.09375,-0.25,-0.1875,-18.625,-13.75,-164.875,645
435,1695809521230,0.28710938,-0.018554688,-0.97753906,-0.15625,0.0,-0.3125,0.0,0.0,0.0,646
436,1695809521270,0.2939453,-0.022460938,-0.9814453,-0.09375,-0.1875,-0.125,0.0,0.0,0.0,647
437,1695809521310,0.2919922,-0.024414062,-0.9794922,0.125,0.0,0.0,0.0,0.0,0.0,648
438,1695809521350,0.2939453,-0.017578125,-0.984375,-0.21875,0.0625,-0.1875,0.0,0.0,0.0,649
439,1695809521390,0.29296875,-0.021484375,-0.9794922,0.125,0.25,-0.125,0.0,0.0,0.0,650
440,1695809521430,0.28710938,-0.026367188,-0.98339844,-0.09375,-0.125,-0.0625,0.0,0.0,0.0,651
441,1695809521470,0.29589844,-0.00390625,-0.9736328,-0.21875,-0.125,-0.125,0.0,0.0,0.0,652
442,1695809521510,0.28710938,-0.009765625,-0.9785156,-0.0625,-0.0625,-0.1875,0.0,0.0,0.0,653
443,1695809521550,0.29882812,-0.013671875,-0.9794922,-0.0625,-0.0625,-0.125,0.0,0.0,0.0,654
444,1695809521590,0.29101562,-0.015625,-0.9794922,0.0,-0.65625,-0.125,0.0,0.0,0.0,655
445,1695809521630,0.29101562,-0.022460938,-0.97265625,-0.0625,-0.3125,-0.125,0.0,0.0,0.0,656
446,1695809521670,0.29296875,-0.0126953125,-0.9785156,-0.40625,-0.1875,-0.3125,0.0,0.0,0.0,657
447,1695809521710,0.29101562,-0.0107421875,-0.9980469,0.0,-0.125,-0.25,-17.875,-14.8125,-163.875,658
448,1695809521750,0.2939453,-0.01953125,-0.9921875,-0.09375,-0.1875,-0.1875,0.0,0.0,0.0,659
449,1695809521790,0.29003906,-0.016601562,-0.98046875,-0.28125,-0.375,-0.375,0.0,0.0,0.0,660
450,1695809521830,0.29101562,-0.0126953125,-0.99316406,-0.09375,-0.0625,-0.375,0.0,0.0,0.0,661
451,1695809521870,0.29589844,-0.013671875,-0.9902344,-0.09375,-0.25,-0.25,0.0,0.0,0.0,662
452,1695809521910,0.2841797,-0.0146484375,-0.984375,-0.0625,-0.1875,-0.25,0.0,0.0,0.0,663
453,1695809521950,0.2890625,-0.026367188,-0.9863281,-0.15625,-0.25,-0.125,0.0,0.0,0.0,664
454,1695809521990,0.29882812,-0.021484375,-0.97558594,-0.0625,0.0625,-0.375,0.0,0.0,0.0,665
455,1695809522030,0.29101562,-0.0048828125,-0.98046875,-0.09375,0.0625,-0.25,0.0,0.0,0.0,666
456,1695809522070,0.29003906,-0.020507812,-0.9824219,-0.53125,-0.375,-0.25,0.0,0.0,0.0,667
457,1695809522110,0.28808594,-0.017578125,-0.984375,-0.09375,0.125,-0.25,0.0,0.0,0.0,668
458,1695809522150,0.29003906,-0.017578125,-0.9736328,-0.09375,-0.46875,-0.25,0.0,0.0,0.0,669
459,1695809522190,0.28320312,-0.0107421875,-0.99121094,-0.46875,-0.3125,-0.25,-18.875,-13.75,-163.875,670
460,1695809522230,0.2841797,-0.0146484375,-0.9765625,0.0625,0.125,-0.0625,0.0,0.0,0.0,671
461,1695809522270,0.28515625,-0.0126953125,-0.9794922,-0.0625,-0.1875,-0.0625,0.0,0.0,0.0,672
462,1695809522310,0.29296875,-0.016601562,-0.98046875,0.1875,-0.0625,-0.0625,0.0,0.0,0.0,673
463,1695809522350,0.2890625,-0.01953125,-0.99121094,-0.09375,-0.375,-0.0625,0.0,0.0,0.0,674
464,1695809522390,0.29003906,-0.005859375,-0.9814453,0.1875,-0.125,0.0625,0.0,0.0,0.0,675
465,1695809522430,0.2841797,-0.0146484375,-0.9824219,-0.15625,-0.46875,0.0625,0.0,0.0,0.0,676
466,1695809522470,0.29882812,-0.015625,-0.9707031,0.0625,-0.1875,0.0,0.0,0.0,0.0,677
467,1695809522510,0.296875,-0.0234375,-0.9902344,-0.0625,-0.1875,0.1875,0.0,0.0,0.0,678
468,1695809522550,0.29492188,-0.020507812,-0.9824219,0.125,-0.1875,0.0,0.0,0.0,0.0,679
469,1695809522590,0.28125,-0.01953125,-0.984375,-0.21875,-0.4375,0.125,0.0,0.0,0.0,680
470,1695809522630,0.29492188,-0.015625,-0.9902344,-0.15625,-0.125,-0.125,0.0,0.0,0.0,681
471,1695809522670,0.28320312,-0.018554688,-0.9736328,0.25,-0.0625,-0.0625,0.0,0.0,0.0,682
472,1695809522710,0.29589844,-0.015625,-0.98535156,-0.59375,-0.375,-0.1875,-19.5,-14.375,-166.5625,683
473,1695809522750,0.28515625,-0.024414062,-0.984375,0.0,-0.3125,-0.125,0.0,0.0,0.0,684
474,1695809522790,0.29785156,-0.016601562,-0.9863281,-0.0625,0.0625,0.0,0.0,0.0,0.0,685
475,1695809522830,0.2841797,-0.0126953125,-0.9785156,-0.53125,-0.0625,-0.1875,0.0,0.0,0.0,686
476,1695809522870,0.29003906,-0.013671875,-0.9902344,0.5625,0.1875,-0.0625,0.0,0.0,0.0,687
477,1695809522910,0.28515625,-0.0078125,-0.98046875,-0.28125,-0.1875,0.0625,0.0,0.0,0.0,688
478,1695809522950,0.296875,-0.0126953125,-0.99316406,-0.0625,0.0,0.0,0.0,0.0,0.0,689
479,1695809522990,0.2841797,-0.020507812,-0.97753906,0.375,0.4375,0.0625,0.0,0.0,0.0,690
480,1695809523030,0.28320312,-0.013671875,-0.9873047,-0.40625,-0.4375,0.1875,0.0,0.0,0.0,691
481,1695809523070,0.28808594,-0.016601562,-0.9824219,0.125,0.1875,0.1875,0.0,0.0,0.0,692
482,1695809523110,0.2841797,-0.015625,-0.9785156,-0.28125,0.0625,0.0625,0.0,0.0,0.0,693
483,1695809523150,0.29492188,-0.01171875,-0.98828125,0.5,-0.3125,-0.125,0.0,0.0,0.0,694
484,1695809523190,0.28808594,-0.022460938,-0.9736328,-0.0625,-0.1875,0.125,-18.625,-13.4375,-163.875,695
485,1695809523230,0.29296875,-0.0068359375,-0.9794922,-0.78125,-0.59375,-0.0625,0.0,0.0,0.0,696
486,1695809523270,0.29101562,-0.020507812,-0.9785156,0.0625,0.125,0.0625,0.0,0.0,0.0,697
487,1695809523310,0.27734375,-0.021484375,-0.98046875,-0.65625,-0.375,0.125,0.0,0.0,0.0,698
488,1695809523350,0.3017578,-0.017578125,-0.9824219,0.0,-0.0625,-0.125,0.0,0.0,0.0,699
489,1695809523390,0.2939453,-0.024414062,-0.98535156,0.0625,-0.125,-0.25,0.0,0.0,0.0,700
490,1695809523430,0.28222656,-0.021484375,-0.98535156,-0.34375,-0.25,-0.25,0.0,0.0,0.0,701
491,1695809523470,0.30078125,-0.0068359375,-0.98046875,0.0625,-0.25,-0.0625,0.0,0.0,0.0,702
492,1695809523510,0.2841797,-0.020507812,-0.97265625,-0.21875,-0.25,-0.0625,0.0,0.0,0.0,703
493,1695809523550,0.30273438,-0.021484375,-0.98046875,-0.28125,-0.4375,-0.0625,0.0,0.0,0.0,704
494,1695809523590,0.28710938,-0.0126953125,-0.9794922,-0.40625,-0.3125,-0.25,0.0,0.0,0.0,705
495,1695809523630,0.2890625,-0.0107421875,-0.9873047,-0.0625,0.0,-0.125,0.0,0.0,0.0,706
496,1695809523670,0.28515625,-0.013671875,-0.98535156,-0.09375,0.0625,-0.0625,0.0,0.0,0.0,707
497,1695809523710,0.29296875,-0.0078125,-1.0019531,-0.15625,-0.0625,-0.0625,-18.3125,-13.4375,-163.5625,708
498,1695809523750,0.296875,-0.01171875,-0.98535156,0.125,0.125,0.125,0.0,0.0,0.0,709
499,1695809523790,0.29003906,-0.020507812,-0.9873047,-0.15625,-0.125,0.25,0.0,0.0,0.0,710
500,1695809523830,0.29589844,-0.0087890625,-0.99316406,0.0,-0.1875,0.1875,0.0,0.0,0.0,711
501,1695809523870,0.28808594,-0.024414062,-0.98046875,-0.0625,0.0625,0.1875,0.0,0.0,0.0,712
502,1695809523910,0.29003906,-0.017578125,-0.9785156,-0.09375,-0.3125,-0.0625,0.0,0.0,0.0,713
503,1695809523950,0.296875,-0.015625,-0.9863281,0.1875,-0.125,-0.0625,0.0,0.0,0.0,714
504,1695809523990,0.29003906,-0.018554688,-0.98046875,-0.21875,-0.375,0.0,0.0,0.0,0.0,715
505,1695809524030,0.28808594,-0.017578125,-0.97558594,-0.15625,-0.46875,-0.0625,0.0,0.0,0.0,716
506,1695809524070,0.2841797,-0.01953125,-0.9794922,-0.09375,-0.125,0.125,0.0,0.0,0.0,717
507,1695809524110,0.2841797,-0.009765625,-0.9794922,-0.0625,0.0,-0.125,0.0,0.0,0.0,718
508,1695809524150,0.2998047,-0.015625,-0.99121094,-0.09375,-0.1875,-0.3125,0.0,0.0,0.0,719
509,1695809524190,0.27539062,-0.021484375,-0.98828125,-0.09375,-0.1875,-0.25,-18.0,-13.3125,-163.375,720
510,1695809524230,0.2841797,-0.018554688,-0.9873047,-0.09375,-0.25,-0.1875,0.0,0.0,0.0,721
511,1695809524270,0.29492188,-0.0234375,-0.97753906,-0.21875,0.0,0.125,0.0,0.0,0.0,722
512,1695809524310,0.2890625,-0.0048828125,-0.9765625,-0.0625,0.125,0.0,0.0,0.0,0.0,723
513,1695809524350,0.29492188,-0.015625,-0.9824219,-0.28125,-0.125,-0.125,0.0,0.0,0.0,724
514,1695809524390,0.29882812,-0.015625,-0.9873047,0.3125,0.125,0.0,0.0,0.0,0.0,725
515,1695809524430,0.30078125,-0.016601562,-0.97265625,0.0625,0.0,-0.125,0.0,0.0,0.0,726
516,1695809524470,0.2890625,-0.018554688,-0.9902344,-0.09375,-0.125,-0.1875,0.0,0.0,0.0,727
517,1695809524510,0.29003906,-0.024414062,-0.98339844,0.0625,0.0625,0.0625,0.0,0.0,0.0,728
518,1695809524550,0.29101562,-0.0126953125,-0.9902344,-0.0625,0.0,-0.0625,0.0,0.0,0.0,729
519,1695809524590,0.27929688,-0.021484375,-0.98535156,-0.21875,0.125,0.25,0.0,0.0,0.0,730
520,1695809524630,0.28027344,-0.01953125,-0.9785156,-0.0625,-0.0625,0.125,0.0,0.0,0.0,731
521,1695809524670,0.2939453,-0.013671875,-0.99609375,-0.0625,0.0,-0.0625,0.0,0.0,0.0,732
522,1695809524710,0.28808594,-0.017578125,-0.9873047,-0.0625,0.25,-0.1875,-18.75,-13.3125,-163.375,733
523,1695809524750,0.2998047,-0.016601562,-0.98535156,-0.15625,-0.0625,-0.0625,0.0,0.0,0.0,734
524,1695809524790,0.30078125,-0.016601562,-0.9902344,0.125,-0.46875,0.0,0.0,0.0,0.0,735
525,1695809524830,0.28027344,-0.01953125,-0.99121094,-0.46875,-0.1875,-0.125,0.0,0.0,0.0,736
526,1695809524870,0.30273438,-0.015625,-1.0039062,-0.09375,-0.125,-0.0625,0.0,0.0,0.0,737
527,1695809524910,0.29101562,-0.022460938,-0.9785156,-0.09375,-0.375,-0.125,0.0,0.0,0.0,738
528,1695809524950,0.29296875,-0.0087890625,-0.99121094,-0.28125,-0.375,-0.1875,0.0,0.0,0.0,739
529,1695809524990,0.28808594,-0.013671875,-0.9736328,0.0625,-0.1875,-0.0625,0.0,0.0,0.0,740
530,1695809525030,0.29003906,-0.016601562,-0.9824219,-0.28125,-0.3125,-0.1875,0.0,0.0,0.0,741
531,1695809525070,0.2841797,-0.020507812,-0.9765625,-0.09375,-0.25,-0.25,0.0,0.0,0.0,742
532,1695809525110,0.28710938,-0.020507812,-0.98339844,-0.09375,-0.1875,0.0625,0.0,0.0,0.0,743
533,1695809525150,0.2861328,-0.013671875,-0.9921875,-0.21875,-0.125,-0.0625,0.0,0.0,0.0,744
534,1695809525190,0.29785156,-0.022460938,-0.98535156,0.0625,-0.0625,-0.1875,-19.8125,-14.375,-163.6875,745
535,1695809525230,0.29882812,-0.0146484375,-0.9736328,-0.09375,-0.125,-0.25,0.0,0.0,0.0,746
536,1695809525270,0.29003906,-0.01953125,-0.98828125,-0.21875,0.0,-0.0625,0.0,0.0,0.0,747
537,1695809525310,0.296875,-0.0087890625,-0.9814453,-0.0625,-0.125,0.0,0.0,0.0,0.0,748
538,1695809525350,0.29785156,-0.0146484375,-0.99316406,-0.0625,-0.0625,-0.0625,0.0,0.0,0.0,749
539,1695809525390,0.29589844,-0.022460938,-0.98828125,0.0,-0.25,-0.1875,0.0,0.0,0.0,750
540,1695809525430,0.2861328,-0.015625,-0.9824219,-0.09375,0.1875,-0.0625,0.0,0.0,0.0,751
541,1695809525470,0.29101562,-0.017578125,-0.9951172,-0.0625,0.1875,0.0,0.0,0.0,0.0,752
542,1695809525510,0.29101562,-0.0146484375,-0.98339844,-0.09375,0.0625,0.0625,0.0,0.0,0.0,753
543,1695809525550,0.29101562,-0.01953125,-0.9863281,-0.15625,-0.125,-0.125,0.0,0.0,0.0,754
544,1695809525590,0.28808594,-0.013671875,-0.98535156,-0.09375,-0.1875,0.0,0.0,0.0,0.0,755
545,1695809525630,0.28808594,-0.021484375,-0.97753906,-0.15625,-0.1875,-0.0625,0.0,0.0,0.0,756
546,1695809525670,0.29101562,-0.016601562,-0.97753906,-0.09375,-0.59375,-0.25,0.0,0.0,0.0,757
547,1695809525710,0.2939453,-0.017578125,-0.984375,-0.21875,-0.125,-0.125,-18.4375,-14.375,-165.0625,758
548,1695809525750,0.29101562,-0.025390625,-0.97753906,-0.0625,-0.0625,-0.3125,0.0,0.0,0.0,759
549,1695809525790,0.2890625,-0.0126953125,-0.97558594,-0.09375,-0.25,-0.25,0.0,0.0,0.0,760
550,1695809525830,0.2939453,-0.026367188,-0.98535156,-0.34375,-0.25,-0.125,0.0,0.0,0.0,761
551,1695809525870,0.29003906,-0.0146484375,-0.99316406,-0.28125,-0.3125,-0.25,0.0,0.0,0.0,762
552,1695809525910,0.2890625,-0.009765625,-0.9921875,-0.09375,0.125,-0.1875,0.0,0.0,0.0,763
553,1695809525950,0.29785156,-0.018554688,-0.98339844,-0.09375,-0.25,-0.3125,0.0,0.0,0.0,764
554,1695809525990,0.2939453,-0.020507812,-0.98828125,-0.34375,-0.25,-0.1875,0.0,0.0,0.0,765
555,1695809526030,0.29003906,-0.0068359375,-0.9765625,0.125,-0.0625,-0.0625,0.0,0.0,0.0,766
556,1695809526070,0.28808594,-0.016601562,-0.9824219,-0.15625,-0.0625,-0.1875,0.0,0.0,0.0,767
557,1695809526110,0.29492188,-0.018554688,-0.98046875,-0.34375,-0.25,-0.125,0.0,0.0,0.0,768
558,1695809526150,0.28125,-0.016601562,-0.9824219,-0.0625,0.0,-0.1875,0.0,0.0,0.0,769
559,1695809526190,0.2939453,-0.013671875,-0.98339844,-0.15625,-0.125,-0.25,-17.5625,-15.25,-163.5625,770
560,1695809526230,0.28808594,-0.01953125,-0.9824219,0.0625,0.0625,-0.25,0.0,0.0,0.0,771
561,1695809526270,0.28222656,-0.0078125,-0.9892578,-0.40625,0.0,-0.125,0.0,0.0,0.0,772
562,1695809526310,0.2841797,-0.017578125,-0.9716797,0.125,0.125,-0.1875,0.0,0.0,0.0,773
563,1695809526350,0.2890625,-0.017578125,-0.9863281,-0.15625,0.125,0.0,0.0,0.0,0.0,774
564,1695809526390,0.29003906,-0.017578125,-0.97753906,0.25,0.0,-0.1875,0.0,0.0,0.0,775
565,1695809526430,0.28710938,-0.0234375,-0.984375,-0.09375,0.0,0.0625,0.0,0.0,0.0,776
566,1695809526470,0.29296875,-0.015625,-0.9814453,-0.15625,0.0625,-0.1875,0.0,0.0,0.0,777
567,1695809526510,0.29785156,-0.0146484375,-0.9892578,0.0625,0.25,0.0,0.0,0.0,0.0,778
568,1695809526550,0.2861328,-0.021484375,-0.9814453,-0.34375,-0.3125,-0.125,0.0,0.0,0.0,779
569,1695809526590,0.2939453,-0.024414062,-0.9765625,-0.09375,-0.1875,-0.0625,0.0,0.0,0.0,780
570,1695809526630,0.29296875,-0.017578125,-0.984375,-0.21875,-0.3125,0.0625,0.0,0.0,0.0,781
571,1695809526670,0.29101562,-0.015625,-0.9794922,-0.09375,-0.4375,-0.1875,0.0,0.0,0.0,782
572,1695809526710,0.29882812,-0.0146484375,-0.98339844,-0.34375,-0.125,-0.125,-17.6875,-12.875,-164.4375,783
573,1695809526750,0.29589844,-0.016601562,-0.9814453,-0.28125,-0.375,-0.375,0.0,0.0,0.0,784
574,1695809526790,0.29882812,-0.020507812,-0.9794922,-0.0625,0.0,-0.0625,0.0,0.0,0.0,785
575,1695809526830,0.29882812,-0.024414062,-0.9785156,-0.46875,-0.1875,-0.25,0.0,0.0,0.0,786
576,1695809526870,0.28222656,-0.015625,-0.98339844,0.0625,-0.3125,-0.1875,0.0,0.0,0.0,787
577,1695809526910,0.28808594,-0.0234375,-0.9736328,-0.46875,-0.125,-0.125,0.0,0.0,0.0,788
578,1695809526950,0.28710938,-0.016601562,-0.99316406,-0.53125,-0.3125,-0.1875,0.0,0.0,0.0,789
579,1695809526990,0.2919922,-0.015625,-0.9794922,0.125,0.0625,-0.1875,0.0,0.0,0.0,790
580,1695809527030,0.28808594,-0.015625,-0.9746094,-0.34375,-0.125,-0.125,0.0,0.0,0.0,791
581,1695809527070,0.28222656,-0.016601562,-0.98339844,0.0,0.0,-0.375,0.0,0.0,0.0,792
582,1695809527110,0.29589844,-0.016601562,-0.9716797,0.0625,0.125,-0.0625,0.0,0.0,0.0,793
583,1695809527150,0.29492188,-0.013671875,-0.9902344,-0.28125,-0.4375,-0.1875,0.0,0.0,0.0,794
584,1695809527190,0.28808594,-0.028320312,-0.9873047,-0.0625,0.0625,0.0625,-17.375,-13.3125,-165.0625,795
585,1695809527230,0.29101562,-0.01171875,-0.98339844,-0.59375,0.0625,-0.0625,0.0,0.0,0.0,796
586,1695809527270,0.29785156,-0.0107421875,-0.9765625,0.125,0.0625,-0.0625,0.0,0.0,0.0,797
587,1695809527310,0.29296875,-0.020507812,-0.99121094,-0.53125,-0.125,0.0625,0.0,0.0,0.0,798
588,1695809527350,0.29785156,-0.016601562,-0.98046875,-0.09375,-0.25,-0.4375,0.0,0.0,0.0,799
589,1695809527390,0.2939453,-0.015625,-0.9736328,-0.09375,-0.125,-0.1875,0.0,0.0,0.0,800
590,1695809527430,0.29101562,-0.018554688,-0.9824219,-0.40625,-0.53125,-0.125,0.0,0.0,0.0,801
591,1695809527470,0.29589844,-0.016601562,-0.97753906,0.25,-0.25,-0.0625,0.0,0.0,0.0,802
592,1695809527510,0.29589844,-0.0126953125,-0.9873047,-0.40625,-0.25,0.125,0.0,0.0,0.0,803
593,1695809527550,0.29003906,-0.01953125,-0.99316406,0.0,-0.25,-0.3125,0.0,0.0,0.0,804
594,1695809527590,0.2861328,-0.018554688,-0.9814453,-0.21875,0.0,-0.3125,0.0,0.0,0.0,805
595,1695809527630,0.29492188,-0.0146484375,-0.98339844,0.25,-0.1875,-0.375,0.0,0.0,0.0,806
596,1695809527670,0.28710938,-0.0087890625,-0.9785156,0.1875,0.0625,-0.1875,0.0,0.0,0.0,807
597,1695809527710,0.29296875,-0.0107421875,-0.9921875,-0.53125,-0.3125,-0.25,-18.0,-14.375,-163.375,808
598,1695809527750,0.2998047,-0.0146484375,-0.9716797,0.0,-0.1875,-0.25,0.0,0.0,0.0,809
599,1695809527790,0.29492188,-0.009765625,-0.97265625,-0.40625,-0.1875,-0.125,0.0,0.0,0.0,810
600,1695809527830,0.29296875,-0.01171875,-0.9814453,-0.09375,-0.25,-0.25,0.0,0.0,0.0,811
601,1695809527870,0.2861328,-0.021484375,-0.9863281,0.0625,0.1875,-0.1875,0.0,0.0,0.0,812
602,1695809527910,0.29492188,-0.009765625,-0.9873047,-0.15625,-0.1875,-0.25,0.0,0.0,0.0,813
603,1695809527950,0.29101562,-0.022460938,-0.9863281,0.125,0.3125,-0.125,0.0,0.0,0.0,814
604,1695809527990,0.2841797,0.0,-0.9765625,-0.15625,0.25,0.1875,0.0,0.0,0.0,815
605,1695809528030,0.29785156,-0.0126953125,-0.9824219,-0.09375,-0.1875,0.125,0.0,0.0,0.0,816
606,1695809528070,0.2861328,-0.009765625,-0.97558594,-0.15625,-0.1875,0.125,0.0,0.0,0.0,817
607,1695809528110,0.2841797,-0.0234375,-0.9921875,0.0,-0.4375,0.0625,0.0,0.0,0.0,818
608,1695809528150,0.29003906,-0.018554688,-0.98046875,0.0,-0.375,0.0625,0.0,0.0,0.0,819
609,1695809528190,0.296875,-0.017578125,-0.98046875,-0.09375,-0.46875,-0.125,-18.3125,-14.5,-163.875,820
610,1695809528230,0.2841797,-0.021484375,-0.9716797,-0.0625,-0.4375,0.125,0.0,0.0,0.0,821
611,1695809528270,0.2919922,-0.0146484375,-0.9941406,-0.28125,-0.1875,0.0625,0.0,0.0,0.0,822
612,1695809528310,0.2919922,-0.015625,-0.9814453,0.0625,-0.25,-0.125,0.0,0.0,0.0,823
613,1695809528350,0.2763672,-0.0126953125,-0.9863281,-0.34375,-0.3125,-0.125,0.0,0.0,0.0,824
614,1695809528390,0.2919922,-0.016601562,-0.9892578,0.0,-0.25,-0.0625,0.0,0.0,0.0,825
615,1695809528430,0.28808594,-0.020507812,-0.98828125,-0.0625,-0.09375,0.1875,0.0,0.0,0.0,826
616,1695809528470,0.28320312,-0.024414062,-0.9794922,0.0,-0.28125,0.125,0.0,0.0,0.0,827
617,1695809528510,0.29492188,-0.0048828125,-0.9736328,0.125,0.28125,-0.0625,0.0,0.0,0.0,828
618,1695809528550,0.29492188,-0.0078125,-0.9785156,0.25,0.21875,-0.0625,0.0,0.0,0.0,829
619,1695809528590,0.29589844,-0.01953125,-0.98046875,0.0625,0.03125,-0.125,0.0,0.0,0.0,830
620,1695809528630,0.3017578,-0.021484375,-0.9794922,0.0625,0.28125,0.0625,0.0,0.0,0.0,831
621,1695809528670,0.2998047,-0.0146484375,-0.9765625,0.5,0.40625,0.3125,0.0,0.0,0.0,832
622,1695809528710,0.29003906,-0.013671875,-0.9873047,0.0,-0.03125,0.0625,-17.6875,-14.375,-164.0,833
623,1695809528750,0.29882812,-0.020507812,-0.98828125,0.3125,-0.03125,0.0625,0.0,0.0,0.0,834
624,1695809528790,0.29101562,-0.0068359375,-0.98339844,0.0625,0.09375,0.25,0.0,0.0,0.0,835
625,1695809528830,0.29882812,-0.0146484375,-0.98339844,0.0625,-0.15625,0.125,0.0,0.0,0.0,836
626,1695809528870,0.2841797,-0.022460938,-0.9785156,0.125,-0.15625,0.0625,0.0,0.0,0.0,837
627,1695809528910,0.2919922,-0.016601562,-0.9824219,-0.125,-0.09375,-0.125,0.0,0.0,0.0,838
628,1695809528950,0.29296875,-0.017578125,-0.97265625,0.1875,-0.09375,0.0625,0.0,0.0,0.0,839
629,1695809528990,0.29492188,-0.015625,-0.9814453,-0.0625,-0.03125,0.0625,0.0,0.0,0.0,840
630,1695809529030,0.296875,-0.015625,-0.9746094,0.0625,0.03125,-0.1875,0.0,0.0,0.0,841
631,1695809529070,0.2861328,-0.01953125,-0.98339844,0.0,-0.15625,-0.125,0.0,0.0,0.0,842
632,1695809529110,0.29101562,-0.025390625,-0.984375,0.0625,-0.03125,-0.0625,0.0,0.0,0.0,843
633,1695809529150,0.29492188,-0.022460938,-0.9863281,0.0,-0.28125,0.0,0.0,0.0,0.0,844
634,1695809529190,0.2998047,-0.013671875,-0.9921875,0.0625,-0.15625,0.0625,-17.875,-13.75,-163.875,845
635,1695809529230,0.28222656,-0.025390625,-0.984375,0.0,-0.15625,0.0,0.0,0.0,0.0,846
636,1695809529270,0.2939453,-0.0146484375,-0.9814453,-0.125,-0.15625,0.0,0.0,0.0,0.0,847
637,1695809529310,0.2841797,-0.015625,-0.98828125,0.1875,0.21875,0.0,0.0,0.0,0.0,848
638,1695809529350,0.2841797,-0.0126953125,-0.97753906,-0.0625,0.03125,0.0,0.0,0.0,0.0,849
639,1695809529390,0.2998047,-0.0146484375,-0.9902344,0.0625,0.03125,0.0,0.0,0.0,0.0,850
640,1695809529430,0.2998047,-0.0146484375,-0.98046875,0.375,0.34375,0.0,0.0,0.0,0.0,851
641,1695809529470,0.29101562,-0.0234375,-0.98535156,0.0,0.28125,0.3125,0.0,0.0,0.0,852
642,1695809529510,0.2890625,-0.016601562,-0.97753906,0.25,0.03125,0.1875,0.0,0.0,0.0,853
643,1695809529550,0.2919922,-0.015625,-0.9824219,0.0625,0.34375,0.0625,0.0,0.0,0.0,854
644,1695809529590,0.29589844,-0.01953125,-0.99121094,0.1875,-0.09375,0.0,0.0,0.0,0.0,855
645,1695809529630,0.29296875,-0.015625,-0.9873047,0.0625,-0.09375,0.125,0.0,0.0,0.0,856
646,1695809529670,0.29003906,-0.013671875,-0.97558594,0.0625,-0.09375,0.125,0.0,0.0,0.0,857
647,1695809529710,0.2998047,-0.021484375,-0.9736328,0.0,-0.15625,-0.0625,-18.75,-15.4375,-164.4375,858
648,1695809529750,0.2861328,-0.0234375,-0.9765625,-0.125,-0.03125,-0.0625,0.0,0.0,0.0,859
649,1695809529790,0.28710938,-0.017578125,-0.98828125,-0.125,-0.15625,-0.125,0.0,0.0,0.0,860
650,1695809529830,0.2998047,-0.022460938,-0.97753906,0.0625,-0.21875,-0.34375,0.0,0.0,0.0,861
651,1695809529870,0.29003906,-0.025390625,-1.0,-0.1875,0.21875,0.0,0.0,0.0,0.0,862
652,1695809529910,0.28710938,-0.018554688,-0.9785156,0.1875,-0.09375,0.125,0.0,0.0,0.0,863
653,1695809529950,0.29589844,-0.025390625,-0.96972656,-0.3125,-0.03125,0.1875,0.0,0.0,0.0,864
654,1695809529990,0.2939453,-0.01953125,-0.9941406,-0.3125,-0.03125,0.0,0.0,0.0,0.0,865
655,1695809530030,0.29296875,-0.01953125,-0.9824219,0.1875,-0.21875,0.0625,0.0,0.0,0.0,866
656,1695809530070,0.28808594,-0.013671875,-0.98828125,-0.25,0.28125,-0.0625,0.0,0.0,0.0,867
657,1695809530110,0.29003906,-0.0126953125,-0.98046875,0.375,-0.15625,-0.21875,0.0,0.0,0.0,868
658,1695809530150,0.28515625,-0.0146484375,-0.9824219,0.0625,0.09375,0.0,0.0,0.0,0.0,869
659,1695809530190,0.296875,-0.017578125,-0.9873047,0.1875,0.40625,-0.0625,-19.8125,-14.375,-165.5,870
660,1695809530230,0.28710938,-0.025390625,-0.9716797,0.1875,0.09375,-0.1875,0.0,0.0,0.0,871
661,1695809530270,0.2861328,-0.015625,-0.9980469,-0.25,0.15625,-0.1875,0.0,0.0,0.0,872
662,1695809530310,0.29785156,-0.0078125,-0.9794922,0.0,-0.21875,0.0,0.0,0.0,0.0,873
663,1695809530350,0.2861328,-0.024414062,-0.9785156,0.125,0.28125,0.125,0.0,0.0,0.0,874
664,1695809530390,0.28515625,-0.0126953125,-0.98339844,0.125,-0.03125,-0.125,0.0,0.0,0.0,875
665,1695809530430,0.2861328,-0.018554688,-0.98535156,0.25,0.09375,-0.21875,0.0,0.0,0.0,876
666,1695809530470,0.29492188,-0.018554688,-0.9892578,0.4375,0.15625,0.0,0.0,0.0,0.0,877
667,1695809530510,0.29003906,-0.01953125,-0.9902344,0.125,0.15625,0.0625,0.0,0.0,0.0,878
668,1695809530550,0.29003906,-0.018554688,-0.9892578,0.0,0.09375,-0.125,0.0,0.0,0.0,879
669,1695809530590,0.2919922,-0.0078125,-0.9863281,0.0625,0.03125,-0.21875,0.0,0.0,0.0,880
670,1695809530630,0.29101562,-0.015625,-0.9814453,0.0625,0.28125,-0.125,0.0,0.0,0.0,881
671,1695809530670,0.2939453,-0.018554688,-0.98339844,0.0,-0.28125,-0.125,0.0,0.0,0.0,882
672,1695809530710,0.28710938,-0.025390625,-0.99121094,0.0625,0.21875,0.0,-19.5,-12.5625,-164.4375,883
673,1695809530750,0.28320312,-0.0107421875,-0.984375,-0.125,-0.28125,-0.1875,0.0,0.0,0.0,884
674,1695809530790,0.29296875,-0.01953125,-0.9746094,0.1875,0.03125,-0.125,0.0,0.0,0.0,885
675,1695809530830,0.2861328,-0.0234375,-0.98535156,0.0625,0.21875,-0.1875,0.0,0.0,0.0,886
676,1695809530870,0.296875,-0.016601562,-0.9785156,0.1875,0.15625,-0.40625,0.0,0.0,0.0,887
677,1695809530910,0.29101562,-0.015625,-0.9892578,0.0625,0.15625,-0.21875,0.0,0.0,0.0,888
678,1695809530950,0.2890625,-0.015625,-0.98046875,-0.125,-0.21875,-0.125,0.0,0.0,0.0,889
679,1695809530990,0.28320312,-0.013671875,-0.9794922,-0.125,-0.15625,-0.28125,0.0,0.0,0.0,890
680,1695809531030,0.28808594,-0.016601562,-0.9746094,-0.125,-0.09375,-0.28125,0.0,0.0,0.0,891
681,1695809531070,0.28515625,-0.020507812,-0.99316406,0.0,0.15625,-0.03125,0.0,0.0,0.0,892
682,1695809531110,0.29296875,-0.013671875,-0.97558594,-0.125,0.09375,-0.15625,0.0,0.0,0.0,893
683,1695809531150,0.29492188,-0.020507812,-0.9814453,-0.3125,-0.09375,-0.28125,0.0,0.0,0.0,894
684,1695809531190,0.296875,-0.017578125,-0.9814453,-0.34375,0.21875,0.15625,-18.4375,-13.3125,-164.4375,895
685,1695809531230,0.29101562,-0.022460938,-0.9765625,0.25,-0.21875,0.21875,0.0,0.0,0.0,896
686,1695809531270,0.28808594,-0.01953125,-0.9746094,0.0,0.21875,0.34375,0.0,0.0,0.0,897
687,1695809531310,0.29492188,-0.0146484375,-0.9746094,0.5,0.46875,-0.09375,0.0,0.0,0.0,898
688,1695809531350,0.2890625,-0.013671875,-0.9824219,0.625,0.34375,-0.28125,0.0,0.0,0.0,899
689,1695809531390,0.29003906,-0.0126953125,-0.98339844,0.0,0.28125,-0.15625,0.0,0.0,0.0,900
690,1695809531430,0.29882812,-0.018554688,-0.9765625,0.375,0.21875,-0.21875,0.0,0.0,0.0,901
691,1695809531470,0.28808594,-0.01953125,-0.96875,-0.1875,-0.21875,0.34375,0.0,0.0,0.0,902
692,1695809531510,0.29296875,-0.01171875,-0.9941406,-0.71875,0.03125,0.65625,0.0,0.0,0.0,903
693,1695809531550,0.29492188,-0.01953125,-0.96777344,-0.1875,-0.28125,0.65625,0.0,0.0,0.0,904
694,1695809531590,0.29101562,-0.018554688,-0.9814453,-0.53125,-0.9375,0.15625,0.0,0.0,0.0,905
695,1695809531630,0.2783203,-0.018554688,-0.984375,0.25,-0.4375,-0.21875,0.0,0.0,0.0,906
696,1695809531670,0.28222656,-0.026367188,-0.97753906,0.1875,-0.03125,-0.15625,0.0,0.0,0.0,907
697,1695809531710,0.296875,-0.018554688,-0.9824219,0.0,0.15625,0.03125,-17.5625,-13.75,-163.875,908
698,1695809531750,0.29003906,-0.029296875,-0.9785156,-0.46875,-0.09375,0.21875,0.0,0.0,0.0,909
699,1695809531790,0.30566406,-0.022460938,-0.9873047,-0.34375,-0.5,0.28125,0.0,0.0,0.0,910
700,1695809531830,0.2890625,-0.015625,-0.98535156,-0.1875,-0.34375,0.28125,0.0,0.0,0.0,911
