,timestamp,accel_x,accel_y,accel_z,gyro_x,gyro_y,gyro_z,mag_x,mag_y,mag_z,ind
0,1695809846217,0.24316406,1.0693359,-0.19726562,35.59375,-19.1875,2.53125,4.375,31.5625,-137.3125,0
1,1695809846257,0.18945312,1.0332031,-0.087890625,36.875,-13.5625,2.34375,0.0,0.0,0.0,1
2,1695809846297,0.29003906,0.90234375,-0.234375,38.4375,-8.5,2.59375,0.0,0.0,0.0,2
3,1695809846337,0.3408203,0.7783203,-0.20507812,29.46875,5.15625,5.15625,0.0,0.0,0.0,3
4,1695809846377,0.20898438,0.66796875,-0.26757812,21.71875,2.34375,12.84375,0.0,0.0,0.0,4
5,1695809846417,0.41992188,0.54003906,-0.32421875,-1.84375,-19.75,12.5625,0.0,0.0,0.0,5
6,1695809846457,0.5673828,0.38378906,-0.3466797,-13.625,-46.96875,20.78125,0.0,0.0,0.0,6
7,1695809846497,0.23925781,0.796875,-0.36914062,3.71875,-63.375,51.25,0.0,0.0,0.0,7
8,1695809846537,0.33984375,2.0136719,0.08300781,-4.8125,-91.75,44.78125,0.0,0.0,0.0,8
9,1695809846577,0.005859375,0.8564453,-0.09375,10.375,-3.0,-3.6875,0.0,0.0,0.0,9
10,1695809846617,0.14453125,0.7792969,-0.115234375,-29.40625,16.9375,-3.0,0.0,0.0,0.0,10
11,1695809846657,0.40527344,0.9746094,-0.19140625,-41.03125,18.96875,3.03125,0.0,0.0,0.0,11
12,1695809846697,0.44726562,0.94140625,-0.17871094,-45.96875,29.875,-19.3125,0.0,0.0,0.0,12
13,1695809846737,0.375,0.9160156,-0.005859375,-14.09375,5.21875,-32.125,4.5,28.5625,-141.1875,13
14,1695809846777,0.15332031,0.8066406,-0.049804688,5.625,21.15625,-9.40625,0.0,0.0,0.0,14
15,1695809846817,0.38183594,1.0039062,-0.1875,6.34375,54.34375,-0.3125,0.0,0.0,0.0,15
16,1695809846857,0.43554688,0.98046875,-0.14355469,17.03125,48.875,1.375,0.0,0.0,0.0,16
17,1695809846897,0.4658203,0.88183594,-0.19238281,10.8125,35.1875,-0.4375,0.0,0.0,0.0,17
18,1695809846937,0.3984375,0.921875,-0.13085938,5.8125,22.75,3.8125,0.0,0.0,0.0,18
19,1695809846977,0.36328125,0.9326172,-0.125,-8.90625,12.78125,3.59375,0.0,0.0,0.0,19
20,1695809847017,0.42578125,0.9189453,-0.1171875,-9.78125,16.59375,2.78125,0.0,0.0,0.0,20
21,1695809847057,0.3095703,0.89941406,-0.08203125,-10.75,8.21875,1.6875,0.0,0.0,0.0,21
22,1695809847097,0.30566406,1.0644531,-0.08984375,-10.5625,12.125,-0.5625,0.0,0.0,0.0,22
23,1695809847137,0.37890625,0.94628906,-0.06542969,-18.25,27.875,-5.5625,0.0,0.0,0.0,23
24,1695809847177,0.32910156,0.8701172,-0.09765625,-18.8125,41.0625,-3.375,0.0,0.0,0.0,24
25,1695809847217,0.49121094,0.82910156,-0.13671875,-15.125,33.96875,-15.15625,6.0,29.5625,-133.6875,25
26,1695809847257,0.27148438,0.7392578,-0.2919922,14.28125,41.96875,-14.0625,0.0,0.0,0.0,26
27,1695809847297,0.2861328,0.69628906,-0.09667969,52.375,60.28125,-10.09375,0.0,0.0,0.0,27
28,1695809847337,0.5419922,1.0546875,-0.078125,12.5625,43.8125,18.21875,0.0,0.0,0.0,28
29,1695809847377,0.4609375,1.0976562,-0.09667969,-19.34375,12.1875,-1.0625,0.0,0.0,0.0,29
30,1695809847417,0.4326172,1.1298828,-0.21777344,-36.9375,-2.34375,-10.75,0.0,0.0,0.0,30
31,1695809847457,0.26953125,0.86816406,-0.125,-42.90625,-47.5,-18.75,0.0,0.0,0.0,31
32,1695809847497,0.020507812,1.0732422,-0.00390625,-33.9375,-23.875,-14.0625,0.0,0.0,0.0,32
33,1695809847537,0.115234375,0.9951172,-0.024414062,-20.5,-15.71875,-6.90625,0.0,0.0,0.0,33
34,1695809847577,0.2890625,0.86816406,-0.055664062,12.28125,-12.21875,-4.90625,0.0,0.0,0.0,34
35,1695809847617,0.140625,1.0986328,-0.046875,34.25,-18.21875,4.6875,0.0,0.0,0.0,35
36,1695809847657,0.32128906,1.0751953,-0.08300781,56.40625,-21.09375,4.0,0.0,0.0,0.0,36
37,1695809847697,0.31640625,1.0898438,-0.041015625,52.96875,-19.3125,-1.5625,0.0,0.0,0.0,37
38,1695809847737,0.25683594,1.0957031,-0.203125,54.03125,-21.5,0.71875,3.625,30.5,-135.9375,38
39,1695809847777,0.23632812,0.80859375,-0.24023438,57.1875,13.59375,4.1875,0.0,0.0,0.0,39
40,1695809847817,0.27734375,0.5751953,-0.2939453,33.4375,24.8125,3.75,0.0,0.0,0.0,40
41,1695809847857,0.35351562,0.39453125,-0.3408203,19.09375,10.71875,10.21875,0.0,0.0,0.0,41
42,1695809847897,0.3984375,0.36914062,-0.359375,13.78125,-1.1875,30.6875,0.0,0.0,0.0,42
43,1695809847937,0.4111328,1.1259766,-0.26367188,15.625,-23.21875,59.65625,0.0,0.0,0.0,43
44,1695809847977,0.35058594,1.3271484,-0.42285156,-8.84375,-92.84375,-3.9375,0.0,0.0,0.0,44
45,1695809848017,0.45117188,1.0322266,-0.091796875,-14.15625,-22.65625,5.53125,0.0,0.0,0.0,45
46,1695809848057,0.31054688,1.0136719,-0.18164062,-49.75,-41.21875,-7.78125,0.0,0.0,0.0,46
47,1695809848097,0.49609375,0.8984375,-0.19628906,-31.0625,-29.9375,-0.03125,0.0,0.0,0.0,47
48,1695809848137,0.3935547,0.85839844,0.07421875,-23.8125,-2.90625,5.34375,0.0,0.0,0.0,48
49,1695809848177,0.2939453,0.9355469,-0.12695312,-26.5625,-9.59375,11.875,0.0,0.0,0.0,49
50,1695809848217,0.39941406,0.8955078,-0.015625,-21.90625,8.53125,4.1875,5.5625,29.3125,-139.875,50
51,1695809848257,0.3154297,0.9667969,-0.0703125,-14.71875,-2.53125,8.78125,0.0,0.0,0.0,51
52,1695809848297,0.36035156,1.0019531,-0.015625,0.5625,-5.46875,7.0625,0.0,0.0,0.0,52
53,1695809848337,0.27929688,0.9951172,-0.15917969,-4.5625,3.34375,3.09375,0.0,0.0,0.0,53
54,1695809848377,0.41308594,0.93652344,-0.109375,-9.8125,17.125,0.78125,0.0,0.0,0.0,54
55,1695809848417,0.3798828,0.8730469,-0.09277344,-17.09375,14.3125,-4.34375,0.0,0.0,0.0,55
56,1695809848457,0.3203125,0.9238281,-0.20898438,-16.34375,23.0,-8.125,0.0,0.0,0.0,56
57,1695809848497,0.39453125,0.87597656,-0.20214844,-2.875,34.59375,-7.65625,0.0,0.0,0.0,57
58,1695809848537,0.38671875,0.81640625,-0.22363281,3.71875,35.75,-9.59375,0.0,0.0,0.0,58
59,1695809848577,0.39257812,0.88183594,-0.2265625,15.6875,34.21875,-13.5,0.0,0.0,0.0,59
60,1695809848617,0.3671875,0.9765625,-0.034179688,15.8125,43.4375,-4.53125,0.0,0.0,0.0,60
61,1695809848657,0.5205078,0.8222656,-0.064453125,1.46875,51.125,-7.59375,0.0,0.0,0.0,61
62,1695809848697,0.27246094,0.99121094,-0.17871094,-14.59375,12.375,-9.46875,0.0,0.0,0.0,62
63,1695809848737,0.3828125,0.98828125,-0.099609375,-2.375,26.65625,-12.84375,5.875,30.9375,-133.125,63
64,1695809848777,0.36816406,0.90722656,-0.08984375,-11.46875,34.8125,-16.1875,0.0,0.0,0.0,64
65,1695809848817,0.26953125,1.0322266,-0.13964844,-8.84375,14.0625,-16.5,0.0,0.0,0.0,65
66,1695809848857,0.30371094,1.0273438,-0.095703125,4.8125,-6.1875,-12.09375,0.0,0.0,0.0,66
67,1695809848897,0.30566406,0.9658203,-0.13867188,13.0,2.65625,-7.90625,0.0,0.0,0.0,67
68,1695809848937,0.17773438,1.1162109,-0.08984375,8.4375,-30.84375,0.15625,0.0,0.0,0.0,68
69,1695809848977,0.40527344,1.1796875,-0.1953125,33.375,-30.1875,5.96875,0.0,0.0,0.0,69
70,1695809849017,0.17285156,1.0644531,-0.19042969,53.09375,-32.4375,5.59375,0.0,0.0,0.0,70
71,1695809849057,0.2421875,0.7939453,-0.31152344,67.875,8.40625,7.3125,0.0,0.0,0.0,71
72,1695809849097,0.40820312,0.5253906,-0.2998047,37.90625,14.8125,24.09375,0.0,0.0,0.0,72
73,1695809849137,0.45996094,0.44433594,-0.22753906,0.1875,-32.3125,16.75,0.0,0.0,0.0,73
74,1695809849177,0.5703125,0.4501953,-0.34960938,-19.46875,-65.8125,18.15625,0.0,0.0,0.0,74
75,1695809849217,0.42382812,1.0488281,-0.3203125,-16.1875,-71.75,52.65625,7.1875,29.75,-139.375,75
76,1695809849257,0.21484375,1.484375,-0.0146484375,-53.46875,-55.6875,10.0625,0.0,0.0,0.0,76
77,1695809849297,0.45214844,1.0927734,-0.23632812,-33.03125,-79.375,-25.34375,0.0,0.0,0.0,77
78,1695809849337,0.21875,0.82128906,-0.0859375,-31.25,-56.34375,0.34375,0.0,0.0,0.0,78
79,1695809849377,0.29785156,0.94433594,0.013671875,-37.0,-18.5625,5.65625,0.0,0.0,0.0,79
80,1695809849417,0.2265625,1.0214844,-0.09667969,-33.3125,-10.65625,4.3125,0.0,0.0,0.0,80
81,1695809849457,0.29003906,0.9716797,-0.16015625,-21.59375,-17.84375,-4.46875,0.0,0.0,0.0,81
82,1695809849497,0.34179688,0.8652344,-0.08496094,-9.40625,18.15625,2.34375,0.0,0.0,0.0,82
83,1695809849537,0.30566406,0.9355469,-0.14648438,-2.5,11.4375,5.28125,0.0,0.0,0.0,83
84,1695809849577,0.31933594,0.96875,-0.060546875,8.0625,11.21875,6.4375,0.0,0.0,0.0,84
85,1695809849617,0.31835938,0.92285156,0.030273438,5.0,16.03125,1.5625,0.0,0.0,0.0,85
86,1695809849657,0.36816406,1.0869141,-0.11328125,0.5,7.25,0.15625,0.0,0.0,0.0,86
87,1695809849697,0.41503906,0.9121094,-0.26660156,-3.71875,11.4375,-10.9375,6.4375,29.125,-140.0,87
88,1695809849737,0.34570312,0.7685547,-0.13378906,-6.71875,25.6875,-10.34375,0.0,0.0,0.0,88
89,1695809849777,0.2626953,0.9560547,-0.123046875,-5.3125,31.53125,4.25,0.0,0.0,0.0,89
90,1695809849817,0.2919922,1.1201172,-0.26171875,9.71875,55.9375,-4.78125,0.0,0.0,0.0,90
91,1695809849857,0.4345703,0.93847656,-0.23144531,37.71875,66.5,-13.625,0.0,0.0,0.0,91
92,1695809849897,0.5253906,0.6308594,-0.14648438,22.03125,20.0625,-12.03125,0.0,0.0,0.0,92
93,1695809849937,0.30078125,0.80566406,-0.1796875,12.4375,-13.4375,3.8125,0.0,0.0,0.0,93
94,1695809849977,0.359375,1.0087891,-0.28027344,15.625,-26.375,4.8125,0.0,0.0,0.0,94
95,1695809850017,0.21875,1.0566406,-0.22949219,9.40625,-22.53125,-4.0625,0.0,0.0,0.0,95
96,1695809850057,0.3515625,1.1376953,-0.32617188,31.90625,-10.21875,-3.875,0.0,0.0,0.0,96
97,1695809850097,0.40722656,1.0419922,-0.3076172,34.0,-16.3125,-2.65625,0.0,0.0,0.0,97
98,1695809850137,0.29296875,0.7734375,-0.37695312,18.375,-4.0,2.71875,0.0,0.0,0.0,98
99,1695809850177,0.3046875,0.6269531,-0.3408203,22.09375,8.9375,10.28125,0.0,0.0,0.0,99
100,1695809850217,0.4140625,0.4736328,-0.2783203,9.28125,10.46875,25.5,6.75,31.0625,-143.0,100
101,1695809850257,0.40722656,0.111328125,-0.21582031,-10.5,-27.6875,13.03125,0.0,0.0,0.0,101
102,1695809850297,0.24804688,1.2197266,-0.2705078,-9.28125,-82.65625,58.34375,0.0,0.0,0.0,102
103,1695809850337,0.12207031,1.1894531,-0.28222656,3.1875,-54.03125,-5.15625,0.0,0.0,0.0,103
104,1695809850377,0.32910156,0.7714844,-0.3857422,-19.78125,-27.1875,-11.1875,0.0,0.0,0.0,104
105,1695809850417,0.328125,0.9980469,-0.115234375,0.90625,18.53125,30.1875,0.0,0.0,0.0,105
106,1695809850457,0.328125,1.1269531,-0.064453125,-33.5625,25.0,11.5,0.0,0.0,0.0,106
107,1695809850497,0.21191406,1.0283203,-0.25585938,-17.46875,21.21875,-11.4375,0.0,0.0,0.0,107
108,1695809850537,0.3779297,0.9189453,-0.16113281,-24.15625,26.71875,-10.15625,0.0,0.0,0.0,108
109,1695809850577,0.42089844,0.8466797,-0.10058594,-20.09375,33.65625,-3.8125,0.0,0.0,0.0,109
110,1695809850617,0.3779297,0.9091797,-0.07519531,-24.90625,29.75,-3.5625,0.0,0.0,0.0,110
111,1695809850657,0.2548828,0.90625,-0.19335938,-11.84375,38.78125,-3.3125,0.0,0.0,0.0,111
112,1695809850697,0.40722656,0.9013672,-0.22753906,8.96875,47.09375,-10.53125,7.625,27.9375,-140.0,112
113,1695809850737,0.3359375,0.8613281,-0.11425781,26.4375,49.96875,-15.21875,0.0,0.0,0.0,113
114,1695809850777,0.4111328,0.8339844,-0.068359375,17.8125,46.1875,-6.5625,0.0,0.0,0.0,114
115,1695809850817,0.4951172,0.7158203,-0.23730469,5.625,28.40625,-5.34375,0.0,0.0,0.0,115
116,1695809850857,0.45410156,1.1132812,-0.038085938,-22.15625,17.90625,-1.4375,0.0,0.0,0.0,116
117,1695809850897,0.13574219,1.0351562,-0.09277344,-41.875,26.71875,-14.96875,0.0,0.0,0.0,117
118,1695809850937,0.23339844,1.0341797,-0.17675781,-28.3125,29.09375,-31.6875,0.0,0.0,0.0,118
119,1695809850977,0.5283203,0.85058594,-0.18359375,-9.40625,44.34375,-26.5,0.0,0.0,0.0,119
120,1695809851017,0.49609375,0.875,-0.049804688,3.34375,27.0,-7.53125,0.0,0.0,0.0,120
121,1695809851057,0.34179688,1.0478516,-0.1171875,26.5625,-6.84375,-2.21875,0.0,0.0,0.0,121
122,1695809851097,0.2861328,0.87402344,-0.22070312,59.75,-48.59375,-4.34375,0.0,0.0,0.0,122
123,1695809851137,0.35253906,0.91796875,-0.22167969,50.0,-40.78125,-0.75,0.0,0.0,0.0,123
124,1695809851177,0.1484375,1.0771484,-0.35546875,39.375,-40.625,-7.21875,0.0,0.0,0.0,124
125,1695809851217,0.30371094,0.85058594,-0.42382812,36.5,7.0625,-6.625,4.5,31.8125,-138.5,125
126,1695809851257,0.41015625,0.6152344,-0.50683594,18.1875,-6.90625,-6.125,0.0,0.0,0.0,126
127,1695809851297,0.3544922,0.265625,-0.33496094,-30.28125,-16.75,4.5,0.0,0.0,0.0,127
128,1695809851337,0.11328125,0.49609375,-0.27148438,-5.90625,-48.0,27.375,0.0,0.0,0.0,128
129,1695809851377,0.07324219,2.0136719,-0.0234375,24.15625,-64.125,28.90625,0.0,0.0,0.0,129
130,1695809851417,0.4609375,0.953125,-0.12988281,28.5625,7.65625,5.84375,0.0,0.0,0.0,130
131,1695809851457,0.21484375,0.9111328,-0.18066406,-28.375,5.40625,-14.4375,0.0,0.0,0.0,131
132,1695809851497,0.27929688,1.0761719,-0.087890625,-31.375,19.09375,2.59375,0.0,0.0,0.0,132
133,1695809851537,0.46289062,0.9824219,-0.18066406,-10.875,66.1875,-2.84375,0.0,0.0,0.0,133
134,1695809851577,0.39160156,0.86328125,-0.10839844,-0.84375,66.03125,-1.78125,0.0,0.0,0.0,134
135,1695809851617,0.37109375,0.8251953,-0.13964844,-3.71875,33.78125,-10.53125,0.0,0.0,0.0,135
136,1695809851657,0.35351562,0.9013672,-0.08203125,-18.6875,31.90625,-9.0625,0.0,0.0,0.0,136
137,1695809851697,0.34570312,0.9511719,-0.055664062,-22.78125,20.375,-2.71875,5.375,30.5,-134.4375,137
138,1695809851737,0.27539062,0.9277344,-0.11035156,-11.90625,19.375,5.28125,0.0,0.0,0.0,138
139,1695809851777,0.4345703,1.015625,-0.08691406,-17.21875,22.6875,1.875,0.0,0.0,0.0,139
140,1695809851817,0.35351562,0.9238281,-0.038085938,-26.4375,25.0,-5.28125,0.0,0.0,0.0,140
141,1695809851857,0.36523438,0.8652344,-0.13476562,-19.28125,22.4375,-13.625,0.0,0.0,0.0,141
142,1695809851897,0.25878906,0.84375,-0.18457031,-1.09375,28.46875,-18.6875,0.0,0.0,0.0,142
143,1695809851937,0.3173828,0.8857422,-0.12597656,37.0625,49.46875,-13.5,0.0,0.0,0.0,143
144,1695809851977,0.5107422,0.9980469,0.05078125,33.03125,62.21875,16.59375,0.0,0.0,0.0,144
145,1695809852017,0.65234375,0.84277344,-0.09277344,8.59375,26.34375,0.09375,0.0,0.0,0.0,145
146,1695809852057,0.34375,0.9716797,-0.09863281,-3.65625,3.40625,-7.78125,0.0,0.0,0.0,146
147,1695809852097,0.24804688,0.9375,-0.12988281,-4.53125,4.3125,-4.65625,0.0,0.0,0.0,147
148,1695809852137,0.27929688,0.94628906,-0.13769531,4.09375,7.90625,-3.9375,0.0,0.0,0.0,148
149,1695809852177,0.33691406,0.9316406,-0.13769531,11.34375,1.75,-2.15625,0.0,0.0,0.0,149
150,1695809852217,0.36914062,0.9316406,-0.14648438,15.8125,-14.78125,0.59375,6.125,32.3125,-129.375,150
151,1695809852257,0.23828125,0.9423828,-0.13476562,21.125,-15.46875,-0.6875,0.0,0.0,0.0,151
152,1695809852297,0.24707031,0.9814453,-0.17675781,22.71875,-23.15625,-2.34375,0.0,0.0,0.0,152
153,1695809852337,0.22949219,1.0976562,-0.21679688,25.5,-3.3125,4.625,0.0,0.0,0.0,153
154,1695809852377,0.28125,1.0009766,-0.1640625,36.5,1.0625,-0.3125,0.0,0.0,0.0,154
155,1695809852417,0.31054688,1.0078125,-0.2265625,37.65625,4.4375,-5.15625,0.0,0.0,0.0,155
156,1695809852457,0.27441406,0.9394531,-0.22949219,40.65625,9.75,-2.15625,0.0,0.0,0.0,156
157,1695809852497,0.28515625,0.8701172,-0.2734375,30.9375,13.28125,2.71875,0.0,0.0,0.0,157
158,1695809852537,0.26464844,0.6777344,-0.2548828,13.3125,16.8125,4.96875,0.0,0.0,0.0,158
159,1695809852577,0.29882812,0.5576172,-0.33007812,2.3125,11.6875,4.5,0.0,0.0,0.0,159
160,1695809852617,0.39648438,0.44628906,-0.296875,2.75,-0.4375,6.375,0.0,0.0,0.0,160
161,1695809852657,0.39746094,1.1923828,-0.40820312,12.875,-6.84375,34.71875,0.0,0.0,0.0,161
162,1695809852697,0.26953125,1.1923828,0.009765625,-31.375,-23.9375,1.5,5.375,32.0,-134.875,162
163,1695809852737,0.2763672,1.0732422,-0.25585938,-15.5,-23.78125,-14.65625,0.0,0.0,0.0,163
164,1695809852777,0.12109375,0.89160156,-0.1796875,-22.09375,0.21875,-7.34375,0.0,0.0,0.0,164
165,1695809852817,0.45117188,1.0166016,-0.17871094,-20.9375,28.1875,-11.1875,0.0,0.0,0.0,165
166,1695809852857,0.4423828,0.85546875,-0.24902344,-9.53125,11.4375,-15.34375,0.0,0.0,0.0,166
167,1695809852897,0.33203125,0.828125,-0.16699219,-9.65625,-6.625,-4.78125,0.0,0.0,0.0,167
168,1695809852937,0.41308594,0.96777344,-0.19335938,-5.75,11.09375,1.4375,0.0,0.0,0.0,168
169,1695809852977,0.43652344,0.90625,-0.1796875,1.90625,12.96875,-3.0625,0.0,0.0,0.0,169
170,1695809853017,0.4892578,0.91503906,-0.15820312,14.78125,4.125,-2.03125,0.0,0.0,0.0,170
171,1695809853057,0.4267578,0.88671875,-0.13476562,9.53125,-1.25,1.375,0.0,0.0,0.0,171
172,1695809853097,0.43164062,0.8457031,-0.23339844,-6.34375,-4.90625,5.21875,0.0,0.0,0.0,172
173,1695809853137,0.3828125,0.9169922,-0.15917969,-9.40625,-25.65625,4.375,0.0,0.0,0.0,173
174,1695809853177,0.32910156,1.0097656,-0.08886719,-22.46875,-31.59375,3.75,0.0,0.0,0.0,174
175,1695809853217,0.296875,1.0087891,-0.09277344,-28.5,-27.0625,0.03125,5.125,33.3125,-132.5,175
176,1695809853257,0.24902344,1.0048828,-0.08203125,-31.75,-9.125,7.375,0.0,0.0,0.0,176
177,1695809853297,0.34277344,0.9121094,-0.10449219,-25.21875,0.09375,2.46875,0.0,0.0,0.0,177
178,1695809853337,0.3095703,0.82421875,-0.17871094,-4.46875,5.09375,-6.96875,0.0,0.0,0.0,178
179,1695809853377,0.22265625,0.68847656,-0.33984375,18.4375,20.3125,-3.3125,0.0,0.0,0.0,179
180,1695809853417,0.22363281,0.7207031,-0.16601562,32.21875,40.1875,10.84375,0.0,0.0,0.0,180
181,1695809853457,0.6230469,0.9902344,-0.22070312,2.375,28.0625,11.40625,0.0,0.0,0.0,181
182,1695809853497,0.35839844,1.1943359,-0.35839844,-17.53125,-24.25,10.0,0.0,0.0,0.0,182
183,1695809853537,0.234375,1.1640625,-0.25585938,4.34375,-24.5,5.40625,0.0,0.0,0.0,183
184,1695809853577,0.31835938,0.85839844,-0.18554688,-5.4375,2.0625,-5.9375,0.0,0.0,0.0,184
185,1695809853617,0.15136719,1.1162109,-0.21875,0.0625,-20.46875,-13.21875,0.0,0.0,0.0,185
186,1695809853657,0.21777344,1.2011719,-0.16992188,25.34375,-9.0625,-16.375,0.0,0.0,0.0,186
187,1695809853697,0.2529297,0.9658203,-0.20214844,28.9375,9.375,-17.78125,6.0,31.8125,-133.25,187
188,1695809853737,0.3486328,0.7949219,-0.2939453,40.78125,25.78125,-12.65625,0.0,0.0,0.0,188
189,1695809853777,0.43359375,0.6923828,-0.3623047,32.21875,29.40625,6.6875,0.0,0.0,0.0,189
190,1695809853817,0.45996094,0.4658203,-0.29003906,3.71875,2.96875,9.625,0.0,0.0,0.0,190
191,1695809853857,0.44335938,0.40429688,-0.28027344,-18.3125,-53.1875,15.375,0.0,0.0,0.0,191
192,1695809853897,0.34375,1.0810547,-0.013671875,-20.3125,-57.09375,46.3125,0.0,0.0,0.0,192
193,1695809853937,-0.064453125,1.4912109,-0.21972656,-53.84375,-54.78125,-3.375,0.0,0.0,0.0,193
194,1695809853977,0.31640625,1.125,-0.3955078,4.9375,-22.0625,-16.1875,0.0,0.0,0.0,194
195,1695809854017,0.27148438,0.8652344,-0.07128906,30.75,54.96875,2.25,0.0,0.0,0.0,195
196,1695809854057,0.37597656,1.0253906,-0.07714844,5.96875,67.46875,-0.6875,0.0,0.0,0.0,196
197,1695809854097,0.5136719,1.0058594,-0.14453125,-6.40625,53.0625,-8.8125,0.0,0.0,0.0,197
198,1695809854137,0.33789062,0.93359375,-0.10644531,-13.6875,30.0625,-10.53125,0.0,0.0,0.0,198
199,1695809854177,0.3876953,0.8779297,-0.23925781,-17.34375,34.59375,-15.53125,0.0,0.0,0.0,199
200,1695809854217,0.3955078,0.8203125,-0.13671875,-8.46875,45.21875,-9.46875,6.125,30.9375,-129.375,200
201,1695809854257,0.36914062,0.84472656,-0.09277344,-3.25,33.375,-10.59375,0.0,0.0,0.0,201
202,1695809854297,0.27246094,0.79785156,-0.16894531,-2.125,42.6875,-10.875,0.0,0.0,0.0,202
203,1695809854337,0.24804688,0.80371094,-0.16796875,24.53125,49.125,-12.40625,0.0,0.0,0.0,203
204,1695809854377,0.24902344,0.6923828,-0.24414062,43.59375,73.46875,-13.5625,0.0,0.0,0.0,204
205,1695809854417,0.65625,1.0078125,0.19824219,18.4375,100.4375,21.9375,0.0,0.0,0.0,205
206,1695809854457,0.6171875,1.2597656,-0.11035156,-18.75,17.4375,8.15625,0.0,0.0,0.0,206
207,1695809854497,0.28027344,1.0439453,-0.25,-0.5,-3.6875,-12.09375,0.0,0.0,0.0,207
208,1695809854537,0.17773438,0.80859375,-0.16992188,4.15625,-4.0,-14.3125,0.0,0.0,0.0,208
209,1695809854577,0.39160156,0.9003906,-0.16308594,4.40625,4.125,-8.6875,0.0,0.0,0.0,209
210,1695809854617,0.34472656,0.96484375,-0.17285156,8.65625,14.625,-2.21875,0.0,0.0,0.0,210
211,1695809854657,0.34375,0.84277344,-0.12890625,6.34375,-10.65625,-6.1875,0.0,0.0,0.0,211
212,1695809854697,0.3076172,1.0380859,-0.16113281,13.78125,-11.9375,-1.375,3.4375,33.9375,-126.375,212
213,1695809854737,0.3173828,1.0175781,-0.12792969,29.34375,-1.25,-2.65625,0.0,0.0,0.0,213
214,1695809854777,0.28027344,0.9980469,-0.10449219,27.34375,-8.875,-6.625,0.0,0.0,0.0,214
215,1695809854817,0.203125,0.97558594,-0.11230469,23.3125,-9.59375,-9.53125,0.0,0.0,0.0,215
216,1695809854857,0.2548828,1.1289062,-0.29882812,31.5625,6.03125,-11.875,0.0,0.0,0.0,216
217,1695809854897,0.36523438,1.0488281,-0.19433594,35.46875,16.8125,-17.21875,0.0,0.0,0.0,217
218,1695809854937,0.20605469,0.7685547,-0.20117188,12.75,30.8125,-12.53125,0.0,0.0,0.0,218
219,1695809854977,0.2763672,0.6279297,-0.3310547,-16.125,39.40625,-7.90625,0.0,0.0,0.0,219
220,1695809855017,0.31347656,0.60839844,-0.3642578,-19.71875,12.625,-10.34375,0.0,0.0,0.0,220
221,1695809855057,0.27734375,0.53222656,-0.5292969,-15.5,-11.0,1.03125,0.0,0.0,0.0,221
222,1695809855097,0.47460938,1.2998047,-0.1171875,16.34375,-38.53125,27.5625,0.0,0.0,0.0,222
223,1695809855137,-0.28125,1.4199219,-0.040039062,-21.90625,-8.5625,2.65625,0.0,0.0,0.0,223
224,1695809855177,0.34765625,0.9628906,-0.39648438,-25.5,9.875,-25.46875,0.0,0.0,0.0,224
225,1695809855217,0.39648438,0.66308594,-0.19726562,13.78125,44.03125,4.9375,-1.9375,35.3125,-129.1875,225
226,1695809855257,0.4326172,0.8027344,-0.10839844,3.78125,21.21875,7.96875,0.0,0.0,0.0,226
227,1695809855297,0.4033203,0.9892578,-0.28027344,-28.75,-14.5,0.28125,0.0,0.0,0.0,227
228,1695809855337,0.34375,0.859375,-0.19238281,2.75,-6.1875,14.375,0.0,0.0,0.0,228
229,1695809855377,0.35546875,0.82714844,-0.25097656,12.21875,-10.09375,13.59375,0.0,0.0,0.0,229
230,1695809855417,0.47070312,0.90722656,-0.22851562,17.09375,-4.25,21.21875,0.0,0.0,0.0,230
231,1695809855457,0.43359375,0.93652344,-0.19335938,8.90625,-4.96875,19.375,0.0,0.0,0.0,231
232,1695809855497,0.43554688,0.8378906,-0.13476562,-6.59375,-19.8125,17.8125,0.0,0.0,0.0,232
233,1695809855537,0.4091797,0.9589844,-0.119140625,-1.59375,-25.90625,23.0,0.0,0.0,0.0,233
234,1695809855577,0.2998047,0.9316406,-0.13769531,-17.40625,-15.46875,16.65625,0.0,0.0,0.0,234
235,1695809855617,0.3984375,1.0488281,-0.09472656,-15.0,-6.5625,13.53125,0.0,0.0,0.0,235
236,1695809855657,0.35351562,1.0175781,-0.06738281,-14.34375,0.71875,3.75,0.0,0.0,0.0,236
237,1695809855697,0.38378906,1.0097656,-0.076171875,-13.71875,5.40625,-5.15625,4.625,34.0625,-127.25,237
238,1695809855737,0.328125,1.0019531,-0.08984375,-15.9375,18.71875,-4.84375,0.0,0.0,0.0,238
239,1695809855777,0.27148438,0.9433594,-0.11328125,-10.5625,35.5,-11.5,0.0,0.0,0.0,239
240,1695809855817,0.2685547,0.8544922,-0.16601562,-1.40625,43.8125,-20.90625,0.0,0.0,0.0,240
241,1695809855857,0.3310547,0.88964844,-0.23632812,19.28125,55.8125,-30.28125,0.0,0.0,0.0,241
242,1695809855897,0.453125,0.86035156,-0.2607422,37.34375,49.21875,-27.5625,0.0,0.0,0.0,242
243,1695809855937,0.4404297,0.7792969,-0.18066406,43.28125,66.25,-6.625,0.0,0.0,0.0,243
244,1695809855977,0.5908203,0.86035156,-0.22753906,24.71875,38.3125,-0.25,0.0,0.0,0.0,244
245,1695809856017,0.51953125,1.0693359,-0.203125,27.53125,10.34375,4.375,0.0,0.0,0.0,245
246,1695809856057,0.3720703,0.9941406,-0.1875,27.90625,-14.5,1.1875,0.0,0.0,0.0,246
247,1695809856097,0.21875,0.83203125,-0.29589844,54.3125,-11.375,-3.6875,0.0,0.0,0.0,247
248,1695809856137,0.29785156,0.8125,-0.23242188,34.375,-13.21875,-7.59375,0.0,0.0,0.0,248
249,1695809856177,0.31347656,0.9814453,-0.296875,30.9375,-11.5,1.3125,0.0,0.0,0.0,249
250,1695809856217,0.19628906,0.9140625,-0.24804688,13.0,-4.0625,-7.09375,-0.4375,37.5625,-131.3125,250
251,1695809856257,0.27539062,0.7753906,-0.33398438,-4.21875,23.34375,-12.40625,0.0,0.0,0.0,251
252,1695809856297,0.24902344,0.5908203,-0.36621094,-20.25,38.5,-13.5,0.0,0.0,0.0,252
253,1695809856337,0.15136719,0.8486328,-0.17285156,-12.9375,36.40625,1.9375,0.0,0.0,0.0,253
254,1695809856377,0.65722656,1.1318359,-0.33691406,-0.5625,-18.03125,6.15625,0.0,0.0,0.0,254
255,1695809856417,0.2763672,1.1113281,-0.23046875,-31.96875,-0.4375,3.21875,0.0,0.0,0.0,255
256,1695809856457,0.47753906,1.0371094,-0.32617188,-18.375,0.71875,-12.90625,0.0,0.0,0.0,256
257,1695809856497,0.4345703,0.79785156,-0.22558594,-16.59375,-9.375,1.625,0.0,0.0,0.0,257
258,1695809856537,0.4951172,0.81640625,-0.049804688,-28.625,-16.375,1.375,0.0,0.0,0.0,258
259,1695809856577,0.34277344,0.9892578,-0.13671875,-27.09375,-21.15625,4.4375,0.0,0.0,0.0,259
260,1695809856617,0.38378906,0.88183594,-0.09863281,-15.375,-18.6875,-0.15625,0.0,0.0,0.0,260
261,1695809856657,0.359375,0.890625,-0.17480469,-13.78125,-4.125,0.71875,0.0,0.0,0.0,261
262,1695809856697,0.39941406,0.9580078,-0.19824219,-16.78125,3.15625,4.5,-0.125,36.3125,-124.6875,262
263,1695809856737,0.50878906,0.9404297,-0.16796875,-19.28125,-9.65625,0.59375,0.0,0.0,0.0,263
264,1695809856777,0.3466797,0.9238281,-0.10058594,-22.53125,-13.5625,1.625,0.0,0.0,0.0,264
265,1695809856817,0.31933594,0.8671875,-0.09277344,-23.3125,-15.40625,-4.28125,0.0,0.0,0.0,265
266,1695809856857,0.3935547,0.9638672,-0.14453125,-16.46875,-7.59375,3.09375,0.0,0.0,0.0,266
267,1695809856897,0.359375,0.9277344,-0.0625,-12.875,-6.1875,2.84375,0.0,0.0,0.0,267
268,1695809856937,0.26757812,0.9658203,-0.103515625,-15.1875,4.25,-2.28125,0.0,0.0,0.0,268
269,1695809856977,0.32128906,0.92089844,-0.140625,-1.46875,21.71875,-5.09375,0.0,0.0,0.0,269
270,1695809857017,0.29101562,0.8652344,-0.16015625,10.1875,41.3125,-5.5625,0.0,0.0,0.0,270
271,1695809857057,0.30859375,0.7949219,-0.17285156,12.09375,45.8125,-12.03125,0.0,0.0,0.0,271
272,1695809857097,0.18554688,0.7011719,-0.07910156,34.5,61.0,-12.03125,0.0,0.0,0.0,272
273,1695809857137,0.453125,1.2705078,0.16503906,44.4375,66.125,0.15625,0.0,0.0,0.0,273
274,1695809857177,0.6113281,0.98339844,-0.13574219,10.6875,25.96875,6.8125,0.0,0.0,0.0,274
275,1695809857217,0.5058594,0.8798828,-0.18945312,14.78125,-0.375,-4.90625,-3.125,36.9375,-122.4375,275
276,1695809857257,0.32226562,0.76953125,-0.049804688,-5.0,-41.15625,-11.96875,0.0,0.0,0.0,276
277,1695809857297,0.056640625,0.99316406,-0.07324219,-3.53125,-29.875,1.4375,0.0,0.0,0.0,277
278,1695809857337,0.14941406,1.1923828,-0.14648438,12.6875,8.34375,0.40625,0.0,0.0,0.0,278
279,1695809857377,0.20996094,1.0068359,-0.14941406,14.90625,37.4375,4.0,0.0,0.0,0.0,279
280,1695809857417,0.32910156,0.953125,-0.13769531,24.65625,28.65625,-2.46875,0.0,0.0,0.0,280
281,1695809857457,0.40722656,0.97558594,-0.2109375,34.84375,26.09375,-13.75,0.0,0.0,0.0,281
282,1695809857497,0.29296875,1.1103516,-0.17675781,29.0,9.3125,-9.1875,0.0,0.0,0.0,282
283,1695809857537,0.40820312,1.03125,-0.19042969,39.78125,-4.0,-5.5,0.0,0.0,0.0,283
284,1695809857577,0.4453125,0.82714844,-0.2607422,29.53125,-10.53125,-5.15625,0.0,0.0,0.0,284
285,1695809857617,0.31835938,0.58203125,-0.2548828,7.8125,-8.5625,8.09375,0.0,0.0,0.0,285
286,1695809857657,0.3017578,0.6074219,-0.22558594,-19.34375,-14.84375,13.71875,0.0,0.0,0.0,286
287,1695809857697,0.39160156,0.69433594,-0.34179688,-20.6875,-29.625,16.8125,-2.875,38.0,-127.25,287
288,1695809857737,0.38378906,0.94433594,-0.13378906,-9.8125,-28.71875,29.03125,0.0,0.0,0.0,288
289,1695809857777,0.018554688,1.1855469,-0.08105469,-25.34375,-18.875,14.5,0.0,0.0,0.0,289
290,1695809857817,0.3798828,1.0673828,-0.33007812,-2.8125,-27.5,-2.34375,0.0,0.0,0.0,290
291,1695809857857,0.36621094,0.78808594,-0.2626953,4.75,18.65625,20.375,0.0,0.0,0.0,291
292,1695809857897,0.30859375,0.9296875,-0.21289062,2.5,23.96875,10.53125,0.0,0.0,0.0,292
293,1695809857937,0.46289062,0.9716797,-0.18359375,-1.65625,11.9375,0.53125,0.0,0.0,0.0,293
294,1695809857977,0.35351562,0.95703125,-0.17382812,-3.53125,7.71875,0.84375,0.0,0.0,0.0,294
295,1695809858017,0.47558594,0.91015625,-0.19238281,-20.09375,-3.25,0.09375,0.0,0.0,0.0,295
296,1695809858057,0.3828125,0.88378906,-0.08691406,-23.3125,3.625,1.125,0.0,0.0,0.0,296
297,1695809858097,0.43652344,0.9716797,-0.119140625,-32.84375,-5.34375,-4.71875,0.0,0.0,0.0,297
298,1695809858137,0.3671875,0.91308594,-0.095703125,-13.78125,6.5,-1.375,0.0,0.0,0.0,298
299,1695809858177,0.4033203,0.92871094,-0.037109375,-2.25,3.625,-2.78125,0.0,0.0,0.0,299
300,1695809858217,0.51464844,0.8769531,-0.05078125,-6.90625,-6.625,-5.6875,-0.4375,36.8125,-122.625,300
301,1695809858257,0.3720703,0.86035156,-0.061523438,-23.625,-18.21875,-4.65625,0.0,0.0,0.0,301
302,1695809858297,0.4169922,0.9404297,-0.10253906,-23.1875,-3.375,-6.0,0.0,0.0,0.0,302
303,1695809858337,0.31054688,0.8496094,-0.12792969,-3.59375,0.84375,-10.6875,0.0,0.0,0.0,303
304,1695809858377,0.25878906,0.7402344,-0.13769531,12.21875,12.5,-13.8125,0.0,0.0,0.0,304
305,1695809858417,0.28222656,0.6298828,-0.08105469,10.5625,42.28125,-1.78125,0.0,0.0,0.0,305
306,1695809858457,0.6982422,1.1123047,0.024414062,-35.46875,30.1875,3.40625,0.0,0.0,0.0,306
307,1695809858497,0.38476562,1.0869141,0.0,-34.125,-2.53125,-6.125,0.0,0.0,0.0,307
308,1695809858537,0.24902344,1.0253906,-0.20800781,-11.90625,5.84375,-5.15625,0.0,0.0,0.0,308
309,1695809858577,0.32421875,0.9638672,-0.17382812,1.28125,-4.0,-6.125,0.0,0.0,0.0,309
310,1695809858617,0.39160156,1.03125,-0.040039062,19.53125,-7.90625,-4.78125,0.0,0.0,0.0,310
311,1695809858657,0.28125,1.0527344,-0.07519531,16.25,-8.375,-1.4375,0.0,0.0,0.0,311
312,1695809858697,0.20703125,1.0078125,-0.123046875,31.0,-17.1875,-7.40625,-3.0,36.3125,-120.5,312
313,1695809858737,0.17675781,1.0078125,-0.08300781,37.28125,-10.34375,-11.25,0.0,0.0,0.0,313
314,1695809858777,0.22265625,1.0517578,-0.17773438,45.21875,13.21875,-10.875,0.0,0.0,0.0,314
315,1695809858817,0.22363281,1.0009766,-0.1953125,38.75,18.96875,-15.09375,0.0,0.0,0.0,315
316,1695809858857,0.2998047,0.90527344,-0.31054688,52.96875,32.6875,-11.0625,0.0,0.0,0.0,316
317,1695809858897,0.296875,0.7675781,-0.24609375,27.03125,42.8125,1.5,0.0,0.0,0.0,317
318,1695809858937,0.34179688,0.6982422,-0.28320312,17.625,22.0625,9.25,0.0,0.0,0.0,318
319,1695809858977,0.24316406,0.49609375,-0.3232422,18.3125,-3.875,7.0,0.0,0.0,0.0,319
320,1695809859017,0.35253906,0.60839844,-0.0703125,22.59375,18.78125,18.78125,0.0,0.0,0.0,320
321,1695809859057,0.3720703,1.3681641,-0.24414062,17.03125,-32.25,-8.625,0.0,0.0,0.0,321
322,1695809859097,0.6357422,1.0283203,-0.2548828,13.90625,26.09375,8.875,0.0,0.0,0.0,322
323,1695809859137,0.33203125,0.8642578,-0.22851562,-1.96875,-19.90625,-3.25,0.0,0.0,0.0,323
324,1695809859177,0.44726562,1.0136719,-0.15917969,-12.03125,22.75,2.34375,0.0,0.0,0.0,324
325,1695809859217,0.46875,1.1591797,-0.1640625,-30.9375,25.0,-8.4375,-4.375,40.375,-128.125,325
326,1695809859257,0.54785156,0.9638672,-0.22265625,-35.78125,-5.15625,-13.03125,0.0,0.0,0.0,326
327,1695809859297,0.36914062,0.80859375,-0.18554688,-37.46875,0.09375,-4.65625,0.0,0.0,0.0,327
328,1695809859337,0.43066406,0.79003906,-0.15136719,-46.03125,-3.1875,-5.9375,0.0,0.0,0.0,328
329,1695809859377,0.37304688,0.8378906,-0.12792969,-39.5,-11.8125,-0.9375,0.0,0.0,0.0,329
330,1695809859417,0.32128906,0.87890625,-0.15527344,-24.65625,-8.3125,2.53125,0.0,0.0,0.0,330
331,1695809859457,0.32128906,0.8046875,-0.3623047,-9.28125,0.46875,2.65625,0.0,0.0,0.0,331
332,1695809859497,0.32910156,0.6845703,-0.328125,17.8125,5.21875,-0.5,0.0,0.0,0.0,332
333,1695809859537,0.19238281,0.76464844,0.0625,42.34375,5.09375,-0.9375,0.0,0.0,0.0,333
334,1695809859577,0.083984375,1.3222656,-0.2421875,37.28125,-24.25,9.5625,0.0,0.0,0.0,334
335,1695809859617,0.44726562,1.1318359,0.009765625,38.34375,-27.78125,4.25,0.0,0.0,0.0,335
336,1695809859657,0.35253906,1.1835938,-0.23535156,22.59375,-1.1875,7.5,0.0,0.0,0.0,336
337,1695809859697,0.32714844,1.1679688,-0.2734375,31.8125,-18.5625,-8.3125,-2.875,38.75,-128.3125,337
338,1695809859737,0.2939453,0.9941406,-0.19238281,25.34375,-10.75,-4.40625,0.0,0.0,0.0,338
339,1695809859777,0.31835938,0.9423828,-0.24023438,23.5,-5.03125,-4.65625,0.0,0.0,0.0,339
340,1695809859817,0.24511719,0.76464844,-0.16894531,15.875,-4.96875,-2.21875,0.0,0.0,0.0,340
341,1695809859857,0.16894531,0.6982422,-0.33789062,-4.21875,-10.71875,0.65625,0.0,0.0,0.0,341
342,1695809859897,0.29003906,0.6113281,-0.33789062,-14.53125,-3.75,-0.15625,0.0,0.0,0.0,342
343,1695809859937,0.37304688,0.46972656,-0.23632812,-19.09375,-3.6875,5.15625,0.0,0.0,0.0,343
344,1695809859977,0.265625,0.85058594,-0.2685547,-7.25,-27.84375,31.09375,0.0,0.0,0.0,344
345,1695809860017,0.27929688,1.4931641,-0.16992188,-14.90625,-48.90625,26.59375,0.0,0.0,0.0,345
346,1695809860057,0.2998047,1.0390625,-0.17773438,7.09375,-14.3125,7.84375,0.0,0.0,0.0,346
347,1695809860097,0.34570312,0.9433594,-0.21679688,-7.09375,5.34375,4.8125,0.0,0.0,0.0,347
348,1695809860137,0.4140625,0.92871094,-0.18847656,-4.21875,-3.125,10.125,0.0,0.0,0.0,348
349,1695809860177,0.43847656,0.90234375,-0.21777344,-20.625,16.6875,8.84375,0.0,0.0,0.0,349
350,1695809860217,0.36816406,0.8798828,-0.18359375,-23.1875,9.875,2.65625,-1.5,38.875,-130.875,350
351,1695809860257,0.41015625,0.8779297,-0.25683594,-17.09375,-8.6875,-2.34375,0.0,0.0,0.0,351
352,1695809860297,0.45410156,0.88378906,-0.2578125,-8.25,4.375,0.59375,0.0,0.0,0.0,352
353,1695809860337,0.44140625,0.86621094,-0.22949219,-3.34375,11.5625,3.40625,0.0,0.0,0.0,353
354,1695809860377,0.41015625,0.92089844,-0.1640625,-0.125,5.46875,4.6875,0.0,0.0,0.0,354
355,1695809860417,0.42773438,0.90234375,-0.22167969,-0.25,3.09375,4.5,0.0,0.0,0.0,355
356,1695809860457,0.45703125,0.8466797,-0.15234375,-4.15625,1.0625,3.8125,0.0,0.0,0.0,356
357,1695809860497,0.45898438,0.9277344,-0.12109375,-13.5625,-15.15625,6.15625,0.0,0.0,0.0,357
358,1695809860537,0.4296875,0.9433594,-0.10449219,-25.8125,-19.6875,2.0,0.0,0.0,0.0,358
359,1695809860577,0.43554688,0.94433594,-0.14355469,-27.28125,-27.90625,3.34375,0.0,0.0,0.0,359
360,1695809860617,0.4794922,0.9169922,-0.13769531,-28.75,-27.625,2.71875,0.0,0.0,0.0,360
361,1695809860657,0.3564453,0.890625,-0.15039062,-30.875,-25.09375,-0.625,0.75,38.4375,-125.125,361
362,1695809860697,0.40625,0.8876953,-0.19824219,-29.71875,-24.625,-2.9375,0.0,0.0,0.0,362
363,1695809860737,0.33691406,0.7988281,-0.13671875,-21.65625,-12.46875,0.09375,0.0,0.0,0.0,363
364,1695809860777,0.24511719,0.7314453,-0.12792969,-13.6875,-9.96875,-2.65625,0.0,0.0,0.0,364
365,1695809860817,0.11621094,0.5654297,-0.14746094,-22.59375,14.375,-2.40625,0.0,0.0,0.0,365
366,1695809860857,0.6972656,1.5693359,-0.06347656,-35.9375,5.15625,-5.875,0.0,0.0,0.0,366
367,1695809860897,0.4580078,1.0078125,-0.0009765625,-31.25,-3.9375,-10.46875,0.0,0.0,0.0,367
368,1695809860937,0.0546875,1.0292969,-0.13476562,-29.0625,0.59375,-13.8125,0.0,0.0,0.0,368
369,1695809860977,0.2939453,0.9111328,-0.12695312,-3.71875,34.9375,-9.1875,0.0,0.0,0.0,369
370,1695809861017,0.34375,0.95703125,-0.111328125,10.25,21.875,-2.34375,0.0,0.0,0.0,370
371,1695809861057,0.35839844,1.1181641,-0.030273438,32.21875,0.53125,-5.40625,0.0,0.0,0.0,371
372,1695809861097,0.42089844,1.0341797,-0.03125,42.25,-16.625,-4.71875,0.0,0.0,0.0,372
373,1695809861137,0.30371094,1.0244141,-0.2421875,57.4375,-54.21875,-17.1875,0.0,0.0,0.0,373
374,1695809861177,0.34472656,1.3115234,-0.32226562,75.9375,-43.59375,-18.875,0.0,0.0,0.0,374
375,1695809861217,0.4560547,0.7363281,-0.3779297,56.53125,-3.875,-9.65625,-0.4375,38.875,-128.4375,375
376,1695809861257,0.5488281,0.2919922,-0.40039062,4.625,-26.75,5.84375,0.0,0.0,0.0,376
377,1695809861297,0.39746094,-0.0625,-0.4248047,-47.0625,-50.6875,11.875,0.0,0.0,0.0,377
378,1695809861337,-0.11425781,0.44726562,-0.20117188,-15.0625,-73.625,51.75,0.0,0.0,0.0,378
379,1695809861377,0.8076172,2.0136719,-0.27441406,-28.8125,-101.78125,-12.34375,0.0,0.0,0.0,379
380,1695809861417,0.13671875,1.2460938,0.021484375,-3.65625,23.28125,-19.125,0.0,0.0,0.0,380
381,1695809861457,0.0546875,1.0,-0.29101562,-4.46875,41.46875,-1.4375,0.0,0.0,0.0,381
382,1695809861497,0.7783203,0.8378906,-0.005859375,-5.25,79.375,0.84375,0.0,0.0,0.0,382
383,1695809861537,0.68359375,0.80078125,-0.15429688,-35.78125,24.6875,-6.5625,0.0,0.0,0.0,383
384,1695809861577,0.23925781,0.68066406,-0.037109375,-34.96875,-30.40625,10.96875,0.0,0.0,0.0,384
385,1695809861617,0.15039062,0.8515625,-0.18457031,-42.53125,-24.4375,8.28125,0.0,0.0,0.0,385
386,1695809861657,0.21679688,1.0830078,-0.17773438,-18.375,23.0625,2.65625,0.0,0.0,0.0,386
387,1695809861697,0.328125,1.0058594,-0.048828125,-4.9375,22.9375,-11.0625,0.625,37.0625,-125.75,387
388,1695809861737,0.16308594,0.9345703,-0.11230469,14.53125,25.1875,-9.96875,0.0,0.0,0.0,388
389,1695809861777,0.4404297,0.7734375,-0.29003906,31.96875,34.59375,-12.21875,0.0,0.0,0.0,389
390,1695809861817,0.30371094,0.6298828,-0.037109375,54.1875,59.375,10.84375,0.0,0.0,0.0,390
391,1695809861857,0.12890625,0.765625,-0.12597656,33.1875,43.0625,32.03125,0.0,0.0,0.0,391
392,1695809861897,0.6298828,1.3496094,-0.23339844,5.3125,10.78125,29.28125,0.0,0.0,0.0,392
393,1695809861937,0.5625,0.765625,-0.19335938,26.71875,-12.15625,7.59375,0.0,0.0,0.0,393
394,1695809861977,0.2763672,1.5078125,-0.3798828,47.65625,-26.6875,0.84375,0.0,0.0,0.0,394
395,1695809862017,0.40625,1.1132812,-0.30371094,52.90625,-42.875,-12.71875,0.0,0.0,0.0,395
396,1695809862057,0.5,0.8730469,-0.3095703,36.4375,-37.4375,-20.09375,0.0,0.0,0.0,396
397,1695809862097,0.2763672,0.48632812,-0.3642578,-1.15625,-30.34375,-9.90625,0.0,0.0,0.0,397
398,1695809862137,0.11328125,0.28515625,-0.38867188,-45.65625,-21.25,-5.40625,0.0,0.0,0.0,398
399,1695809862177,0.15625,0.4296875,-0.11621094,-34.78125,5.40625,6.9375,0.0,0.0,0.0,399
400,1695809862217,0.4765625,1.3818359,-0.18359375,-7.1875,-95.96875,17.5625,1.375,37.8125,-131.3125,400
401,1695809862257,0.39160156,1.1806641,-0.13574219,-0.25,-29.3125,14.9375,0.0,0.0,0.0,401
402,1695809862297,0.3251953,1.015625,-0.36914062,-42.34375,-7.03125,7.0625,0.0,0.0,0.0,402
403,1695809862337,0.28320312,0.9042969,-0.12597656,-28.0625,-3.0,8.40625,0.0,0.0,0.0,403
404,1695809862377,0.42773438,0.9628906,-0.05078125,-28.4375,25.25,0.71875,0.0,0.0,0.0,404
405,1695809862417,0.42089844,0.8828125,-0.12597656,-39.90625,11.09375,-8.125,0.0,0.0,0.0,405
406,1695809862457,0.32910156,0.8652344,-0.10253906,-28.375,-2.09375,-0.21875,0.0,0.0,0.0,406
407,1695809862497,0.35546875,0.9033203,-0.12695312,-28.0625,4.90625,-4.78125,0.0,0.0,0.0,407
408,1695809862537,0.33691406,0.9589844,-0.11621094,-25.5,15.71875,-5.09375,0.0,0.0,0.0,408
409,1695809862577,0.33789062,0.9628906,-0.057617188,-23.875,4.375,-15.84375,0.0,0.0,0.0,409
410,1695809862617,0.22363281,0.89941406,-0.083984375,-18.375,28.46875,-5.8125,0.0,0.0,0.0,410
411,1695809862657,0.28808594,0.95214844,-0.12792969,-7.1875,52.03125,-9.0,0.0,0.0,0.0,411
412,1695809862697,0.2939453,0.86328125,-0.23828125,17.40625,57.59375,-9.84375,-1.9375,37.0625,-122.625,412
413,1695809862737,0.2939453,0.68652344,-0.22070312,35.875,66.3125,-15.84375,0.0,0.0,0.0,413
414,1695809862777,0.3857422,0.7246094,-0.009765625,59.03125,66.0625,-16.875,0.0,0.0,0.0,414
415,1695809862817,0.4267578,1.328125,0.0048828125,69.28125,44.96875,9.5625,0.0,0.0,0.0,415
416,1695809862857,0.65234375,0.9267578,-0.20703125,11.0625,-3.6875,10.21875,0.0,0.0,0.0,416
417,1695809862897,0.26660156,0.93847656,-0.09667969,-1.46875,-28.71875,4.375,0.0,0.0,0.0,417
418,1695809862937,0.24902344,0.953125,-0.15527344,-14.15625,-21.875,-6.3125,0.0,0.0,0.0,418
419,1695809862977,0.18554688,1.1240234,-0.19433594,6.21875,5.59375,-9.1875,0.0,0.0,0.0,419
420,1695809863017,0.29785156,0.98535156,-0.07714844,3.125,-19.0,-5.40625,0.0,0.0,0.0,420
421,1695809863057,0.27441406,0.8046875,-0.11621094,-2.625,-26.9375,-4.28125,0.0,0.0,0.0,421
422,1695809863097,0.2685547,0.92285156,-0.23144531,10.1875,-22.71875,-5.15625,0.0,0.0,0.0,422
423,1695809863137,0.20898438,0.9921875,-0.17773438,24.21875,-24.625,-3.875,0.0,0.0,0.0,423
424,1695809863177,0.5205078,0.9951172,-0.06640625,26.0,-34.5,-11.0625,0.0,0.0,0.0,424
425,1695809863217,0.45214844,0.99121094,-0.1328125,13.90625,-55.75,0.53125,-3.3125,39.3125,-130.25,425
426,1695809863257,0.23339844,0.8984375,-0.2705078,30.15625,-60.25,10.84375,0.0,0.0,0.0,426
427,1695809863297,0.14550781,0.86621094,-0.27929688,22.03125,-60.21875,16.53125,0.0,0.0,0.0,427
428,1695809863337,0.15820312,0.8798828,-0.31445312,7.5625,-36.34375,17.96875,0.0,0.0,0.0,428
429,1695809863377,0.24707031,0.7294922,-0.2548828,-2.125,-23.15625,25.125,0.0,0.0,0.0,429
430,1695809863417,0.20019531,0.5185547,-0.3388672,-32.84375,-35.125,21.40625,0.0,0.0,0.0,430
431,1695809863457,0.24121094,0.51953125,-0.26953125,-43.46875,-57.21875,39.59375,0.0,0.0,0.0,431
432,1695809863497,0.48339844,2.0136719,-0.12597656,10.5625,-75.84375,34.9375,0.0,0.0,0.0,432
433,1695809863537,0.029296875,1.2216797,-0.2734375,-33.9375,-6.90625,-10.28125,0.0,0.0,0.0,433
434,1695809863577,0.29785156,0.80859375,-0.27441406,-35.34375,1.0,-18.5625,0.0,0.0,0.0,434
435,1695809863617,0.27929688,0.6923828,-0.12011719,-18.1875,-7.59375,-4.90625,0.0,0.0,0.0,435
436,1695809863657,0.43554688,0.9941406,-0.22167969,-19.96875,11.75,5.78125,0.875,37.5625,-131.625,436
437,1695809863697,0.39453125,0.921875,-0.171875,0.84375,5.28125,9.875,0.0,0.0,0.0,437
438,1695809863737,0.41503906,0.7763672,-0.21679688,-1.65625,-33.34375,7.78125,0.0,0.0,0.0,438
439,1695809863777,0.48339844,0.93847656,-0.18164062,-8.78125,-26.375,13.09375,0.0,0.0,0.0,439
440,1695809863817,0.31640625,1.0566406,-0.1015625,-13.0625,-25.34375,11.21875,0.0,0.0,0.0,440
441,1695809863857,0.37402344,0.93847656,-0.20800781,-23.6875,-29.1875,1.9375,0.0,0.0,0.0,441
442,1695809863897,0.46289062,0.88964844,-0.12597656,-13.1875,-25.90625,10.0625,0.0,0.0,0.0,442
443,1695809863937,0.390625,0.90234375,-0.103515625,-19.78125,-30.0,9.75,0.0,0.0,0.0,443
444,1695809863977,0.37109375,0.9091797,-0.17285156,-26.0625,-29.25,7.5,0.0,0.0,0.0,444
445,1695809864017,0.42089844,0.921875,-0.09667969,-18.4375,-38.71875,5.71875,0.0,0.0,0.0,445
446,1695809864057,0.38476562,0.9316406,-0.029296875,-17.21875,-47.25,4.5625,0.0,0.0,0.0,446
447,1695809864097,0.36523438,0.8017578,-0.15234375,-17.625,-48.375,-1.125,0.0,0.0,0.0,447
448,1695809864137,0.22558594,0.69140625,-0.1875,-2.8125,-35.90625,2.65625,0.0,0.0,0.0,448
449,1695809864177,0.22363281,0.7734375,-0.15039062,13.0625,-33.03125,8.21875,0.0,0.0,0.0,449
450,1695809864217,0.31933594,1.0410156,-0.30664062,8.375,-35.71875,30.75,3.3125,35.875,-137.0,450
451,1695809864257,0.4140625,1.0859375,-0.38085938,4.5625,-58.4375,18.71875,0.0,0.0,0.0,451
452,1695809864297,0.22070312,1.140625,-0.3828125,8.53125,-26.625,23.1875,0.0,0.0,0.0,452
453,1695809864337,0.2265625,1.0332031,-0.37304688,4.875,-41.53125,1.375,0.0,0.0,0.0,453
454,1695809864377,0.21191406,1.1367188,-0.3095703,2.5,-46.53125,3.9375,0.0,0.0,0.0,454
455,1695809864417,0.3076172,1.1582031,-0.4296875,-1.78125,-38.15625,1.625,0.0,0.0,0.0,455
456,1695809864457,0.20117188,0.79785156,-0.36523438,5.25,-9.4375,9.4375,0.0,0.0,0.0,456
457,1695809864497,0.37304688,0.6044922,-0.35742188,0.3125,-4.0625,15.375,0.0,0.0,0.0,457
458,1695809864537,0.31835938,0.4794922,-0.33203125,-15.9375,-17.78125,31.28125,0.0,0.0,0.0,458
459,1695809864577,0.22949219,0.2890625,-0.20214844,-17.625,-36.46875,21.34375,0.0,0.0,0.0,459
460,1695809864617,0.36328125,1.1044922,-0.22753906,25.375,-76.375,27.9375,0.0,0.0,0.0,460
461,1695809864657,0.29492188,1.4384766,-0.4951172,26.1875,-44.09375,15.71875,0.0,0.0,0.0,461
462,1695809864697,0.5625,0.8564453,-0.28808594,-14.46875,11.21875,13.40625,9.125,31.8125,-145.6875,462
463,1695809864737,0.41015625,0.9423828,-0.17382812,2.625,-10.34375,15.0625,0.0,0.0,0.0,463
464,1695809864777,0.5126953,1.1044922,-0.24023438,-12.75,21.34375,6.03125,0.0,0.0,0.0,464
465,1695809864817,0.4970703,0.953125,-0.31347656,-21.65625,10.90625,-3.3125,0.0,0.0,0.0,465
466,1695809864857,0.5029297,0.7714844,-0.23144531,-26.71875,-11.9375,-1.78125,0.0,0.0,0.0,466
467,1695809864897,0.40625,0.8828125,-0.16601562,-45.34375,-10.65625,-4.65625,0.0,0.0,0.0,467
468,1695809864937,0.4345703,0.9199219,-0.1953125,-48.46875,-16.1875,-7.28125,0.0,0.0,0.0,468
469,1695809864977,0.46289062,0.8701172,-0.15917969,-52.25,-20.90625,-4.53125,0.0,0.0,0.0,469
470,1695809865017,0.44433594,0.8925781,-0.14746094,-45.96875,-28.84375,-2.03125,0.0,0.0,0.0,470
471,1695809865057,0.3984375,0.91796875,-0.13378906,-42.65625,-33.59375,-1.3125,0.0,0.0,0.0,471
472,1695809865097,0.3154297,0.8388672,-0.18945312,-33.03125,-38.78125,-4.0,0.0,0.0,0.0,472
473,1695809865137,0.34472656,0.79589844,-0.19238281,-10.5625,-34.5625,-5.9375,0.0,0.0,0.0,473
474,1695809865177,0.31640625,0.6738281,-0.33984375,-6.90625,-35.84375,-13.8125,0.0,0.0,0.0,474
475,1695809865217,0.22558594,0.8535156,-0.034179688,1.78125,-31.8125,-5.15625,7.1875,33.8125,-140.0,475
476,1695809865257,0.3720703,1.1806641,-0.20410156,-28.375,-34.25,4.96875,0.0,0.0,0.0,476
477,1695809865297,0.37597656,1.2089844,-0.15136719,-26.0625,-38.53125,-2.59375,0.0,0.0,0.0,477
478,1695809865337,0.32421875,1.0908203,-0.2421875,-6.84375,-52.5,1.9375,0.0,0.0,0.0,478
479,1695809865377,0.23828125,1.0273438,-0.20410156,0.96875,-39.03125,0.03125,0.0,0.0,0.0,479
480,1695809865417,0.2548828,0.9785156,-0.19726562,-13.1875,-44.6875,-3.8125,0.0,0.0,0.0,480
481,1695809865457,0.26953125,1.1337891,-0.22363281,4.40625,-50.3125,-1.78125,0.0,0.0,0.0,481
482,1695809865497,0.08984375,0.95703125,-0.140625,23.1875,-32.5,-9.1875,0.0,0.0,0.0,482
483,1695809865537,0.20996094,0.8183594,-0.22265625,28.8125,-12.0,-7.65625,0.0,0.0,0.0,483
484,1695809865577,0.32910156,0.5253906,-0.25390625,13.125,15.0625,14.0625,0.0,0.0,0.0,484
485,1695809865617,0.23828125,0.4091797,-0.35839844,-11.78125,-8.09375,20.5,0.0,0.0,0.0,485
486,1695809865657,0.33496094,0.22851562,-0.56152344,-11.09375,-45.5,25.125,0.0,0.0,0.0,486
487,1695809865697,0.060546875,1.4208984,-0.0009765625,93.875,-71.5625,84.375,6.875,34.375,-146.3125,487
488,1695809865737,0.060546875,0.52441406,-0.39453125,63.59375,-40.90625,14.3125,0.0,0.0,0.0,488
489,1695809865777,0.6826172,0.90527344,-0.29492188,-16.40625,41.59375,20.4375,0.0,0.0,0.0,489
490,1695809865817,0.32128906,0.8417969,-0.12792969,-27.09375,-21.9375,23.40625,0.0,0.0,0.0,490
491,1695809865857,0.54003906,1.1025391,-0.24121094,-35.71875,-12.28125,9.875,0.0,0.0,0.0,491
492,1695809865897,0.30273438,0.8886719,-0.26660156,-40.09375,-3.4375,-4.96875,0.0,0.0,0.0,492
493,1695809865937,0.41503906,0.7050781,-0.25585938,-30.8125,-9.1875,7.5625,0.0,0.0,0.0,493
494,1695809865977,0.45214844,0.80078125,-0.21484375,-24.40625,-6.625,11.9375,0.0,0.0,0.0,494
495,1695809866017,0.4267578,0.9121094,-0.25097656,-15.625,-21.875,10.78125,0.0,0.0,0.0,495
496,1695809866057,0.45410156,0.9111328,-0.15429688,-15.0625,-35.4375,15.0625,0.0,0.0,0.0,496
497,1695809866097,0.46289062,0.8955078,-0.15527344,-27.21875,-29.9375,13.96875,0.0,0.0,0.0,497
498,1695809866137,0.46972656,0.93847656,-0.21777344,-43.09375,-46.96875,6.375,0.0,0.0,0.0,498
499,1695809866177,0.45996094,0.9316406,-0.19628906,-35.34375,-37.8125,7.1875,0.0,0.0,0.0,499
500,1695809866217,0.52734375,0.8222656,-0.17382812,-39.1875,-39.34375,7.84375,8.5625,30.0625,-147.8125,500
501,1695809866257,0.37597656,0.8457031,-0.11328125,-48.53125,-48.3125,0.65625,0.0,0.0,0.0,501
502,1695809866297,0.1796875,1.0097656,-0.091796875,-45.84375,-39.34375,-12.59375,0.0,0.0,0.0,502
503,1695809866337,0.14355469,0.9033203,-0.22363281,-14.28125,-0.03125,-22.125,0.0,0.0,0.0,503
504,1695809866377,0.24902344,0.9277344,-0.041992188,37.0625,32.15625,-12.21875,0.0,0.0,0.0,504
505,1695809866417,0.53125,0.8183594,-0.24707031,28.875,26.84375,6.375,0.0,0.0,0.0,505
506,1695809866457,0.59472656,0.6357422,-0.18066406,29.71875,6.09375,12.90625,0.0,0.0,0.0,506
507,1695809866497,0.45898438,1.1279297,-0.11621094,-6.34375,-69.46875,14.0625,0.0,0.0,0.0,507
508,1695809866537,0.35351562,1.0751953,-0.4609375,10.5,-44.15625,9.1875,0.0,0.0,0.0,508
509,1695809866577,0.22851562,0.9980469,-0.24511719,31.0,-59.09375,0.34375,0.0,0.0,0.0,509
510,1695809866617,0.25976562,1.0058594,-0.234375,6.21875,-49.59375,0.28125,0.0,0.0,0.0,510
511,1695809866657,0.3515625,1.0292969,-0.22363281,15.375,-22.125,-1.3125,0.0,0.0,0.0,511
512,1695809866697,0.16601562,0.8964844,-0.3388672,18.125,-18.03125,-7.59375,6.3125,30.625,-156.0625,512
513,1695809866737,0.18847656,0.7392578,-0.3408203,22.875,8.21875,-6.0,0.0,0.0,0.0,513
514,1695809866777,0.2841797,0.6513672,-0.34277344,5.5625,18.78125,3.03125,0.0,0.0,0.0,514
515,1695809866817,0.3564453,0.5996094,-0.3642578,-11.15625,-0.9375,7.4375,0.0,0.0,0.0,515
516,1695809866857,0.31152344,0.5673828,-0.4560547,-9.78125,-21.6875,12.3125,0.0,0.0,0.0,516
517,1695809866897,0.29003906,0.9560547,-0.34570312,-7.5625,-16.4375,37.875,0.0,0.0,0.0,517
518,1695809866937,0.3515625,1.2705078,-0.19824219,-9.78125,-20.21875,21.15625,0.0,0.0,0.0,518
519,1695809866977,0.35253906,0.9091797,-0.32714844,-3.125,-2.28125,7.5,0.0,0.0,0.0,519
520,1695809867017,0.39746094,0.9375,-0.2939453,-9.78125,16.34375,15.59375,0.0,0.0,0.0,520
521,1695809867057,0.3955078,0.8623047,-0.23828125,-28.75,-10.15625,2.78125,0.0,0.0,0.0,521
522,1695809867097,0.4453125,0.8828125,-0.19726562,-22.53125,-11.875,-1.5625,0.0,0.0,0.0,522
523,1695809867137,0.359375,0.83984375,-0.24023438,-25.28125,-16.625,5.78125,0.0,0.0,0.0,523
524,1695809867177,0.35058594,0.8925781,-0.25390625,-15.75,-8.875,12.625,0.0,0.0,0.0,524
525,1695809867217,0.36132812,0.9189453,-0.20703125,-14.65625,4.6875,13.09375,7.9375,29.125,-154.875,525
526,1695809867257,0.40527344,0.9033203,-0.15820312,-18.125,-4.125,2.3125,0.0,0.0,0.0,526
527,1695809867297,0.44140625,0.9160156,-0.20898438,-7.15625,-10.21875,4.875,0.0,0.0,0.0,527
528,1695809867337,0.46289062,0.8847656,-0.18945312,-6.78125,-4.40625,2.0,0.0,0.0,0.0,528
529,1695809867377,0.4423828,0.9404297,-0.17480469,-17.53125,-6.25,1.5625,0.0,0.0,0.0,529
530,1695809867417,0.47753906,0.89746094,-0.14257812,-22.53125,-20.34375,-1.0625,0.0,0.0,0.0,530
531,1695809867457,0.39746094,0.8652344,-0.16796875,-26.1875,-22.90625,-2.84375,0.0,0.0,0.0,531
532,1695809867497,0.33496094,0.8808594,-0.21777344,-19.90625,-15.15625,1.625,0.0,0.0,0.0,532
533,1695809867537,0.39160156,1.0058594,-0.21191406,-7.8125,2.28125,3.34375,0.0,0.0,0.0,533
534,1695809867577,0.29492188,0.8857422,-0.20605469,-0.125,22.5625,-1.96875,0.0,0.0,0.0,534
535,1695809867617,0.3330078,0.76171875,-0.27246094,20.25,37.625,-10.59375,0.0,0.0,0.0,535
536,1695809867657,0.4423828,0.5205078,-0.25585938,36.0625,35.8125,-18.21875,0.0,0.0,0.0,536
537,1695809867697,0.44335938,1.046875,-0.23144531,41.875,31.40625,0.71875,8.6875,31.5625,-152.875,537
538,1695809867737,0.7216797,0.95703125,-0.2841797,24.0,6.1875,5.15625,0.0,0.0,0.0,538
539,1695809867777,0.3720703,1.0068359,-0.27734375,14.59375,-42.1875,-1.1875,0.0,0.0,0.0,539
540,1695809867817,0.27539062,0.9472656,-0.3125,18.125,-55.9375,-7.78125,0.0,0.0,0.0,540
541,1695809867857,0.30566406,1.0322266,-0.3154297,13.84375,-26.15625,-6.75,0.0,0.0,0.0,541
542,1695809867897,0.19824219,1.0947266,-0.2685547,18.875,-18.40625,-8.4375,0.0,0.0,0.0,542
543,1695809867937,0.41601562,1.0097656,-0.38476562,17.75,-8.09375,-13.4375,0.0,0.0,0.0,543
544,1695809867977,0.24414062,0.75097656,-0.31347656,24.15625,-12.59375,-7.09375,0.0,0.0,0.0,544
545,1695809868017,0.23046875,0.70410156,-0.43359375,1.21875,-4.65625,-4.0,0.0,0.0,0.0,545
546,1695809868057,0.26171875,0.5078125,-0.390625,-31.25,19.75,10.59375,0.0,0.0,0.0,546
547,1695809868097,0.31054688,0.40625,-0.3701172,-36.4375,2.53125,0.15625,0.0,0.0,0.0,547
548,1695809868137,0.34765625,0.7890625,-0.390625,-21.125,-24.0,23.90625,0.0,0.0,0.0,548
549,1695809868177,0.34570312,1.53125,-0.33398438,-13.25,-31.34375,9.75,0.0,0.0,0.0,549
550,1695809868217,0.703125,0.9091797,-0.08496094,22.53125,-15.53125,10.71875,6.4375,29.125,-158.75,550
551,1695809868257,0.31933594,0.8330078,-0.2763672,-26.375,-30.46875,17.25,0.0,0.0,0.0,551
552,1695809868297,0.50683594,0.9941406,-0.15527344,-26.0,-28.09375,18.46875,0.0,0.0,0.0,552
553,1695809868337,0.36816406,1.0136719,-0.18847656,-36.375,-25.28125,9.3125,0.0,0.0,0.0,553
554,1695809868377,0.37402344,0.89746094,-0.25683594,-35.71875,-21.03125,5.90625,0.0,0.0,0.0,554
555,1695809868417,0.421875,0.90234375,-0.22363281,-37.65625,-16.0625,5.40625,0.0,0.0,0.0,555
556,1695809868457,0.45703125,0.9873047,-0.17773438,-41.03125,-9.4375,4.1875,0.0,0.0,0.0,556
557,1695809868497,0.41015625,0.96875,-0.16699219,-35.71875,-12.71875,-0.75,0.0,0.0,0.0,557
558,1695809868537,0.3515625,0.8808594,-0.19628906,-20.9375,-5.03125,1.625,0.0,0.0,0.0,558
559,1695809868577,0.39746094,0.828125,-0.21191406,-13.625,7.1875,0.28125,0.0,0.0,0.0,559
560,1695809868617,0.3671875,0.7480469,-0.17382812,-2.375,12.125,0.15625,0.0,0.0,0.0,560
561,1695809868657,0.3203125,0.69921875,-0.20410156,15.125,2.59375,1.6875,0.0,0.0,0.0,561
562,1695809868697,0.3232422,0.6484375,-0.234375,33.875,8.28125,0.03125,6.3125,33.1875,-156.0625,562
563,1695809868737,0.35546875,0.9785156,-0.3564453,33.25,-15.96875,6.6875,0.0,0.0,0.0,563
564,1695809868777,0.51171875,1.1123047,-0.28808594,40.09375,-31.59375,5.59375,0.0,0.0,0.0,564
565,1695809868817,0.30859375,1.0537109,-0.17675781,3.40625,-48.90625,1.1875,0.0,0.0,0.0,565
566,1695809868857,0.37109375,1.1699219,-0.34765625,-7.15625,-50.5625,-3.8125,0.0,0.0,0.0,566
567,1695809868897,0.2783203,1.2226562,-0.37304688,24.0625,-29.5,0.09375,0.0,0.0,0.0,567
568,1695809868937,0.21386719,1.0380859,-0.29003906,27.21875,-22.65625,-2.84375,0.0,0.0,0.0,568
569,1695809868977,0.27734375,0.7939453,-0.3388672,30.8125,1.25,-2.46875,0.0,0.0,0.0,569
570,1695809869017,0.29003906,0.58496094,-0.33984375,4.6875,-2.34375,2.53125,0.0,0.0,0.0,570
571,1695809869057,0.26757812,0.29589844,-0.41308594,-26.6875,-6.8125,11.34375,0.0,0.0,0.0,571
572,1695809869097,0.4033203,0.25976562,-0.18457031,-40.65625,-4.59375,8.28125,0.0,0.0,0.0,572
573,1695809869137,0.3408203,0.7998047,-0.29785156,-39.25,-39.625,39.90625,0.0,0.0,0.0,573
574,1695809869177,0.5214844,1.8310547,-0.40234375,1.84375,-102.0,17.625,0.0,0.0,0.0,574
575,1695809869217,0.36328125,0.9169922,-0.15722656,5.6875,-12.90625,15.375,2.125,28.8125,-164.75,575
576,1695809869257,0.3154297,1.0253906,-0.22265625,-17.59375,-15.59375,10.40625,0.0,0.0,0.0,576
577,1695809869297,0.41503906,1.0751953,-0.18847656,-26.25,5.40625,8.46875,0.0,0.0,0.0,577
578,1695809869337,0.5175781,0.92285156,-0.3466797,-16.1875,24.15625,-2.84375,0.0,0.0,0.0,578
579,1695809869377,0.52734375,0.73046875,-0.2861328,-22.03125,15.40625,-1.4375,0.0,0.0,0.0,579
580,1695809869417,0.53027344,0.7861328,-0.22363281,-31.5625,-3.0,0.65625,0.0,0.0,0.0,580
581,1695809869457,0.4453125,0.99609375,-0.19726562,-39.71875,-20.71875,0.78125,0.0,0.0,0.0,581
582,1695809869497,0.390625,0.95214844,-0.19335938,-32.46875,-14.3125,-1.4375,0.0,0.0,0.0,582
583,1695809869537,0.35742188,0.8964844,-0.1796875,-32.40625,-4.1875,-2.53125,0.0,0.0,0.0,583
584,1695809869577,0.38476562,0.9277344,-0.19042969,-35.21875,3.75,-2.65625,0.0,0.0,0.0,584
585,1695809869617,0.3388672,0.9482422,-0.12695312,-38.5625,19.09375,-2.28125,0.0,0.0,0.0,585
586,1695809869657,0.2763672,0.9160156,-0.11230469,-30.21875,23.15625,-12.40625,0.0,0.0,0.0,586
587,1695809869697,0.20019531,0.8691406,-0.08886719,-14.78125,42.9375,-18.03125,4.9375,34.25,-157.125,587
588,1695809869737,0.16308594,0.7685547,-0.13964844,16.125,73.34375,-13.75,0.0,0.0,0.0,588
589,1695809869777,0.29882812,0.8457031,-0.068359375,47.96875,89.8125,0.03125,0.0,0.0,0.0,589
590,1695809869817,0.7607422,0.95410156,-0.09863281,35.21875,61.375,12.25,0.0,0.0,0.0,590
591,1695809869857,0.5214844,1.1005859,-0.2685547,11.71875,-19.8125,8.78125,0.0,0.0,0.0,591
592,1695809869897,0.54785156,0.97558594,-0.30566406,-4.03125,-58.8125,-13.15625,0.0,0.0,0.0,592
593,1695809869937,0.07128906,0.9638672,-0.2607422,11.40625,-45.0625,-8.875,0.0,0.0,0.0,593
594,1695809869977,0.18164062,1.1738281,-0.19921875,31.75,-21.9375,-15.46875,0.0,0.0,0.0,594
595,1695809870017,0.296875,1.0166016,-0.21777344,39.96875,12.125,-10.53125,0.0,0.0,0.0,595
596,1695809870057,0.43359375,0.73046875,-0.28027344,25.375,12.4375,-11.5625,0.0,0.0,0.0,596
597,1695809870097,0.4814453,0.57910156,-0.30078125,6.65625,-9.96875,-2.78125,0.0,0.0,0.0,597
598,1695809870137,0.26367188,0.30273438,-0.26171875,-4.875,-24.5,4.96875,0.0,0.0,0.0,598
599,1695809870177,0.15332031,0.3642578,-0.22265625,-8.84375,-42.375,12.90625,0.0,0.0,0.0,599
600,1695809870217,0.6816406,2.0136719,-0.3095703,52.1875,-79.125,11.09375,4.5,31.0625,-161.3125,600
601,1695809870257,0.2734375,0.8857422,0.072265625,20.5,-15.90625,-1.25,0.0,0.0,0.0,601
602,1695809870297,0.27734375,1.1083984,-0.17871094,-24.59375,-21.75,2.90625,0.0,0.0,0.0,602
603,1695809870337,0.42773438,1.0429688,-0.083984375,-22.71875,-16.8125,2.46875,0.0,0.0,0.0,603
604,1695809870377,0.39453125,0.93847656,-0.21679688,-45.21875,6.9375,-0.6875,0.0,0.0,0.0,604
605,1695809870417,0.28808594,0.7373047,-0.23632812,-46.8125,4.75,3.46875,0.0,0.0,0.0,605
606,1695809870457,0.2890625,0.7324219,-0.22070312,-42.46875,-1.5625,-7.71875,0.0,0.0,0.0,606
607,1695809870497,0.25097656,0.88964844,-0.31347656,-8.59375,16.875,-15.59375,0.0,0.0,0.0,607
608,1695809870537,0.1875,1.2255859,-0.15429688,38.34375,33.1875,2.3125,0.0,0.0,0.0,608
609,1695809870577,0.51171875,0.76464844,-0.18457031,22.34375,27.5625,8.9375,0.0,0.0,0.0,609
610,1695809870617,0.2626953,0.89160156,-0.19824219,20.4375,19.5,3.21875,0.0,0.0,0.0,610
611,1695809870657,0.35839844,0.8955078,-0.23046875,6.53125,5.59375,2.34375,0.0,0.0,0.0,611
612,1695809870697,0.31054688,0.96972656,-0.31640625,-3.78125,-12.78125,-3.125,4.1875,33.1875,-160.25,612
613,1695809870737,0.2548828,0.9980469,-0.2607422,-5.75,8.09375,-2.71875,0.0,0.0,0.0,613
614,1695809870777,0.22851562,0.8154297,-0.125,-15.5625,8.28125,-4.46875,0.0,0.0,0.0,614
615,1695809870817,0.24902344,0.89453125,-0.19433594,-30.9375,17.375,-6.25,0.0,0.0,0.0,615
616,1695809870857,0.23925781,1.046875,-0.20605469,-8.125,11.9375,2.40625,0.0,0.0,0.0,616
617,1695809870897,0.21777344,1.1279297,-0.20117188,19.96875,7.0,6.5625,0.0,0.0,0.0,617
618,1695809870937,0.27539062,0.92089844,-0.14550781,38.5625,-3.3125,0.28125,0.0,0.0,0.0,618
619,1695809870977,0.31445312,1.0546875,-0.119140625,36.3125,-27.0,-6.90625,0.0,0.0,0.0,619
620,1695809871017,0.28515625,1.1083984,-0.26953125,55.90625,-16.25,-4.0,0.0,0.0,0.0,620
621,1695809871057,0.33496094,0.7861328,-0.32226562,32.15625,-8.9375,-22.46875,0.0,0.0,0.0,621
622,1695809871097,0.37695312,0.3935547,-0.4375,5.125,34.65625,4.5625,0.0,0.0,0.0,622
623,1695809871137,0.0126953125,0.2578125,-0.40625,-13.71875,29.28125,10.84375,0.0,0.0,0.0,623
624,1695809871177,-0.046875,0.8486328,-0.27929688,11.28125,-19.125,7.96875,0.0,0.0,0.0,624
625,1695809871217,0.8251953,1.7607422,-0.20605469,69.40625,-37.125,-7.90625,2.5625,34.0625,-163.5625,625
626,1695809871257,0.47070312,0.8955078,-0.022460938,35.59375,89.5,10.53125,0.0,0.0,0.0,626
627,1695809871297,0.61816406,0.92578125,-0.4794922,-11.84375,12.5625,2.71875,0.0,0.0,0.0,627
628,1695809871337,0.33789062,0.9003906,-0.08691406,-2.8125,5.65625,15.59375,0.0,0.0,0.0,628
629,1695809871377,0.48535156,0.9736328,-0.19433594,-24.96875,27.0,-1.90625,0.0,0.0,0.0,629
630,1695809871417,0.4794922,0.92871094,-0.21777344,-27.46875,-12.96875,-5.09375,0.0,0.0,0.0,630
631,1695809871457,0.41015625,0.88671875,-0.15429688,-37.0,-30.25,-2.59375,0.0,0.0,0.0,631
632,1695809871497,0.453125,0.89453125,-0.23242188,-39.5,-17.0625,2.25,0.0,0.0,0.0,632
633,1695809871537,0.421875,0.8798828,-0.14941406,-42.40625,-20.90625,4.375,0.0,0.0,0.0,633
634,1695809871577,0.40820312,0.88964844,-0.14160156,-44.9375,-21.6875,4.1875,0.0,0.0,0.0,634
635,1695809871617,0.37109375,0.8300781,-0.11425781,-36.875,-21.3125,3.46875,0.0,0.0,0.0,635
636,1695809871657,0.24707031,0.8183594,-0.25,-24.78125,-20.15625,-0.75,0.0,0.0,0.0,636
637,1695809871697,0.22363281,0.7871094,-0.27441406,3.46875,3.28125,-6.5625,2.5625,33.0625,-160.125,637
638,1695809871737,0.22753906,0.6972656,-0.09375,30.28125,20.1875,-10.09375,0.0,0.0,0.0,638
639,1695809871777,0.0703125,1.2216797,-0.18554688,51.5625,13.90625,9.9375,0.0,0.0,0.0,639
640,1695809871817,0.5283203,1.0195312,-0.20410156,31.3125,28.65625,2.78125,0.0,0.0,0.0,640
641,1695809871857,0.52734375,0.92871094,-0.18359375,-9.71875,-4.96875,-7.03125,0.0,0.0,0.0,641
642,1695809871897,0.3876953,1.0380859,-0.2529297,-22.46875,-44.9375,-6.625,0.0,0.0,0.0,642
643,1695809871937,0.296875,1.0722656,-0.29589844,-23.125,-39.6875,-8.1875,0.0,0.0,0.0,643
644,1695809871977,0.2626953,1.0283203,-0.26757812,-15.375,-30.34375,-6.1875,0.0,0.0,0.0,644
645,1695809872017,0.24121094,0.8730469,-0.16601562,-10.125,-27.5625,-9.1875,0.0,0.0,0.0,645
646,1695809872057,0.26660156,0.99902344,-0.23339844,-0.375,-35.96875,-11.3125,0.0,0.0,0.0,646
647,1695809872097,0.2265625,0.9921875,-0.234375,21.53125,-26.21875,-7.09375,0.0,0.0,0.0,647
648,1695809872137,0.24707031,0.8564453,-0.27539062,30.40625,0.59375,-0.4375,0.0,0.0,0.0,648
649,1695809872177,0.26660156,0.7636719,-0.32714844,19.71875,8.53125,9.4375,0.0,0.0,0.0,649
650,1695809872217,0.3330078,0.6425781,-0.3203125,6.96875,4.4375,15.78125,-2.6875,30.0625,-163.6875,650
651,1695809872257,0.36816406,0.5527344,-0.42089844,-2.125,-15.28125,14.4375,0.0,0.0,0.0,651
652,1695809872297,0.5048828,0.2578125,-0.45507812,-23.0625,-43.84375,26.96875,0.0,0.0,0.0,652
653,1695809872337,0.23339844,0.7675781,-0.09375,-17.09375,-75.78125,48.3125,0.0,0.0,0.0,653
654,1695809872377,0.39160156,2.0136719,-0.30859375,19.53125,-121.65625,10.0625,0.0,0.0,0.0,654
655,1695809872417,0.35742188,0.70703125,-0.10449219,13.1875,31.21875,17.125,0.0,0.0,0.0,655
656,1695809872457,0.28320312,0.88964844,-0.119140625,-14.34375,17.3125,4.5,0.0,0.0,0.0,656
657,1695809872497,0.43652344,1.0673828,-0.14941406,-27.40625,17.625,13.28125,0.0,0.0,0.0,657
658,1695809872537,0.453125,0.8857422,-0.25585938,-29.0625,16.75,-9.3125,0.0,0.0,0.0,658
659,1695809872577,0.4580078,0.78808594,-0.21972656,-9.59375,7.375,0.34375,0.0,0.0,0.0,659
660,1695809872617,0.4296875,0.8339844,-0.1875,-18.625,-4.0,6.15625,0.0,0.0,0.0,660
661,1695809872657,0.4326172,0.9453125,-0.19140625,-28.375,-12.15625,-0.9375,0.0,0.0,0.0,661
662,1695809872697,0.41015625,0.92871094,-0.15332031,-21.3125,-27.5625,-4.125,-2.875,29.75,-162.5,662
663,1695809872737,0.41992188,0.8847656,-0.16503906,-25.75,-21.8125,-2.46875,0.0,0.0,0.0,663
664,1695809872777,0.43359375,0.9160156,-0.19824219,-20.5,-27.71875,-1.90625,0.0,0.0,0.0,664
665,1695809872817,0.43164062,0.9375,-0.087890625,-28.125,-27.6875,-4.28125,0.0,0.0,0.0,665
666,1695809872857,0.3623047,0.9453125,-0.09472656,-37.65625,-38.34375,-6.0625,0.0,0.0,0.0,666
667,1695809872897,0.34375,1.0097656,-0.068359375,-33.8125,-32.375,-5.5,0.0,0.0,0.0,667
668,1695809872937,0.3798828,0.9248047,-0.08496094,-29.84375,-29.125,-7.15625,0.0,0.0,0.0,668
669,1695809872977,0.37304688,0.8691406,-0.11035156,-20.5625,-19.90625,-3.875,0.0,0.0,0.0,669
670,1695809873017,0.3154297,0.7216797,-0.28320312,-17.15625,-11.375,1.25,0.0,0.0,0.0,670
671,1695809873057,0.3125,0.66796875,-0.24121094,3.90625,13.09375,2.96875,0.0,0.0,0.0,671
672,1695809873097,0.14355469,0.8808594,-0.09863281,24.46875,14.875,6.6875,0.0,0.0,0.0,672
673,1695809873137,0.40625,1.1230469,-0.35058594,2.375,26.03125,9.625,0.0,0.0,0.0,673
674,1695809873177,0.38867188,1.0615234,-0.15039062,30.46875,0.71875,1.0625,0.0,0.0,0.0,674
675,1695809873217,0.37304688,1.0253906,-0.1875,3.96875,-9.59375,-8.3125,-5.5625,31.375,-160.25,675
676,1695809873257,0.328125,1.0849609,-0.22753906,4.15625,-21.75,-6.84375,0.0,0.0,0.0,676
677,1695809873297,0.2861328,1.1113281,-0.20996094,0.5,-49.09375,-8.5,0.0,0.0,0.0,677
678,1695809873337,0.2548828,1.0517578,-0.2529297,21.46875,-11.625,-0.5,0.0,0.0,0.0,678
679,1695809873377,0.25195312,0.8779297,-0.22265625,15.875,-15.90625,0.15625,0.0,0.0,0.0,679
680,1695809873417,0.25,0.79296875,-0.3125,22.21875,-1.125,12.125,0.0,0.0,0.0,680
681,1695809873457,0.26953125,0.75878906,-0.28320312,19.21875,11.5,18.59375,0.0,0.0,0.0,681
682,1695809873497,0.3486328,0.63183594,-0.29589844,12.6875,-6.1875,16.53125,0.0,0.0,0.0,682
683,1695809873537,0.46777344,0.4814453,-0.33984375,-1.65625,-36.15625,11.9375,0.0,0.0,0.0,683
684,1695809873577,0.31152344,0.296875,-0.26953125,-15.8125,-37.125,21.84375,0.0,0.0,0.0,684
685,1695809873617,0.28222656,1.5273438,-0.10253906,15.125,-63.75,56.9375,0.0,0.0,0.0,685
686,1695809873657,0.033203125,1.0917969,-0.12890625,14.09375,-19.8125,13.78125,0.0,0.0,0.0,686
687,1695809873697,0.28222656,0.89453125,-0.36621094,22.09375,-22.65625,-20.84375,-7.9375,28.8125,-165.5,687
688,1695809873737,0.47070312,0.7841797,-0.049804688,8.59375,52.71875,13.40625,0.0,0.0,0.0,688
689,1695809873777,0.61621094,1.1230469,-0.111328125,-47.65625,6.375,-9.96875,0.0,0.0,0.0,689
690,1695809873817,0.3642578,0.9736328,-0.25,-40.90625,-54.03125,-24.5625,0.0,0.0,0.0,690
691,1695809873857,0.38378906,0.78222656,-0.21582031,-41.4375,-20.65625,-2.34375,0.0,0.0,0.0,691
692,1695809873897,0.43359375,0.90625,-0.16503906,-41.625,-4.96875,2.71875,0.0,0.0,0.0,692
693,1695809873937,0.4404297,0.88183594,-0.18847656,-53.78125,-50.4375,-3.1875,0.0,0.0,0.0,693
694,1695809873977,0.4423828,0.828125,-0.09765625,-53.34375,-47.09375,2.71875,0.0,0.0,0.0,694
695,1695809874017,0.38964844,0.91796875,-0.0048828125,-47.65625,-61.96875,6.03125,0.0,0.0,0.0,695
696,1695809874057,0.18066406,0.9248047,-0.0859375,-42.65625,-49.78125,3.21875,0.0,0.0,0.0,696
697,1695809874097,0.17480469,0.88671875,-0.17480469,-31.625,-14.4375,0.96875,0.0,0.0,0.0,697
698,1695809874137,0.19140625,0.8154297,-0.14941406,0.3125,-2.9375,-2.40625,0.0,0.0,0.0,698
699,1695809874177,0.16113281,0.7451172,-0.107421875,24.53125,27.75,6.03125,0.0,0.0,0.0,699
700,1695809874217,0.4873047,1.359375,-0.040039062,21.0,25.625,2.1875,-11.25,36.0625,-157.125,700
701,1695809874257,0.33496094,1.0458984,-0.029296875,1.71875,4.5,-3.5,0.0,0.0,0.0,701
702,1695809874297,0.2626953,0.92089844,-0.21875,-14.03125,-0.375,-11.375,0.0,0.0,0.0,702
703,1695809874337,0.31445312,0.859375,-0.1484375,-3.25,-4.53125,-20.40625,0.0,0.0,0.0,703
704,1695809874377,0.22363281,0.93066406,-0.15722656,-14.59375,-2.53125,-15.78125,0.0,0.0,0.0,704
705,1695809874417,0.26464844,0.9091797,-0.14160156,-22.34375,-4.25,-9.96875,0.0,0.0,0.0,705
706,1695809874457,0.21777344,0.94921875,-0.16308594,-29.84375,-10.875,-3.0625,0.0,0.0,0.0,706
707,1695809874497,0.19726562,1.1376953,-0.20703125,-16.96875,-14.375,1.0625,0.0,0.0,0.0,707
708,1695809874537,0.2109375,1.1621094,-0.16601562,27.09375,-15.90625,7.84375,0.0,0.0,0.0,708
709,1695809874577,0.08203125,1.0390625,-0.013671875,49.5,-10.9375,0.78125,0.0,0.0,0.0,709
710,1695809874617,0.31347656,1.2353516,-0.14648438,59.15625,-32.96875,-8.625,0.0,0.0,0.0,710
711,1695809874657,0.16699219,0.96777344,-0.29785156,65.4375,7.3125,-10.09375,0.0,0.0,0.0,711
712,1695809874697,0.34277344,0.5361328,-0.41210938,40.46875,55.59375,-5.6875,-14.125,33.1875,-158.875,712
713,1695809874737,0.5058594,0.25390625,-0.47070312,16.53125,57.21875,18.15625,0.0,0.0,0.0,713
714,1695809874777,0.38378906,0.27539062,-0.29589844,-6.96875,-26.34375,-0.375,0.0,0.0,0.0,714
715,1695809874817,0.40722656,1.6787109,-0.25585938,46.8125,-115.6875,43.875,0.0,0.0,0.0,715
716,1695809874857,0.2626953,0.84472656,-0.3173828,47.1875,-12.65625,5.40625,0.0,0.0,0.0,716
717,1695809874897,0.33496094,0.99609375,-0.14453125,-9.9375,-7.84375,-0.21875,0.0,0.0,0.0,717
718,1695809874937,0.2998047,1.0654297,-0.20410156,0.96875,4.4375,7.90625,0.0,0.0,0.0,718
719,1695809874977,0.40527344,0.9580078,-0.23046875,-13.0,28.65625,-1.0625,0.0,0.0,0.0,719
720,1695809875017,0.40429688,0.8808594,-0.25,-13.84375,9.0,-4.28125,0.0,0.0,0.0,720
721,1695809875057,0.35546875,0.94140625,-0.17871094,-35.28125,-11.9375,-4.0625,0.0,0.0,0.0,721
722,1695809875097,0.42382812,1.0625,-0.16015625,-55.125,-14.65625,3.34375,0.0,0.0,0.0,722
723,1695809875137,0.44433594,0.9238281,-0.24707031,-44.75,-19.3125,9.375,0.0,0.0,0.0,723
724,1695809875177,0.22070312,0.765625,-0.25390625,-23.375,6.875,22.375,0.0,0.0,0.0,724
725,1695809875217,0.07421875,0.7373047,-0.33203125,1.90625,33.0,14.25,-13.8125,34.25,-157.875,725
726,1695809875257,0.1875,0.671875,-0.23925781,74.09375,35.1875,2.0,0.0,0.0,0.0,726
727,1695809875297,0.32226562,1.0234375,-0.07324219,50.0,19.03125,20.90625,0.0,0.0,0.0,727
728,1695809875337,0.59472656,1.1103516,-0.2265625,23.9375,-22.3125,-6.375,0.0,0.0,0.0,728
729,1695809875377,0.3251953,1.1123047,-0.34277344,7.375,-20.15625,-3.3125,0.0,0.0,0.0,729
730,1695809875417,0.21875,1.0673828,-0.36914062,2.5,-18.5625,-5.5,0.0,0.0,0.0,730
731,1695809875457,0.22753906,1.0351562,-0.2939453,12.6875,-3.3125,-10.65625,0.0,0.0,0.0,731
732,1695809875497,0.30664062,0.8642578,-0.2861328,13.625,16.75,-6.96875,0.0,0.0,0.0,732
733,1695809875537,0.24121094,0.65625,-0.33496094,1.34375,15.53125,-0.8125,0.0,0.0,0.0,733
734,1695809875577,0.32714844,0.37597656,-0.296875,-18.4375,11.03125,-5.09375,0.0,0.0,0.0,734
735,1695809875617,0.15234375,0.32128906,-0.33691406,-7.875,-12.09375,1.3125,0.0,0.0,0.0,735
736,1695809875657,0.5449219,1.796875,-0.34960938,68.71875,-68.1875,53.9375,0.0,0.0,0.0,736
737,1695809875697,0.17871094,0.8251953,-0.19238281,28.8125,16.53125,9.1875,-12.625,31.375,-162.625,737
738,1695809875737,0.41210938,0.8574219,-0.390625,-5.0,3.5625,-6.0,0.0,0.0,0.0,738
739,1695809875777,0.46875,1.0585938,-0.12988281,2.25,17.375,8.65625,0.0,0.0,0.0,739
740,1695809875817,0.43066406,0.9863281,-0.17578125,-20.3125,23.40625,-9.0625,0.0,0.0,0.0,740
741,1695809875857,0.40234375,0.8720703,-0.2841797,-8.375,12.125,-16.125,0.0,0.0,0.0,741
742,1695809875897,0.4892578,0.79003906,-0.23535156,-15.25,12.125,-5.5625,0.0,0.0,0.0,742
743,1695809875937,0.40429688,0.828125,-0.19726562,-22.34375,6.8125,-1.65625,0.0,0.0,0.0,743
744,1695809875977,0.40527344,0.98046875,-0.16992188,-24.90625,-16.875,-4.34375,0.0,0.0,0.0,744
745,1695809876017,0.4140625,0.8876953,-0.22167969,-23.8125,-16.875,1.25,0.0,0.0,0.0,745
746,1695809876057,0.3408203,0.93359375,-0.12988281,-21.71875,-8.25,0.59375,0.0,0.0,0.0,746
747,1695809876097,0.29101562,0.95214844,-0.16503906,-21.90625,-7.28125,-1.5,0.0,0.0,0.0,747
748,1695809876137,0.38378906,0.9248047,-0.12109375,-12.03125,-5.53125,-3.6875,0.0,0.0,0.0,748
749,1695809876177,0.3701172,0.8779297,-0.1171875,-10.1875,-2.90625,-1.25,0.0,0.0,0.0,749
750,1695809876217,0.24707031,0.81347656,-0.09277344,-9.59375,9.8125,5.03125,-11.125,33.3125,-159.375,750
751,1695809876257,0.49316406,0.7363281,-0.11621094,-3.84375,18.59375,-11.875,0.0,0.0,0.0,751
752,1695809876297,0.109375,0.6455078,-0.22363281,-8.90625,31.84375,-15.84375,0.0,0.0,0.0,752
753,1695809876337,0.33203125,1.2988281,-0.26367188,15.8125,23.59375,-2.28125,0.0,0.0,0.0,753
754,1695809876377,0.6826172,1.1640625,-0.3125,11.65625,12.25,-7.09375,0.0,0.0,0.0,754
755,1695809876417,0.36035156,1.0195312,-0.3798828,-3.59375,-25.40625,-2.21875,0.0,0.0,0.0,755
756,1695809876457,0.2548828,0.8671875,-0.33203125,-2.5625,-20.90625,-3.25,0.0,0.0,0.0,756
757,1695809876497,0.3232422,0.9248047,-0.27148438,-16.46875,-46.03125,-6.25,0.0,0.0,0.0,757
758,1695809876537,0.16210938,0.9375,-0.19726562,-13.375,-46.78125,-4.40625,0.0,0.0,0.0,758
759,1695809876577,0.21484375,0.93652344,-0.21582031,-10.875,-25.53125,-2.34375,0.0,0.0,0.0,759
