,timestamp,accel_x,accel_y,accel_z,gyro_x,gyro_y,gyro_z,mag_x,mag_y,mag_z,ind
0,1696168219343,-1.328125,0.00390625,-0.016601562,-6.25,-12.59375,-8.625,0.0,0.0,0.0,0
1,1696168219383,-1.2841797,0.08300781,0.026367188,3.28125,-35.34375,-10.5625,0.0,0.0,0.0,1
2,1696168219423,-1.1884766,0.095703125,0.2607422,-29.75,-73.6875,-25.21875,0.0,0.0,0.0,2
3,1696168219463,-1.1318359,0.01171875,-0.018554688,-83.09375,-72.21875,-54.03125,0.0,0.0,0.0,3
4,1696168219503,-1.0175781,-0.2861328,0.015625,-84.0625,-20.71875,-68.375,0.0,0.0,0.0,4
5,1696168219543,-1.2001953,-0.20703125,0.30664062,-25.28125,-35.59375,-89.75,0.0,0.0,0.0,5
6,1696168219583,-1.4082031,0.0546875,0.3076172,2.3125,-53.0,-108.65625,-43.1875,-9.4375,-90.5,6
7,1696168219623,-1.0830078,0.17578125,-0.05078125,13.90625,-96.875,-105.90625,0.0,0.0,0.0,7
8,1696168219663,-0.8417969,-0.055664062,0.15820312,-79.84375,-72.03125,-126.90625,0.0,0.0,0.0,8
9,1696168219703,-0.6035156,-0.29296875,0.22363281,-48.71875,-35.96875,-102.5,0.0,0.0,0.0,9
10,1696168219743,-0.60546875,-0.5332031,0.06933594,7.96875,-25.96875,-79.78125,0.0,0.0,0.0,10
11,1696168219783,-0.5205078,-0.26367188,0.12890625,30.5,-29.75,-52.4375,0.0,0.0,0.0,11
12,1696168219823,-0.39648438,-0.203125,0.09082031,28.90625,-9.65625,-19.84375,0.0,0.0,0.0,12
13,1696168219863,-0.47265625,-0.40625,0.23144531,7.375,36.125,-3.0625,0.0,0.0,0.0,13
14,1696168219903,-0.71484375,-0.5732422,0.16308594,10.84375,47.15625,6.875,0.0,0.0,0.0,14
15,1696168219943,-0.6669922,-0.76464844,0.52246094,47.96875,33.6875,-5.9375,0.0,0.0,0.0,15
16,1696168219983,-0.8798828,-0.20410156,0.22363281,-9.53125,55.34375,24.875,0.0,0.0,0.0,16
17,1696168220023,-1.6943359,-0.65722656,0.47265625,19.03125,91.21875,26.34375,0.0,0.0,0.0,17
18,1696168220063,-0.73339844,-0.43945312,0.09765625,47.09375,43.5,8.21875,0.0,0.0,0.0,18
19,1696168220103,-1.1855469,-0.1796875,0.14648438,13.03125,42.40625,57.0625,-33.625,-18.4375,-86.4375,19
20,1696168220143,-1.1289062,-0.049804688,-0.01171875,-24.78125,57.25,63.03125,0.0,0.0,0.0,20
21,1696168220183,-1.2519531,-0.25,-0.06738281,-22.71875,50.8125,53.625,0.0,0.0,0.0,21
22,1696168220223,-1.1630859,-0.32226562,-0.06933594,-23.28125,46.1875,46.90625,0.0,0.0,0.0,22
23,1696168220263,-1.03125,-0.13574219,-0.1328125,-30.34375,40.21875,54.125,0.0,0.0,0.0,23
24,1696168220303,-1.1396484,-0.0703125,-0.13183594,-15.625,35.8125,66.625,0.0,0.0,0.0,24
25,1696168220343,-1.0986328,-0.18945312,-0.14746094,-15.34375,16.34375,63.78125,0.0,0.0,0.0,25
26,1696168220383,-1.0791016,-0.13574219,-0.16210938,-8.5625,10.78125,61.625,0.0,0.0,0.0,26
27,1696168220423,-0.953125,-0.17382812,-0.13378906,11.28125,4.5625,61.875,0.0,0.0,0.0,27
28,1696168220463,-0.87597656,-0.16992188,-0.109375,42.09375,-7.9375,47.96875,0.0,0.0,0.0,28
29,1696168220503,-0.81347656,-0.12207031,-0.08691406,36.125,-6.90625,34.40625,0.0,0.0,0.0,29
30,1696168220543,-0.8154297,-0.05078125,-0.06640625,36.0625,6.03125,34.53125,0.0,0.0,0.0,30
31,1696168220583,-0.8232422,-0.11230469,-0.0029296875,13.53125,14.09375,31.96875,-45.125,-2.0625,-95.125,31
32,1696168220623,-0.9199219,-0.13378906,-0.036132812,-1.90625,17.8125,21.84375,0.0,0.0,0.0,32
33,1696168220663,-0.9033203,-0.13867188,-0.0703125,-1.3125,9.09375,21.46875,0.0,0.0,0.0,33
34,1696168220703,-0.93652344,-0.14257812,-0.07421875,-19.71875,18.71875,6.34375,0.0,0.0,0.0,34
35,1696168220743,-1.2558594,-0.029296875,-0.12988281,2.3125,55.59375,20.4375,0.0,0.0,0.0,35
36,1696168220783,-1.0527344,0.07128906,-0.2939453,2.5,13.84375,15.71875,0.0,0.0,0.0,36
37,1696168220823,-0.9970703,0.17675781,-0.068359375,17.625,28.0625,22.375,0.0,0.0,0.0,37
38,1696168220863,-1.2060547,-0.024414062,-0.13671875,17.75,25.5,11.9375,0.0,0.0,0.0,38
39,1696168220903,-1.3007812,0.390625,-0.15625,-4.03125,-6.96875,5.59375,0.0,0.0,0.0,39
40,1696168220943,-1.0117188,0.091796875,-0.15332031,-9.90625,-23.75,-2.6875,0.0,0.0,0.0,40
41,1696168220983,-1.0039062,-0.03125,-0.028320312,-23.28125,-43.71875,-30.15625,0.0,0.0,0.0,41
42,1696168221023,-1.2958984,0.016601562,-0.0048828125,-51.28125,-57.09375,-57.625,0.0,0.0,0.0,42
43,1696168221063,-1.1396484,-0.14453125,0.033203125,-42.0625,-58.59375,-65.625,0.0,0.0,0.0,43
44,1696168221103,-1.0546875,-0.24316406,0.07519531,-16.875,-63.4375,-83.03125,-45.625,-2.1875,-93.5,44
45,1696168221143,-1.1337891,-0.060546875,0.072265625,-43.90625,-44.875,-114.8125,0.0,0.0,0.0,45
46,1696168221183,-1.3818359,0.14160156,-0.06738281,14.3125,-62.28125,-102.875,0.0,0.0,0.0,46
47,1696168221223,-1.2373047,-0.036132812,0.041015625,-23.6875,-96.21875,-114.59375,0.0,0.0,0.0,47
48,1696168221263,-0.9345703,-0.20703125,0.09082031,-50.5625,-51.15625,-110.6875,0.0,0.0,0.0,48
49,1696168221303,-0.7753906,-0.328125,0.15332031,-35.15625,-45.25,-111.59375,0.0,0.0,0.0,49
50,1696168221343,-0.65722656,-0.22851562,0.087890625,6.625,-47.1875,-84.71875,0.0,0.0,0.0,50
51,1696168221383,-0.59765625,-0.20117188,0.1015625,15.625,-40.71875,-57.21875,0.0,0.0,0.0,51
52,1696168221423,-0.43847656,-0.24316406,0.14453125,14.09375,-9.71875,-26.9375,0.0,0.0,0.0,52
53,1696168221463,-0.47460938,-0.37109375,0.1953125,10.40625,-1.25,3.90625,0.0,0.0,0.0,53
54,1696168221503,-0.5341797,-0.50390625,0.052734375,-0.25,30.875,3.21875,0.0,0.0,0.0,54
55,1696168221543,-0.40429688,-0.4658203,0.20996094,9.25,36.71875,15.3125,0.0,0.0,0.0,55
56,1696168221583,-1.1328125,-0.78808594,0.08984375,-8.6875,42.71875,10.71875,-29.875,-22.9375,-85.5625,56
57,1696168221623,-1.5390625,-0.62597656,0.3857422,22.1875,31.40625,32.8125,0.0,0.0,0.0,57
58,1696168221663,-0.61035156,-0.2998047,0.068359375,16.84375,32.53125,14.625,0.0,0.0,0.0,58
59,1696168221703,-1.0722656,-0.56152344,0.13574219,-7.9375,73.09375,66.09375,0.0,0.0,0.0,59
60,1696168221743,-1.2080078,-0.4345703,0.08203125,0.28125,49.96875,49.25,0.0,0.0,0.0,60
61,1696168221783,-0.79589844,-0.01953125,0.0078125,-9.90625,55.03125,43.5,0.0,0.0,0.0,61
62,1696168221823,-1.0253906,-0.26464844,0.034179688,-21.5,50.8125,55.40625,0.0,0.0,0.0,62
63,1696168221863,-1.0566406,-0.28808594,-0.087890625,-19.84375,31.1875,36.0,0.0,0.0,0.0,63
64,1696168221903,-0.88671875,-0.001953125,-0.111328125,-23.8125,27.375,43.0,0.0,0.0,0.0,64
65,1696168221943,-1.1152344,-0.13183594,-0.19335938,-28.65625,25.0,53.75,0.0,0.0,0.0,65
66,1696168221983,-1.2353516,-0.4091797,-0.13671875,-17.28125,14.09375,52.59375,0.0,0.0,0.0,66
67,1696168222023,-1.1357422,-0.40234375,-0.13378906,23.3125,11.9375,58.28125,0.0,0.0,0.0,67
68,1696168222063,-0.87109375,-0.19824219,-0.13964844,66.625,-9.53125,47.71875,0.0,0.0,0.0,68
69,1696168222103,-0.83984375,0.0029296875,-0.13964844,54.96875,9.03125,32.8125,-43.8125,-7.625,-95.3125,69
70,1696168222143,-0.81347656,-0.0146484375,-0.00390625,18.40625,26.15625,32.6875,0.0,0.0,0.0,70
71,1696168222183,-0.8652344,-0.045898438,-0.0390625,-6.96875,15.90625,29.90625,0.0,0.0,0.0,71
72,1696168222223,-0.91015625,-0.14941406,-0.07910156,-24.25,12.5625,23.375,0.0,0.0,0.0,72
73,1696168222263,-0.9316406,-0.27734375,-0.095703125,-9.0,10.40625,20.1875,0.0,0.0,0.0,73
74,1696168222303,-0.9736328,-0.22558594,-0.1015625,-11.0,13.78125,8.28125,0.0,0.0,0.0,74
75,1696168222343,-1.0537109,-0.11035156,-0.061523438,-2.34375,23.3125,10.46875,0.0,0.0,0.0,75
76,1696168222383,-1.1386719,-0.02734375,-0.16894531,-3.96875,24.09375,19.75,0.0,0.0,0.0,76
77,1696168222423,-1.1474609,0.107421875,-0.25195312,9.8125,20.4375,24.65625,0.0,0.0,0.0,77
78,1696168222463,-1.2412109,-0.09863281,-0.17089844,15.5,19.5625,31.125,0.0,0.0,0.0,78
79,1696168222503,-1.3339844,-0.13964844,-0.15332031,7.8125,6.6875,4.25,0.0,0.0,0.0,79
80,1696168222543,-1.2431641,0.16992188,-0.14746094,8.96875,-15.28125,-9.0625,0.0,0.0,0.0,80
81,1696168222583,-1.1357422,0.13964844,-0.020507812,-39.5,-58.4375,-16.375,-48.125,0.625,-99.8125,81
82,1696168222623,-0.9550781,-0.033203125,-0.0078125,-82.15625,-89.1875,-40.125,0.0,0.0,0.0,82
83,1696168222663,-0.96191406,-0.3359375,0.13476562,-84.375,-78.75,-75.625,0.0,0.0,0.0,83
84,1696168222703,-1.0527344,-0.3095703,0.12402344,-37.75,-71.125,-97.5625,0.0,0.0,0.0,84
85,1696168222743,-1.2236328,-0.095703125,0.16210938,-50.84375,-38.59375,-94.4375,0.0,0.0,0.0,85
86,1696168222783,-1.2333984,-0.078125,-0.009765625,-14.3125,-71.3125,-78.8125,0.0,0.0,0.0,86
87,1696168222823,-1.0732422,-0.25195312,0.051757812,-1.53125,-65.5625,-112.75,0.0,0.0,0.0,87
88,1696168222863,-0.8671875,-0.26757812,0.13183594,9.1875,-55.25,-115.96875,0.0,0.0,0.0,88
89,1696168222903,-0.796875,-0.09765625,0.25,-16.1875,-38.34375,-108.28125,0.0,0.0,0.0,89
90,1696168222943,-0.7158203,-0.20605469,0.171875,-6.3125,-27.25,-67.875,0.0,0.0,0.0,90
91,1696168222983,-0.64453125,-0.33496094,0.06738281,-2.03125,-6.25,-48.21875,0.0,0.0,0.0,91
92,1696168223023,-0.5439453,-0.453125,0.23046875,29.84375,-13.6875,-35.71875,0.0,0.0,0.0,92
93,1696168223063,-0.46289062,-0.50097656,0.18652344,13.84375,11.15625,-11.0625,0.0,0.0,0.0,93
94,1696168223103,-0.55078125,-0.51660156,0.18457031,31.0,22.5,12.625,-27.125,-23.0625,-82.25,94
95,1696168223143,-0.6279297,-0.5390625,0.2685547,28.0625,57.28125,18.0,0.0,0.0,0.0,95
96,1696168223183,-0.94433594,-0.60058594,0.23339844,5.59375,47.65625,7.625,0.0,0.0,0.0,96
97,1696168223223,-1.3564453,-0.4560547,0.27441406,23.96875,51.125,23.59375,0.0,0.0,0.0,97
98,1696168223263,-0.8222656,-0.40234375,0.23339844,23.71875,26.0,13.28125,0.0,0.0,0.0,98
99,1696168223303,-0.9707031,-0.39257812,0.09375,17.5,44.25,49.71875,0.0,0.0,0.0,99
100,1696168223343,-1.2792969,-0.4013672,0.0703125,-5.8125,60.09375,49.25,0.0,0.0,0.0,100
101,1696168223383,-0.9042969,-0.3232422,0.09082031,-13.03125,63.09375,33.0625,0.0,0.0,0.0,101
102,1696168223423,-0.89941406,-0.26953125,0.08984375,-28.6875,59.125,54.125,0.0,0.0,0.0,102
103,1696168223463,-1.0458984,-0.22851562,-0.032226562,-17.78125,48.4375,53.4375,0.0,0.0,0.0,103
104,1696168223503,-1.0878906,-0.23632812,-0.051757812,-5.4375,24.09375,37.71875,0.0,0.0,0.0,104
105,1696168223543,-0.8623047,-0.06738281,-0.111328125,-32.90625,28.1875,44.53125,0.0,0.0,0.0,105
106,1696168223583,-1.0654297,-0.19140625,-0.18457031,-17.78125,19.28125,56.4375,-42.875,-13.4375,-96.8125,106
107,1696168223623,-1.1328125,-0.40820312,-0.14941406,-13.03125,7.96875,44.84375,0.0,0.0,0.0,107
108,1696168223663,-1.0693359,-0.29003906,-0.140625,2.3125,13.84375,42.96875,0.0,0.0,0.0,108
109,1696168223703,-0.9716797,-0.18261719,-0.15625,51.375,2.84375,48.75,0.0,0.0,0.0,109
110,1696168223743,-0.8798828,-0.10839844,-0.09863281,51.0625,6.5625,42.09375,0.0,0.0,0.0,110
111,1696168223783,-0.8515625,-0.033203125,-0.087890625,19.34375,16.78125,37.75,0.0,0.0,0.0,111
112,1696168223823,-0.8203125,-0.14550781,-0.021484375,8.84375,17.75,29.53125,0.0,0.0,0.0,112
113,1696168223863,-0.9794922,-0.11328125,-0.07324219,-4.46875,21.90625,21.84375,0.0,0.0,0.0,113
114,1696168223903,-0.95214844,-0.2265625,-0.02734375,-2.875,6.28125,18.28125,0.0,0.0,0.0,114
115,1696168223943,-0.9980469,-0.1171875,-0.06933594,-7.9375,13.09375,11.59375,0.0,0.0,0.0,115
116,1696168223983,-1.0527344,-0.0146484375,-0.10839844,-11.375,9.75,12.375,0.0,0.0,0.0,116
117,1696168224023,-1.0888672,-0.015625,-0.29492188,-20.21875,30.875,16.09375,0.0,0.0,0.0,117
118,1696168224063,-1.1240234,0.11328125,-0.20898438,-5.875,20.0,28.0,0.0,0.0,0.0,118
119,1696168224103,-1.1328125,-0.060546875,-0.14453125,-9.59375,11.21875,32.8125,-49.9375,-1.4375,-100.375,119
120,1696168224143,-1.1865234,-0.12402344,-0.06347656,-7.28125,-8.6875,10.71875,0.0,0.0,0.0,120
121,1696168224183,-1.3789062,-0.10546875,-0.107421875,1.75,-16.5625,-11.5625,0.0,0.0,0.0,121
122,1696168224223,-1.1894531,0.033203125,-0.07421875,-14.1875,-28.46875,-19.84375,0.0,0.0,0.0,122
123,1696168224263,-0.9970703,-0.0107421875,0.13476562,-49.9375,-68.0,-34.8125,0.0,0.0,0.0,123
124,1696168224303,-1.0576172,-0.16015625,-0.07128906,-59.09375,-69.0,-63.5,0.0,0.0,0.0,124
125,1696168224343,-1.0283203,-0.18359375,0.07714844,-36.03125,-64.59375,-86.25,0.0,0.0,0.0,125
126,1696168224383,-1.1425781,-0.12792969,0.12792969,-54.8125,-39.9375,-95.28125,0.0,0.0,0.0,126
127,1696168224423,-1.1845703,-0.059570312,0.10449219,-22.71875,-40.25,-95.09375,0.0,0.0,0.0,127
128,1696168224463,-1.1699219,-0.24902344,-0.080078125,20.625,-52.03125,-90.59375,0.0,0.0,0.0,128
129,1696168224503,-0.94628906,-0.31445312,0.13574219,-0.4375,-54.53125,-112.9375,0.0,0.0,0.0,129
130,1696168224543,-0.6699219,-0.1484375,0.15429688,-3.25,-33.40625,-99.875,0.0,0.0,0.0,130
131,1696168224583,-0.7451172,-0.24121094,0.21875,22.5625,-33.21875,-78.3125,-35.25,-21.875,-87.375,131
132,1696168224623,-0.7519531,-0.26367188,0.047851562,-0.0625,-4.96875,-60.3125,0.0,0.0,0.0,132
133,1696168224663,-0.5283203,-0.2841797,0.07910156,41.625,-21.25,-38.34375,0.0,0.0,0.0,133
134,1696168224703,-0.46289062,-0.43359375,0.13769531,27.28125,-1.65625,-15.53125,0.0,0.0,0.0,134
135,1696168224743,-0.5654297,-0.5048828,0.14550781,8.59375,33.6875,-4.09375,0.0,0.0,0.0,135
136,1696168224783,-0.68359375,-0.5644531,0.043945312,1.625,79.21875,7.90625,0.0,0.0,0.0,136
137,1696168224823,-1.0283203,-0.54003906,0.32421875,46.875,25.9375,7.8125,0.0,0.0,0.0,137
138,1696168224863,-1.1816406,-0.4716797,0.22949219,21.03125,23.84375,29.71875,0.0,0.0,0.0,138
139,1696168224903,-0.8730469,-0.33007812,0.22949219,-0.625,18.78125,18.65625,0.0,0.0,0.0,139
140,1696168224943,-1.0800781,-0.42382812,0.16308594,-0.6875,40.625,55.46875,0.0,0.0,0.0,140
141,1696168224983,-1.2851562,-0.5107422,0.083984375,-17.59375,46.0625,55.59375,0.0,0.0,0.0,141
142,1696168225023,-0.8935547,-0.24023438,0.018554688,-16.96875,48.15625,40.4375,0.0,0.0,0.0,142
143,1696168225063,-0.98828125,-0.25878906,-0.041992188,-12.46875,66.34375,64.8125,0.0,0.0,0.0,143
144,1696168225103,-1.1621094,-0.27246094,-0.08105469,-10.03125,56.3125,48.5,-41.375,-16.9375,-92.125,144
145,1696168225143,-0.9941406,-0.15039062,-0.03125,6.46875,30.25,41.3125,0.0,0.0,0.0,145
146,1696168225183,-0.9345703,0.052734375,-0.11621094,-10.09375,21.53125,56.9375,0.0,0.0,0.0,146
147,1696168225223,-1.0957031,-0.18066406,-0.13867188,-21.5,19.75,59.125,0.0,0.0,0.0,147
148,1696168225263,-1.0302734,-0.33789062,-0.14648438,-13.5625,12.3125,53.9375,0.0,0.0,0.0,148
149,1696168225303,-0.9560547,-0.2421875,-0.12988281,-3.96875,10.125,47.40625,0.0,0.0,0.0,149
150,1696168225343,-0.93847656,-0.13183594,-0.11816406,38.6875,2.125,39.84375,0.0,0.0,0.0,150
151,1696168225383,-0.83691406,-0.043945312,-0.055664062,50.875,1.09375,40.4375,0.0,0.0,0.0,151
152,1696168225423,-0.8544922,-0.0068359375,-0.14648438,8.71875,12.875,35.6875,0.0,0.0,0.0,152
153,1696168225463,-0.9160156,-0.15332031,-0.044921875,-7.28125,13.21875,35.15625,0.0,0.0,0.0,153
154,1696168225503,-0.99121094,-0.2919922,-0.041015625,4.5625,24.59375,26.34375,0.0,0.0,0.0,154
155,1696168225543,-0.9482422,-0.24414062,-0.041992188,18.90625,15.0625,20.96875,0.0,0.0,0.0,155
156,1696168225583,-1.0117188,-0.068359375,-0.080078125,29.03125,25.4375,3.71875,-48.875,-0.6875,-98.0,156
157,1696168225623,-1.0820312,0.1171875,-0.15625,12.5,25.8125,9.125,0.0,0.0,0.0,157
158,1696168225663,-1.0332031,0.17285156,-0.19335938,-1.0625,15.25,9.03125,0.0,0.0,0.0,158
159,1696168225703,-1.1835938,0.046875,-0.21875,6.03125,23.0625,23.84375,0.0,0.0,0.0,159
160,1696168225743,-1.1494141,-0.1015625,-0.25585938,-14.96875,10.40625,21.09375,0.0,0.0,0.0,160
161,1696168225783,-1.2548828,-0.005859375,-0.16601562,-26.0625,-10.4375,10.59375,0.0,0.0,0.0,161
162,1696168225823,-1.359375,0.020507812,-0.140625,0.40625,-5.9375,4.875,0.0,0.0,0.0,162
163,1696168225863,-1.2216797,-0.10839844,0.029296875,-14.0625,-59.53125,-22.15625,0.0,0.0,0.0,163
164,1696168225903,-1.0605469,-0.078125,0.11230469,-52.75,-87.65625,-60.25,0.0,0.0,0.0,164
165,1696168225943,-1.0175781,-0.08105469,-0.08691406,-68.625,-66.0625,-78.1875,0.0,0.0,0.0,165
166,1696168225983,-1.0693359,-0.17285156,0.091796875,-62.625,-67.875,-98.46875,0.0,0.0,0.0,166
167,1696168226023,-1.1669922,-0.083984375,0.24804688,-40.0,-56.09375,-96.34375,0.0,0.0,0.0,167
168,1696168226063,-1.1777344,-0.16601562,-0.12109375,18.34375,-64.78125,-78.8125,0.0,0.0,0.0,168
169,1696168226103,-1.1376953,-0.27441406,0.017578125,9.3125,-75.46875,-135.21875,-41.25,-15.5625,-90.1875,169
170,1696168226143,-0.7705078,0.13085938,0.115234375,-16.4375,-59.28125,-113.84375,0.0,0.0,0.0,170
171,1696168226183,-0.65234375,-0.1796875,0.16308594,-14.84375,-29.875,-93.8125,0.0,0.0,0.0,171
172,1696168226223,-0.7167969,-0.26660156,0.15820312,-15.75,-39.1875,-81.75,0.0,0.0,0.0,172
173,1696168226263,-0.61035156,-0.26171875,0.17871094,1.625,-26.5,-53.59375,0.0,0.0,0.0,173
174,1696168226303,-0.42773438,-0.37109375,0.08886719,9.625,-10.4375,-16.1875,0.0,0.0,0.0,174
175,1696168226343,-0.49902344,-0.5595703,0.10839844,-14.46875,20.96875,-0.6875,0.0,0.0,0.0,175
176,1696168226383,-0.546875,-0.8857422,0.1171875,26.84375,36.59375,0.84375,0.0,0.0,0.0,176
177,1696168226423,-0.9111328,-0.36816406,0.5566406,61.5,22.25,5.65625,0.0,0.0,0.0,177
178,1696168226463,-1.3320312,-0.17578125,0.087890625,15.65625,74.625,69.75,0.0,0.0,0.0,178
179,1696168226503,-0.91308594,-0.42578125,0.13378906,-15.46875,31.84375,8.71875,0.0,0.0,0.0,179
180,1696168226543,-1.0644531,-0.55859375,0.21289062,8.59375,40.21875,28.71875,0.0,0.0,0.0,180
181,1696168226583,-1.0302734,-0.37109375,0.13964844,-6.90625,47.84375,49.0,-33.3125,-23.0625,-85.375,181
182,1696168226623,-0.9394531,-0.21191406,0.072265625,-6.59375,58.34375,51.4375,0.0,0.0,0.0,182
183,1696168226663,-1.0664062,-0.34472656,-0.049804688,-10.4375,62.0,55.46875,0.0,0.0,0.0,183
184,1696168226703,-1.0732422,-0.3251953,-0.07910156,5.0,55.28125,47.65625,0.0,0.0,0.0,184
185,1696168226743,-1.0185547,-0.25390625,-0.076171875,-1.1875,40.8125,42.59375,0.0,0.0,0.0,185
186,1696168226783,-1.0146484,-0.0009765625,-0.10839844,-9.28125,30.0625,44.25,0.0,0.0,0.0,186
187,1696168226823,-1.0097656,-0.12402344,-0.10449219,-19.125,20.25,52.78125,0.0,0.0,0.0,187
188,1696168226863,-1.1064453,-0.32910156,-0.16113281,-4.21875,9.3125,57.34375,0.0,0.0,0.0,188
189,1696168226903,-0.98535156,-0.26660156,-0.11621094,12.9375,6.03125,54.0,0.0,0.0,0.0,189
190,1696168226943,-1.0029297,-0.13378906,-0.107421875,25.3125,18.90625,39.78125,0.0,0.0,0.0,190
191,1696168226983,-0.9316406,-0.046875,-0.08300781,32.46875,2.4375,45.34375,0.0,0.0,0.0,191
192,1696168227023,-0.94433594,-0.03125,-0.047851562,39.46875,7.5625,40.03125,0.0,0.0,0.0,192
193,1696168227063,-0.8935547,-0.0029296875,-0.10253906,5.78125,2.5,31.40625,0.0,0.0,0.0,193
194,1696168227103,-0.87402344,-0.09375,-0.053710938,-16.3125,2.59375,28.71875,-48.0,-5.9375,-93.0625,194
195,1696168227143,-0.87109375,-0.25390625,-0.040039062,-22.40625,10.96875,23.46875,0.0,0.0,0.0,195
196,1696168227183,-0.9394531,-0.21386719,-0.057617188,-8.0,18.71875,15.625,0.0,0.0,0.0,196
197,1696168227223,-0.9902344,-0.08984375,-0.0703125,-2.9375,21.34375,9.03125,0.0,0.0,0.0,197
198,1696168227263,-1.1572266,0.08203125,-0.125,-2.03125,26.59375,20.6875,0.0,0.0,0.0,198
199,1696168227303,-1.0927734,0.044921875,-0.20605469,-5.9375,12.3125,14.09375,0.0,0.0,0.0,199
200,1696168227343,-1.1845703,0.125,-0.13574219,-19.3125,16.21875,15.0,0.0,0.0,0.0,200
201,1696168227383,-1.1787109,-0.14355469,-0.171875,9.5,17.375,19.34375,0.0,0.0,0.0,201
202,1696168227423,-1.2451172,0.08203125,-0.06738281,8.46875,5.0,2.25,0.0,0.0,0.0,202
203,1696168227463,-1.1835938,0.0625,-0.055664062,2.5,-29.875,0.78125,0.0,0.0,0.0,203
204,1696168227503,-1.0332031,-0.024414062,0.03515625,-38.34375,-65.125,-28.03125,0.0,0.0,0.0,204
205,1696168227543,-1.0683594,-0.09472656,0.051757812,-37.5,-67.15625,-52.375,0.0,0.0,0.0,205
206,1696168227583,-0.9902344,-0.11230469,-0.044921875,-39.375,-47.1875,-71.5,-47.6875,-5.1875,-95.125,206
207,1696168227623,-1.1552734,-0.049804688,0.053710938,-43.53125,-45.84375,-82.78125,0.0,0.0,0.0,207
208,1696168227663,-1.1533203,-0.17285156,0.123046875,-49.875,-63.84375,-99.875,0.0,0.0,0.0,208
209,1696168227703,-1.1699219,-0.28808594,0.018554688,10.65625,-51.34375,-103.28125,0.0,0.0,0.0,209
210,1696168227743,-1.203125,-0.03125,0.016601562,26.0,-74.21875,-125.4375,0.0,0.0,0.0,210
211,1696168227783,-0.9736328,-0.051757812,0.16113281,-13.875,-61.90625,-119.78125,0.0,0.0,0.0,211
212,1696168227823,-0.7285156,-0.14355469,0.12695312,-34.8125,-30.46875,-100.125,0.0,0.0,0.0,212
213,1696168227863,-0.6435547,-0.3330078,0.12402344,-12.84375,-32.0,-78.125,0.0,0.0,0.0,213
214,1696168227903,-0.6816406,-0.328125,0.13671875,3.9375,-27.25,-54.8125,0.0,0.0,0.0,214
215,1696168227943,-0.5595703,-0.421875,0.07519531,13.90625,-4.96875,-35.125,0.0,0.0,0.0,215
216,1696168227983,-0.47265625,-0.41308594,0.0703125,23.46875,5.0625,-10.09375,0.0,0.0,0.0,216
217,1696168228023,-0.57714844,-0.42089844,0.16894531,23.46875,22.3125,14.15625,0.0,0.0,0.0,217
218,1696168228063,-0.6357422,-0.55566406,0.31347656,23.90625,32.40625,38.125,0.0,0.0,0.0,218
219,1696168228103,-1.3388672,-0.6767578,0.07910156,-12.90625,44.125,5.53125,-28.1875,-25.3125,-83.3125,219
220,1696168228143,-1.1669922,-0.3935547,0.23339844,30.375,29.21875,10.59375,0.0,0.0,0.0,220
221,1696168228183,-0.5175781,-0.359375,0.22460938,17.0625,24.875,3.90625,0.0,0.0,0.0,221
222,1696168228223,-0.9707031,-0.5253906,0.21582031,1.3125,34.65625,37.09375,0.0,0.0,0.0,222
223,1696168228263,-1.2011719,-0.4453125,0.15820312,5.90625,26.96875,40.28125,0.0,0.0,0.0,223
224,1696168228303,-1.0097656,-0.39160156,0.140625,-1.59375,36.375,41.125,0.0,0.0,0.0,224
225,1696168228343,-1.0009766,-0.39648438,0.07324219,-26.8125,58.875,55.09375,0.0,0.0,0.0,225
226,1696168228383,-0.86621094,-0.33984375,0.01953125,-11.4375,53.34375,51.8125,0.0,0.0,0.0,226
227,1696168228423,-1.1445312,-0.30859375,-0.03125,1.21875,45.21875,47.15625,0.0,0.0,0.0,227
228,1696168228463,-1.0039062,-0.23828125,-0.018554688,5.34375,38.9375,39.90625,0.0,0.0,0.0,228
229,1696168228503,-0.8359375,-0.001953125,-0.078125,-4.78125,37.65625,45.09375,0.0,0.0,0.0,229
230,1696168228543,-1.0429688,-0.11035156,-0.16894531,-9.0625,30.875,57.46875,0.0,0.0,0.0,230
231,1696168228583,-1.1689453,-0.3564453,-0.119140625,2.84375,16.65625,56.875,-42.75,-12.5625,-93.9375,231
232,1696168228623,-0.953125,-0.22949219,-0.1171875,13.84375,5.46875,44.34375,0.0,0.0,0.0,232
233,1696168228663,-0.984375,-0.09765625,-0.14257812,43.1875,7.125,46.75,0.0,0.0,0.0,233
234,1696168228703,-0.88183594,-0.048828125,-0.09765625,49.0,-6.0,47.65625,0.0,0.0,0.0,234
235,1696168228743,-0.91503906,-0.10449219,-0.08105469,36.25,2.96875,39.65625,0.0,0.0,0.0,235
236,1696168228783,-0.8964844,-0.09765625,-0.029296875,7.25,13.03125,26.34375,0.0,0.0,0.0,236
237,1696168228823,-0.9501953,-0.103515625,-0.0078125,4.0625,14.625,24.15625,0.0,0.0,0.0,237
238,1696168228863,-0.9345703,-0.18652344,-0.0625,3.40625,11.71875,26.59375,0.0,0.0,0.0,238
239,1696168228903,-0.9824219,-0.14550781,-0.080078125,7.5,15.65625,20.96875,0.0,0.0,0.0,239
240,1696168228943,-1.0595703,-0.037109375,-0.11230469,-5.875,19.6875,13.71875,0.0,0.0,0.0,240
241,1696168228983,-1.0566406,0.037109375,-0.15136719,-14.65625,13.59375,9.5625,0.0,0.0,0.0,241
242,1696168229023,-1.0351562,0.001953125,-0.15039062,-4.28125,11.21875,18.53125,0.0,0.0,0.0,242
243,1696168229063,-1.0908203,-0.025390625,-0.1796875,13.03125,12.9375,28.84375,0.0,0.0,0.0,243
244,1696168229103,-1.2734375,-0.043945312,-0.087890625,20.84375,17.875,19.875,-46.9375,-1.3125,-95.75,244
245,1696168229143,-1.421875,0.111328125,-0.09277344,30.875,0.46875,9.6875,0.0,0.0,0.0,245
246,1696168229183,-1.2626953,0.10839844,-0.026367188,-9.84375,-43.96875,-7.59375,0.0,0.0,0.0,246
247,1696168229223,-1.0927734,0.029296875,0.06640625,-74.0,-83.4375,-24.90625,0.0,0.0,0.0,247
248,1696168229263,-0.94140625,-0.14453125,-0.005859375,-91.03125,-78.75,-51.09375,0.0,0.0,0.0,248
249,1696168229303,-0.99902344,-0.3046875,0.1328125,-60.0625,-57.3125,-93.15625,0.0,0.0,0.0,249
250,1696168229343,-1.2705078,-0.07714844,0.23925781,-63.125,-26.03125,-105.125,0.0,0.0,0.0,250
251,1696168229383,-1.1611328,0.059570312,0.08691406,-18.9375,-46.84375,-88.6875,0.0,0.0,0.0,251
252,1696168229423,-1.1933594,-0.107421875,0.009765625,13.0,-71.90625,-98.15625,0.0,0.0,0.0,252
253,1696168229463,-1.0097656,-0.17382812,0.13671875,-22.46875,-64.03125,-119.46875,0.0,0.0,0.0,253
254,1696168229503,-0.81933594,-0.01953125,0.16210938,-23.9375,-50.96875,-111.28125,0.0,0.0,0.0,254
255,1696168229543,-0.67871094,-0.2109375,0.1953125,-19.78125,-35.90625,-90.15625,0.0,0.0,0.0,255
256,1696168229583,-0.6279297,-0.2529297,0.19628906,-21.1875,-36.40625,-72.40625,-30.875,-21.5625,-83.875,256
257,1696168229623,-0.5097656,-0.18457031,0.0859375,-26.625,-16.4375,-50.125,0.0,0.0,0.0,257
258,1696168229663,-0.5263672,-0.35058594,0.14355469,22.3125,-8.0625,-21.625,0.0,0.0,0.0,258
259,1696168229703,-0.6376953,-0.64453125,0.08105469,16.65625,11.71875,-7.03125,0.0,0.0,0.0,259
260,1696168229743,-0.50683594,-0.5,0.16894531,5.78125,45.9375,13.15625,0.0,0.0,0.0,260
261,1696168229783,-0.6748047,-0.52246094,0.19335938,6.5625,99.59375,25.375,0.0,0.0,0.0,261
262,1696168229823,-1.6162109,-0.87597656,0.16992188,28.96875,52.46875,11.59375,0.0,0.0,0.0,262
263,1696168229863,-1.0009766,-0.41796875,0.32617188,55.90625,12.375,-7.28125,0.0,0.0,0.0,263
264,1696168229903,-0.37597656,-0.18066406,0.20214844,27.8125,37.53125,9.5625,0.0,0.0,0.0,264
265,1696168229943,-1.0107422,-0.42871094,0.18164062,-13.0625,37.71875,45.9375,0.0,0.0,0.0,265
266,1696168229983,-1.4355469,-0.62109375,0.12988281,-1.34375,31.78125,42.65625,0.0,0.0,0.0,266
267,1696168230023,-0.9404297,-0.39746094,0.115234375,18.34375,21.71875,44.0,0.0,0.0,0.0,267
268,1696168230063,-0.8720703,-0.2841797,0.060546875,-0.3125,35.09375,54.0625,0.0,0.0,0.0,268
269,1696168230103,-1.0107422,-0.19433594,0.055664062,-8.0625,37.40625,52.46875,-37.1875,-19.4375,-87.5,269
270,1696168230143,-1.0849609,-0.32128906,0.061523438,-11.6875,42.78125,52.28125,0.0,0.0,0.0,270
271,1696168230183,-0.8125,-0.203125,-0.02734375,-7.875,40.4375,43.9375,0.0,0.0,0.0,271
272,1696168230223,-1.0410156,-0.14355469,-0.17089844,-23.28125,49.59375,48.9375,0.0,0.0,0.0,272
273,1696168230263,-1.1113281,-0.24023438,-0.140625,-13.8125,20.5625,48.4375,0.0,0.0,0.0,273
274,1696168230303,-1.0458984,-0.23632812,-0.11230469,2.0,16.53125,44.90625,0.0,0.0,0.0,274
275,1696168230343,-1.0244141,-0.21386719,-0.12402344,36.53125,18.53125,55.53125,0.0,0.0,0.0,275
276,1696168230383,-0.9814453,-0.11816406,-0.078125,62.71875,-4.21875,52.53125,0.0,0.0,0.0,276
277,1696168230423,-0.8388672,-0.08203125,-0.05859375,54.0625,-8.375,43.0625,0.0,0.0,0.0,277
278,1696168230463,-0.85546875,-0.022460938,-0.024414062,22.875,12.875,34.59375,0.0,0.0,0.0,278
279,1696168230503,-0.95410156,-0.10839844,-0.028320312,-2.21875,15.90625,34.03125,0.0,0.0,0.0,279
280,1696168230543,-0.984375,-0.15136719,-0.06933594,-6.4375,18.96875,31.96875,0.0,0.0,0.0,280
281,1696168230583,-0.9951172,-0.19335938,-0.08300781,-2.21875,5.96875,24.34375,-47.25,-2.6875,-92.0,281
282,1696168230623,-0.9765625,0.026367188,-0.049804688,12.1875,9.25,14.09375,0.0,0.0,0.0,282
283,1696168230663,-1.0078125,0.026367188,-0.14746094,-3.125,10.0,14.375,0.0,0.0,0.0,283
284,1696168230703,-1.0615234,0.08300781,-0.12695312,-15.6875,16.71875,11.71875,0.0,0.0,0.0,284
285,1696168230743,-1.1523438,0.0146484375,-0.18652344,-1.65625,7.4375,16.84375,0.0,0.0,0.0,285
286,1696168230783,-1.2275391,0.080078125,-0.119140625,-11.78125,7.3125,17.1875,0.0,0.0,0.0,286
287,1696168230823,-1.5380859,0.11035156,-0.041992188,-0.5625,0.65625,12.375,0.0,0.0,0.0,287
288,1696168230863,-1.2851562,0.033203125,-0.061523438,-17.03125,-36.9375,4.0625,0.0,0.0,0.0,288
289,1696168230903,-1.0810547,-0.01171875,0.06640625,-41.28125,-56.46875,-13.375,0.0,0.0,0.0,289
290,1696168230943,-1.0068359,-0.087890625,0.1640625,-69.78125,-68.75,-45.0,0.0,0.0,0.0,290
291,1696168230983,-0.87402344,-0.4013672,-0.032226562,-54.875,-42.5,-92.1875,0.0,0.0,0.0,291
292,1696168231023,-1.1679688,-0.25976562,0.22949219,-49.21875,-23.03125,-125.0,0.0,0.0,0.0,292
293,1696168231063,-1.1337891,0.25195312,0.2861328,8.53125,-41.59375,-95.0625,-43.5,-9.4375,-88.6875,293
294,1696168231103,-1.0615234,0.27539062,-0.048828125,40.9375,-90.40625,-62.9375,0.0,0.0,0.0,294
295,1696168231143,-1.1103516,-0.5410156,0.11328125,-41.6875,-71.0,-102.0625,0.0,0.0,0.0,295
296,1696168231183,-0.81640625,0.01953125,0.18359375,-37.625,-64.03125,-102.625,0.0,0.0,0.0,296
297,1696168231223,-0.7558594,-0.23242188,0.09765625,-1.46875,-33.21875,-85.15625,0.0,0.0,0.0,297
298,1696168231263,-0.70410156,-0.25390625,0.19335938,1.375,-34.0625,-74.59375,0.0,0.0,0.0,298
299,1696168231303,-0.57714844,-0.26660156,0.16308594,0.65625,-16.375,-50.3125,0.0,0.0,0.0,299
300,1696168231343,-0.3857422,-0.2109375,0.14355469,30.375,-5.03125,-25.53125,0.0,0.0,0.0,300
301,1696168231383,-0.5361328,-0.4423828,0.17871094,-6.71875,15.90625,6.15625,0.0,0.0,0.0,301
302,1696168231423,-0.6611328,-0.6582031,0.17675781,-8.5625,54.3125,-1.40625,0.0,0.0,0.0,302
303,1696168231463,-0.7636719,-0.72265625,0.2861328,17.75,57.34375,0.03125,0.0,0.0,0.0,303
304,1696168231503,-1.6054688,-0.32910156,0.5058594,61.1875,1.3125,13.03125,0.0,0.0,0.0,304
305,1696168231543,-0.69140625,-0.20117188,0.23046875,15.0,39.34375,0.0,0.0,0.0,0.0,305
306,1696168231583,-0.84277344,-0.44433594,0.2919922,-15.53125,48.5625,17.3125,-29.875,-19.3125,-81.5,306
307,1696168231623,-1.3759766,-0.5576172,0.1328125,-1.34375,50.15625,50.8125,0.0,0.0,0.0,307
308,1696168231663,-1.0800781,-0.3671875,0.17382812,0.28125,53.03125,35.8125,0.0,0.0,0.0,308
309,1696168231703,-0.87109375,-0.30664062,0.068359375,0.15625,58.9375,39.0,0.0,0.0,0.0,309
310,1696168231743,-1.0498047,-0.28515625,0.0126953125,1.75,57.84375,53.21875,0.0,0.0,0.0,310
311,1696168231783,-1.1015625,-0.15039062,-0.06738281,-3.5,53.09375,52.40625,0.0,0.0,0.0,311
312,1696168231823,-1.0400391,-0.061523438,-0.0068359375,-2.6875,29.78125,42.21875,0.0,0.0,0.0,312
313,1696168231863,-0.91308594,0.001953125,-0.13183594,-31.15625,36.71875,47.34375,0.0,0.0,0.0,313
314,1696168231903,-0.98046875,-0.053710938,-0.18847656,-41.9375,27.5625,63.9375,0.0,0.0,0.0,314
315,1696168231943,-1.2119141,-0.33789062,-0.17871094,-30.09375,19.6875,57.59375,0.0,0.0,0.0,315
316,1696168231983,-0.96875,-0.28320312,-0.14648438,-12.46875,9.5,47.84375,0.0,0.0,0.0,316
317,1696168232023,-0.9111328,-0.15722656,-0.099609375,19.8125,2.3125,49.0625,-44.125,-6.6875,-94.125,317
318,1696168232063,-0.88183594,-0.16796875,-0.115234375,42.96875,-2.28125,47.59375,0.0,0.0,0.0,318
319,1696168232103,-0.8847656,-0.080078125,-0.060546875,35.25,7.8125,35.6875,0.0,0.0,0.0,319
320,1696168232143,-0.9111328,0.034179688,-0.091796875,20.375,4.125,28.375,0.0,0.0,0.0,320
321,1696168232183,-0.9013672,-0.0126953125,-0.055664062,-7.71875,9.75,19.09375,0.0,0.0,0.0,321
322,1696168232223,-0.99121094,-0.17285156,-0.07714844,-8.8125,14.5625,26.28125,0.0,0.0,0.0,322
323,1696168232263,-1.0126953,-0.078125,-0.072265625,-3.5,18.78125,13.71875,0.0,0.0,0.0,323
324,1696168232303,-1.0761719,0.053710938,-0.16015625,-17.34375,11.75,10.84375,0.0,0.0,0.0,324
325,1696168232343,-1.0556641,-0.052734375,-0.24609375,-17.78125,13.0,17.0,0.0,0.0,0.0,325
326,1696168232383,-1.0429688,0.08886719,-0.19921875,-10.875,11.21875,12.625,0.0,0.0,0.0,326
327,1696168232423,-1.1962891,-0.0146484375,-0.16601562,-1.34375,12.125,20.125,0.0,0.0,0.0,327
328,1696168232463,-1.1318359,-0.08984375,-0.12109375,-9.59375,3.28125,15.0625,0.0,0.0,0.0,328
329,1696168232503,-1.3320312,0.095703125,-0.046875,-0.4375,-5.6875,1.03125,0.0,0.0,0.0,329
330,1696168232543,-1.3388672,0.10839844,-0.047851562,-1.125,-31.5,-8.1875,0.0,0.0,0.0,330
331,1696168232583,-1.1787109,-0.024414062,0.0078125,-31.5,-59.78125,-23.09375,-47.375,2.125,-95.625,331
332,1696168232623,-0.9433594,-0.024414062,0.026367188,-62.46875,-66.78125,-37.96875,0.0,0.0,0.0,332
333,1696168232663,-0.9326172,-0.1953125,0.047851562,-55.125,-57.6875,-64.78125,0.0,0.0,0.0,333
334,1696168232703,-1.1777344,-0.3125,0.07714844,-27.78125,-32.0,-96.8125,0.0,0.0,0.0,334
335,1696168232743,-1.1396484,-0.06347656,0.16308594,-32.5625,-42.75,-115.125,0.0,0.0,0.0,335
336,1696168232783,-1.1865234,0.2421875,0.01953125,34.59375,-57.625,-93.65625,0.0,0.0,0.0,336
337,1696168232823,-1.0664062,-0.2763672,0.018554688,20.1875,-62.6875,-94.625,0.0,0.0,0.0,337
338,1696168232863,-0.92871094,-0.11425781,0.14941406,-40.96875,-50.96875,-121.59375,0.0,0.0,0.0,338
339,1696168232903,-0.69628906,-0.14355469,0.17578125,-5.6875,-43.65625,-104.3125,0.0,0.0,0.0,339
340,1696168232943,-0.7080078,-0.24023438,0.13378906,-11.5625,-32.65625,-88.6875,0.0,0.0,0.0,340
341,1696168232983,-0.63671875,-0.31347656,0.14160156,3.15625,-20.34375,-59.84375,0.0,0.0,0.0,341
342,1696168233023,-0.56640625,-0.3515625,0.15722656,16.90625,-9.53125,-26.3125,0.0,0.0,0.0,342
343,1696168233063,-0.54296875,-0.40234375,0.09765625,-5.3125,21.59375,-6.78125,-27.625,-23.5,-83.0,343
344,1696168233103,-0.64160156,-0.46972656,0.24707031,10.84375,29.59375,7.375,0.0,0.0,0.0,344
345,1696168233143,-0.67089844,-0.609375,0.12695312,38.75,44.125,19.625,0.0,0.0,0.0,345
346,1696168233183,-1.1005859,-0.61816406,0.14355469,14.625,28.3125,14.15625,0.0,0.0,0.0,346
347,1696168233223,-1.1875,-0.24804688,0.3095703,8.84375,22.03125,16.9375,0.0,0.0,0.0,347
348,1696168233263,-0.64941406,-0.4296875,0.17089844,22.03125,49.375,8.59375,0.0,0.0,0.0,348
349,1696168233303,-1.0605469,-0.5566406,0.17773438,1.15625,46.3125,42.71875,0.0,0.0,0.0,349
350,1696168233343,-1.3261719,-0.328125,0.17089844,-0.8125,40.625,38.8125,0.0,0.0,0.0,350
351,1696168233383,-0.8935547,-0.27441406,0.08203125,4.0625,51.6875,43.9375,0.0,0.0,0.0,351
352,1696168233423,-1.0126953,-0.4091797,0.047851562,-15.21875,57.90625,56.875,0.0,0.0,0.0,352
353,1696168233463,-1.0810547,-0.27539062,-0.0625,3.59375,40.03125,50.46875,0.0,0.0,0.0,353
354,1696168233503,-1.0146484,-0.123046875,-0.11328125,0.84375,41.375,44.65625,0.0,0.0,0.0,354
355,1696168233543,-0.9658203,-0.13574219,-0.076171875,-24.0625,41.5625,49.4375,0.0,0.0,0.0,355
356,1696168233583,-1.0556641,-0.171875,-0.12109375,-31.6875,29.28125,52.0,-41.6875,-12.25,-92.875,356
357,1696168233623,-1.0878906,-0.21582031,-0.15234375,-24.25,19.75,45.5625,0.0,0.0,0.0,357
358,1696168233663,-0.9082031,-0.14941406,-0.13378906,-1.71875,3.34375,43.4375,0.0,0.0,0.0,358
359,1696168233703,-0.97753906,-0.17285156,-0.16699219,21.15625,16.40625,50.15625,0.0,0.0,0.0,359
360,1696168233743,-0.8935547,-0.14355469,-0.0546875,37.46875,-0.75,42.21875,0.0,0.0,0.0,360
361,1696168233783,-0.8964844,-0.111328125,-0.09082031,24.65625,0.46875,31.1875,0.0,0.0,0.0,361
362,1696168233823,-0.86816406,-0.080078125,-0.06933594,18.40625,9.8125,25.4375,0.0,0.0,0.0,362
363,1696168233863,-0.95410156,-0.10058594,-0.103515625,3.90625,17.875,22.1875,0.0,0.0,0.0,363
364,1696168233903,-1.0175781,-0.18066406,-0.060546875,-2.03125,16.34375,19.875,0.0,0.0,0.0,364
365,1696168233943,-0.98828125,-0.12402344,-0.10253906,0.53125,2.78125,16.40625,0.0,0.0,0.0,365
366,1696168233983,-0.9921875,-0.076171875,-0.123046875,4.5625,10.59375,13.15625,0.0,0.0,0.0,366
367,1696168234023,-1.0292969,-0.09667969,-0.17773438,-12.65625,9.625,13.03125,0.0,0.0,0.0,367
368,1696168234063,-0.95410156,0.040039062,-0.12011719,27.15625,9.25,6.6875,-48.75,-1.3125,-97.125,368
369,1696168234103,-1.1269531,0.21972656,-0.18847656,-7.875,4.125,11.9375,0.0,0.0,0.0,369
370,1696168234143,-1.0566406,0.026367188,-0.15917969,-41.40625,-8.9375,13.40625,0.0,0.0,0.0,370
371,1696168234183,-1.0917969,-0.10839844,-0.14746094,-24.0,-3.125,20.0,0.0,0.0,0.0,371
372,1696168234223,-1.0664062,0.0009765625,-0.13085938,-0.5,3.40625,19.8125,0.0,0.0,0.0,372
373,1696168234263,-1.3574219,0.0029296875,-0.15527344,7.25,12.375,23.0,0.0,0.0,0.0,373
374,1696168234303,-1.3847656,0.17285156,0.020507812,-8.3125,-14.3125,6.6875,0.0,0.0,0.0,374
375,1696168234343,-1.1425781,-0.03125,0.076171875,-38.21875,-76.0625,-12.90625,0.0,0.0,0.0,375
376,1696168234383,-1.0146484,-0.0546875,0.09472656,-58.78125,-86.8125,-43.78125,0.0,0.0,0.0,376
377,1696168234423,-1.0214844,-0.12792969,0.1171875,-75.8125,-35.15625,-63.625,0.0,0.0,0.0,377
378,1696168234463,-1.0654297,-0.20605469,-0.052734375,-39.3125,-10.6875,-88.03125,0.0,0.0,0.0,378
379,1696168234503,-1.2265625,-0.16308594,0.140625,-11.4375,-29.0,-93.03125,0.0,0.0,0.0,379
380,1696168234543,-1.2753906,-0.19042969,0.15917969,36.0,-57.5625,-100.125,0.0,0.0,0.0,380
381,1696168234583,-0.92578125,0.0390625,0.034179688,42.46875,-83.5,-110.90625,-39.75,-11.375,-88.875,381
382,1696168234623,-0.875,0.038085938,0.18847656,-30.09375,-60.1875,-108.28125,0.0,0.0,0.0,382
383,1696168234663,-0.7285156,-0.15527344,0.11230469,-32.125,-41.53125,-83.28125,0.0,0.0,0.0,383
384,1696168234703,-0.7626953,-0.29492188,0.234375,-23.8125,-43.71875,-75.75,0.0,0.0,0.0,384
385,1696168234743,-0.6826172,-0.3173828,0.07910156,-12.34375,-23.5,-52.375,0.0,0.0,0.0,385
386,1696168234783,-0.5917969,-0.33007812,0.15917969,8.15625,-14.1875,-19.0625,0.0,0.0,0.0,386
387,1696168234823,-0.5390625,-0.4892578,0.15429688,7.625,17.6875,-2.6875,0.0,0.0,0.0,387
388,1696168234863,-0.6074219,-0.5332031,0.24609375,38.875,43.75,1.6875,0.0,0.0,0.0,388
389,1696168234903,-0.546875,-0.47460938,0.123046875,30.3125,40.9375,-1.0,0.0,0.0,0.0,389
390,1696168234943,-1.2822266,-0.23339844,0.27148438,28.125,22.4375,24.59375,0.0,0.0,0.0,390
391,1696168234983,-0.94140625,-0.38183594,0.23925781,-0.875,55.84375,-9.21875,0.0,0.0,0.0,391
392,1696168235023,-0.7324219,-0.4375,0.23632812,2.0,33.96875,3.59375,0.0,0.0,0.0,392
393,1696168235063,-1.3476562,-0.5595703,0.23730469,11.53125,41.0,42.28125,-31.375,-21.5625,-86.0,393
394,1696168235103,-1.1435547,-0.28515625,0.1875,13.65625,39.65625,32.46875,0.0,0.0,0.0,394
395,1696168235143,-0.9589844,-0.25878906,0.10839844,-21.0,61.375,55.53125,0.0,0.0,0.0,395
396,1696168235183,-1.1259766,-0.38867188,0.01171875,-14.40625,54.96875,64.5,0.0,0.0,0.0,396
397,1696168235223,-1.0175781,-0.2783203,-0.1015625,-4.03125,54.90625,56.0,0.0,0.0,0.0,397
398,1696168235263,-0.921875,-0.18554688,-0.12207031,10.46875,40.28125,46.1875,0.0,0.0,0.0,398
399,1696168235303,-0.9394531,0.013671875,-0.14160156,-13.375,46.0625,38.8125,0.0,0.0,0.0,399
400,1696168235343,-0.984375,0.0068359375,-0.10253906,-32.71875,37.65625,42.34375,0.0,0.0,0.0,400
401,1696168235383,-1.1230469,-0.24804688,-0.16015625,-31.15625,19.6875,43.375,0.0,0.0,0.0,401
402,1696168235423,-0.9638672,-0.20507812,-0.12988281,-26.5625,7.0625,39.0,0.0,0.0,0.0,402
403,1696168235463,-0.96191406,-0.17578125,-0.15917969,22.5625,-2.8125,43.375,0.0,0.0,0.0,403
404,1696168235503,-0.8935547,-0.203125,-0.07519531,28.3125,2.4375,38.0,0.0,0.0,0.0,404
405,1696168235543,-0.98828125,-0.15136719,-0.034179688,37.03125,5.0625,33.0625,0.0,0.0,0.0,405
406,1696168235583,-0.92871094,-0.026367188,-0.09472656,13.03125,3.21875,25.25,-45.625,-6.125,-96.375,406
407,1696168235623,-0.9355469,-0.037109375,-0.07324219,3.21875,8.59375,25.75,0.0,0.0,0.0,407
408,1696168235663,-0.9511719,-0.20214844,-0.07714844,12.25,4.1875,25.125,0.0,0.0,0.0,408
409,1696168235703,-0.8955078,-0.11230469,-0.099609375,14.8125,10.1875,16.15625,0.0,0.0,0.0,409
410,1696168235743,-1.0419922,-0.05859375,-0.13378906,1.8125,18.53125,8.59375,0.0,0.0,0.0,410
411,1696168235783,-1.1484375,0.025390625,-0.18945312,-3.3125,14.28125,6.46875,0.0,0.0,0.0,411
412,1696168235823,-0.9814453,0.053710938,-0.20507812,9.375,13.28125,10.71875,0.0,0.0,0.0,412
413,1696168235863,-1.2050781,0.14648438,-0.19042969,4.375,20.125,24.46875,0.0,0.0,0.0,413
414,1696168235903,-1.078125,0.009765625,-0.16894531,-23.8125,2.90625,26.21875,0.0,0.0,0.0,414
415,1696168235943,-1.0527344,-0.0390625,-0.15332031,-10.875,-1.71875,23.78125,0.0,0.0,0.0,415
416,1696168235983,-1.2050781,-0.0078125,-0.18359375,3.59375,7.375,21.28125,0.0,0.0,0.0,416
417,1696168236023,-1.2236328,0.01953125,-0.18652344,4.5,-3.875,24.46875,0.0,0.0,0.0,417
418,1696168236063,-1.2246094,0.13964844,-0.07714844,0.65625,-20.28125,10.71875,-48.625,2.875,-98.75,418
419,1696168236103,-1.0712891,0.033203125,0.041015625,-33.53125,-65.6875,-15.625,0.0,0.0,0.0,419
420,1696168236143,-1.1005859,-0.017578125,0.15429688,-60.1875,-74.59375,-50.75,0.0,0.0,0.0,420
421,1696168236183,-0.9169922,-0.18261719,-0.16308594,-71.78125,-48.0625,-81.9375,0.0,0.0,0.0,421
422,1696168236223,-1.1269531,-0.1875,0.17382812,-51.40625,-38.09375,-112.6875,0.0,0.0,0.0,422
423,1696168236263,-1.2021484,0.015625,0.14550781,-29.6875,-38.96875,-108.84375,0.0,0.0,0.0,423
424,1696168236303,-1.2734375,-0.07910156,0.064453125,33.96875,-73.8125,-99.625,0.0,0.0,0.0,424
425,1696168236343,-1.0234375,-0.15234375,0.043945312,0.46875,-85.15625,-123.78125,0.0,0.0,0.0,425
426,1696168236383,-0.7832031,0.13964844,0.11230469,-46.53125,-62.03125,-119.78125,0.0,0.0,0.0,426
427,1696168236423,-0.7216797,-0.2685547,0.25585938,-37.125,-42.9375,-103.09375,0.0,0.0,0.0,427
428,1696168236463,-0.71875,-0.3671875,0.11035156,-20.875,-39.25,-85.59375,0.0,0.0,0.0,428
429,1696168236503,-0.58203125,-0.38183594,0.06738281,17.4375,-26.6875,-59.84375,0.0,0.0,0.0,429
430,1696168236543,-0.3408203,-0.3798828,0.15332031,37.59375,-11.96875,-14.78125,0.0,0.0,0.0,430
431,1696168236583,-0.42382812,-0.66796875,0.036132812,19.875,42.40625,14.5,-28.5,-23.9375,-84.5,431
432,1696168236623,-0.4970703,-0.42382812,0.4609375,31.0625,50.40625,21.65625,0.0,0.0,0.0,432
433,1696168236663,-1.1689453,-0.3779297,0.0625,5.21875,54.0625,26.03125,0.0,0.0,0.0,433
434,1696168236703,-1.4365234,-0.46777344,0.28710938,19.5625,58.875,13.28125,0.0,0.0,0.0,434
435,1696168236743,-0.5488281,-0.31445312,0.20898438,7.625,28.0,-1.0,0.0,0.0,0.0,435
436,1696168236783,-1.2548828,-0.40527344,0.1796875,2.1875,43.6875,55.59375,0.0,0.0,0.0,436
437,1696168236823,-1.265625,-0.45117188,0.13964844,-11.6875,49.46875,46.625,0.0,0.0,0.0,437
438,1696168236863,-0.8720703,-0.15332031,0.037109375,-9.34375,44.40625,41.1875,0.0,0.0,0.0,438
439,1696168236903,-1.0830078,-0.21777344,-0.12890625,-11.78125,70.78125,79.21875,0.0,0.0,0.0,439
440,1696168236943,-1.1044922,-0.21679688,-0.11816406,-17.28125,47.59375,55.84375,0.0,0.0,0.0,440
441,1696168236983,-1.0419922,-0.14648438,-0.07324219,-7.40625,14.875,40.75,0.0,0.0,0.0,441
442,1696168237023,-0.91503906,-0.2109375,-0.080078125,-27.53125,25.75,53.375,0.0,0.0,0.0,442
443,1696168237063,-1.0029297,-0.27246094,-0.1015625,-20.03125,27.03125,57.1875,-43.375,-13.1875,-94.6875,443
444,1696168237103,-1.0947266,-0.18652344,-0.11328125,15.0625,4.0,57.0625,0.0,0.0,0.0,444
445,1696168237143,-0.9189453,-0.091796875,-0.125,10.84375,0.21875,52.53125,0.0,0.0,0.0,445
446,1696168237183,-0.8925781,-0.09375,-0.12109375,37.09375,4.6875,46.875,0.0,0.0,0.0,446
447,1696168237223,-0.9082031,-0.14355469,-0.10449219,33.96875,9.6875,40.9375,0.0,0.0,0.0,447
448,1696168237263,-0.9560547,-0.17578125,-0.057617188,31.53125,20.8125,28.4375,0.0,0.0,0.0,448
449,1696168237303,-0.94433594,-0.055664062,-0.08300781,26.90625,10.0625,19.53125,0.0,0.0,0.0,449
450,1696168237343,-0.99121094,-0.10253906,-0.045898438,9.03125,13.40625,14.15625,0.0,0.0,0.0,450
451,1696168237383,-0.9345703,-0.18261719,-0.06933594,6.46875,8.46875,15.3125,0.0,0.0,0.0,451
452,1696168237423,-0.97753906,-0.091796875,-0.10546875,18.53125,23.125,14.9375,0.0,0.0,0.0,452
453,1696168237463,-1.0761719,0.1328125,-0.09765625,5.125,29.65625,19.34375,0.0,0.0,0.0,453
454,1696168237503,-1.078125,0.021484375,-0.18066406,13.40625,22.1875,28.125,0.0,0.0,0.0,454
455,1696168237543,-1.0351562,0.024414062,-0.20507812,9.375,5.90625,27.09375,0.0,0.0,0.0,455
456,1696168237583,-1.0859375,-0.001953125,-0.15527344,-15.28125,2.96875,18.1875,-50.125,1.5625,-98.875,456
457,1696168237623,-1.109375,0.022460938,-0.14746094,10.40625,-1.34375,15.0625,0.0,0.0,0.0,457
458,1696168237663,-1.2226562,0.09082031,-0.14648438,19.46875,-0.6875,11.8125,0.0,0.0,0.0,458
459,1696168237703,-1.4677734,0.11816406,-0.1171875,-6.71875,-14.3125,1.09375,0.0,0.0,0.0,459
460,1696168237743,-1.1621094,0.18164062,0.0,-31.375,-38.59375,-13.125,0.0,0.0,0.0,460
461,1696168237783,-1.015625,0.030273438,0.125,-50.75,-66.90625,-34.4375,0.0,0.0,0.0,461
462,1696168237823,-0.9355469,-0.20898438,0.0048828125,-43.84375,-71.0625,-69.90625,0.0,0.0,0.0,462
463,1696168237863,-1.1259766,-0.052734375,0.06640625,-22.90625,-39.4375,-95.46875,0.0,0.0,0.0,463
464,1696168237903,-1.2099609,0.19042969,0.09375,-53.0,-34.6875,-85.34375,0.0,0.0,0.0,464
465,1696168237943,-1.1455078,-0.018554688,0.060546875,-53.0625,-56.71875,-81.4375,0.0,0.0,0.0,465
466,1696168237983,-1.0898438,-0.21582031,0.07910156,-21.4375,-56.34375,-101.21875,0.0,0.0,0.0,466
467,1696168238023,-1.0,-0.19628906,0.109375,-4.53125,-54.40625,-124.59375,0.0,0.0,0.0,467
468,1696168238063,-0.89941406,-0.16015625,0.13085938,-2.875,-45.78125,-113.65625,-38.875,-16.9375,-86.625,468
469,1696168238103,-0.75,-0.11621094,0.16113281,-14.90625,-36.34375,-96.875,0.0,0.0,0.0,469
470,1696168238143,-0.6748047,-0.18945312,0.10839844,-21.6875,-24.5625,-82.09375,0.0,0.0,0.0,470
471,1696168238183,-0.58691406,-0.31347656,0.12011719,-7.9375,-17.46875,-57.09375,0.0,0.0,0.0,471
472,1696168238223,-0.5673828,-0.4921875,0.13574219,12.5625,-8.25,-20.15625,0.0,0.0,0.0,472
473,1696168238263,-0.4482422,-0.5097656,0.20800781,14.15625,23.84375,-2.53125,0.0,0.0,0.0,473
474,1696168238303,-0.5957031,-0.4765625,0.24707031,11.59375,33.75,17.75,0.0,0.0,0.0,474
475,1696168238343,-0.7216797,-0.44140625,0.21777344,25.5625,32.46875,26.15625,0.0,0.0,0.0,475
476,1696168238383,-1.4355469,-0.6826172,0.2783203,8.71875,30.0,-2.40625,0.0,0.0,0.0,476
477,1696168238423,-0.82910156,-0.43359375,0.36523438,12.0625,11.40625,10.46875,0.0,0.0,0.0,477
478,1696168238463,-0.7324219,-0.5595703,0.125,-7.78125,38.8125,26.71875,0.0,0.0,0.0,478
479,1696168238503,-1.3818359,-0.5839844,0.15917969,10.0625,28.78125,57.71875,0.0,0.0,0.0,479
480,1696168238543,-1.0214844,-0.40820312,0.123046875,-1.46875,37.53125,41.84375,0.0,0.0,0.0,480
481,1696168238583,-0.85839844,-0.27734375,0.07910156,-15.09375,58.75,49.78125,-35.875,-22.3125,-87.5,481
482,1696168238623,-1.0087891,-0.36328125,-0.0087890625,-9.59375,61.3125,65.84375,0.0,0.0,0.0,482
483,1696168238663,-1.0537109,-0.2607422,-0.0087890625,-7.03125,46.0625,51.8125,0.0,0.0,0.0,483
484,1696168238703,-1.0566406,-0.1640625,-0.091796875,2.0625,35.625,48.375,0.0,0.0,0.0,484
485,1696168238743,-0.8964844,-0.022460938,-0.10546875,-19.3125,31.53125,52.21875,0.0,0.0,0.0,485
486,1696168238783,-1.0068359,-0.13867188,-0.14648438,-16.375,27.15625,60.84375,0.0,0.0,0.0,486
487,1696168238823,-1.1494141,-0.27441406,-0.16210938,-16.625,18.84375,59.0,0.0,0.0,0.0,487
488,1696168238863,-0.9511719,-0.16699219,-0.095703125,7.90625,11.40625,48.875,0.0,0.0,0.0,488
489,1696168238903,-0.9609375,-0.13378906,-0.12988281,42.15625,8.15625,55.90625,0.0,0.0,0.0,489
490,1696168238943,-0.9296875,-0.052734375,-0.12011719,28.5625,6.8125,43.75,0.0,0.0,0.0,490
491,1696168238983,-0.90527344,-0.13183594,-0.07128906,13.40625,0.71875,38.3125,0.0,0.0,0.0,491
492,1696168239023,-0.921875,-0.055664062,-0.09082031,-0.0625,-2.28125,28.84375,0.0,0.0,0.0,492
493,1696168239063,-0.9375,-0.16113281,-0.068359375,-7.28125,9.5,21.90625,-48.625,-7.1875,-95.625,493
494,1696168239103,-0.94628906,-0.14648438,-0.04296875,-0.625,14.3125,15.65625,0.0,0.0,0.0,494
495,1696168239143,-0.96191406,-0.046875,-0.05859375,-2.875,8.53125,2.96875,0.0,0.0,0.0,495
496,1696168239183,-1.0869141,0.111328125,-0.17480469,1.4375,15.96875,12.75,0.0,0.0,0.0,496
497,1696168239223,-1.0361328,0.12792969,-0.15429688,-8.75,10.0,13.28125,0.0,0.0,0.0,497
498,1696168239263,-1.1933594,0.08203125,-0.15429688,-5.25,3.53125,22.125,0.0,0.0,0.0,498
499,1696168239303,-1.0097656,-0.0625,-0.18945312,-29.625,0.28125,21.21875,0.0,0.0,0.0,499
500,1696168239343,-1.0986328,-0.005859375,-0.11035156,-3.0,9.09375,19.875,0.0,0.0,0.0,500
501,1696168239383,-1.3378906,-0.13964844,-0.06347656,18.40625,10.71875,19.5625,0.0,0.0,0.0,501
502,1696168239423,-1.5166016,0.09863281,0.0048828125,13.59375,-27.65625,-1.3125,0.0,0.0,0.0,502
503,1696168239463,-1.1845703,-0.07910156,0.0546875,-26.4375,-97.65625,-42.5625,0.0,0.0,0.0,503
504,1696168239503,-0.87597656,-0.022460938,0.16113281,-60.1875,-89.5,-74.0,0.0,0.0,0.0,504
505,1696168239543,-0.9814453,-0.1640625,0.0625,-76.4375,-34.5625,-93.9375,0.0,0.0,0.0,505
506,1696168239583,-1.0771484,-0.26757812,0.0068359375,-29.9375,1.03125,-92.96875,-45.0,-7.9375,-91.875,506
507,1696168239623,-1.2275391,-0.13085938,0.37109375,28.96875,-46.53125,-85.9375,0.0,0.0,0.0,507
508,1696168239663,-1.265625,0.05078125,-0.099609375,36.53125,-64.40625,-102.875,0.0,0.0,0.0,508
509,1696168239703,-0.9667969,-0.13476562,0.14160156,-23.8125,-67.53125,-119.09375,0.0,0.0,0.0,509
510,1696168239743,-0.7705078,0.0126953125,0.11328125,-37.5625,-45.59375,-100.125,0.0,0.0,0.0,510
511,1696168239783,-0.75,-0.18359375,0.14746094,-26.375,-22.96875,-76.5,0.0,0.0,0.0,511
512,1696168239823,-0.7519531,-0.328125,0.13574219,-4.15625,-24.75,-59.15625,0.0,0.0,0.0,512
513,1696168239863,-0.55566406,-0.24023438,0.11816406,20.6875,-28.15625,-39.625,0.0,0.0,0.0,513
514,1696168239903,-0.47558594,-0.2705078,0.12402344,3.03125,7.5,-13.1875,0.0,0.0,0.0,514
515,1696168239943,-0.60058594,-0.49414062,0.080078125,-15.59375,29.71875,6.15625,0.0,0.0,0.0,515
516,1696168239983,-0.62109375,-0.53125,0.12011719,7.125,43.375,7.6875,0.0,0.0,0.0,516
517,1696168240023,-0.58496094,-0.57714844,0.35253906,9.03125,48.375,19.9375,0.0,0.0,0.0,517
518,1696168240063,-1.6455078,-0.7246094,0.12207031,-3.3125,35.75,3.03125,-31.1875,-25.3125,-87.1875,518
519,1696168240103,-0.87109375,-0.37402344,0.25585938,45.21875,12.5,-3.96875,0.0,0.0,0.0,519
520,1696168240143,-0.6933594,-0.3095703,0.17089844,21.65625,30.8125,26.21875,0.0,0.0,0.0,520
521,1696168240183,-1.3027344,-0.3857422,0.08496094,-17.65625,61.8125,59.6875,0.0,0.0,0.0,521
522,1696168240223,-1.1992188,-0.5019531,0.07519531,2.0625,53.8125,47.21875,0.0,0.0,0.0,522
523,1696168240263,-0.98828125,-0.30664062,-0.017578125,12.625,53.8125,46.625,0.0,0.0,0.0,523
524,1696168240303,-0.9121094,-0.12109375,-0.040039062,4.25,58.28125,57.0,0.0,0.0,0.0,524
525,1696168240343,-1.1650391,-0.055664062,-0.08300781,-14.96875,52.09375,53.375,0.0,0.0,0.0,525
526,1696168240383,-0.9658203,-0.12695312,-0.0234375,-30.96875,23.53125,50.8125,0.0,0.0,0.0,526
527,1696168240423,-0.9638672,-0.06933594,-0.15722656,-55.5625,35.9375,55.03125,0.0,0.0,0.0,527
528,1696168240463,-1.1416016,-0.22558594,-0.26953125,-34.3125,13.78125,56.375,0.0,0.0,0.0,528
529,1696168240503,-0.9238281,-0.27734375,-0.16113281,-10.03125,-3.75,51.5625,0.0,0.0,0.0,529
530,1696168240543,-0.94433594,-0.24023438,-0.13867188,25.0,3.40625,44.0,0.0,0.0,0.0,530
531,1696168240583,-0.92578125,-0.0703125,-0.12792969,38.0625,-0.75,37.75,-45.125,-9.875,-97.5625,531
532,1696168240623,-0.8984375,-0.053710938,-0.12988281,39.46875,-2.875,37.75,0.0,0.0,0.0,532
533,1696168240663,-0.9042969,0.029296875,-0.09472656,14.28125,5.65625,24.9375,0.0,0.0,0.0,533
534,1696168240703,-0.9785156,-0.12890625,-0.08691406,-3.875,6.75,30.875,0.0,0.0,0.0,534
535,1696168240743,-0.99902344,-0.11230469,-0.048828125,-2.40625,8.40625,17.5,0.0,0.0,0.0,535
536,1696168240783,-1.0175781,-0.068359375,-0.06738281,-1.84375,9.3125,13.15625,0.0,0.0,0.0,536
537,1696168240823,-0.9716797,-0.06542969,-0.10839844,1.8125,10.46875,14.625,0.0,0.0,0.0,537
538,1696168240863,-0.9736328,0.045898438,-0.095703125,-10.625,9.875,18.40625,0.0,0.0,0.0,538
539,1696168240903,-1.0195312,0.032226562,-0.23046875,3.46875,12.75,32.53125,0.0,0.0,0.0,539
540,1696168240943,-1.0458984,0.0078125,-0.16210938,9.5,12.9375,29.03125,0.0,0.0,0.0,540
541,1696168240983,-1.2939453,-0.00390625,-0.19238281,14.375,16.09375,19.6875,0.0,0.0,0.0,541
542,1696168241023,-1.2900391,-0.024414062,-0.15332031,7.5625,-0.875,6.15625,0.0,0.0,0.0,542
543,1696168241063,-1.2666016,0.12890625,-0.07910156,15.5,-13.375,-2.625,-48.3125,0.1875,-98.625,543
544,1696168241103,-1.1289062,0.032226562,-0.06640625,1.75,-36.5625,-18.3125,0.0,0.0,0.0,544
545,1696168241143,-1.0429688,0.107421875,0.040039062,-57.3125,-61.21875,-49.21875,0.0,0.0,0.0,545
546,1696168241183,-1.1367188,-0.02734375,-0.08300781,-73.8125,-40.84375,-61.59375,0.0,0.0,0.0,546
547,1696168241223,-1.0175781,-0.30664062,0.10253906,-37.25,-42.9375,-76.625,0.0,0.0,0.0,547
548,1696168241263,-1.0966797,-0.25585938,0.076171875,-49.875,-28.34375,-106.59375,0.0,0.0,0.0,548
549,1696168241303,-1.2929688,0.1484375,0.12597656,27.75,-45.3125,-89.0,0.0,0.0,0.0,549
550,1696168241343,-1.1240234,-0.09667969,-0.036132812,31.71875,-66.78125,-100.78125,0.0,0.0,0.0,550
551,1696168241383,-1.0234375,-0.18945312,0.038085938,-4.78125,-71.625,-114.28125,0.0,0.0,0.0,551
552,1696168241423,-0.82714844,-0.07324219,0.17089844,-18.875,-47.75,-110.90625,0.0,0.0,0.0,552
553,1696168241463,-0.8144531,-0.20019531,0.17382812,-20.46875,-27.59375,-89.90625,0.0,0.0,0.0,553
554,1696168241503,-0.6816406,-0.2763672,0.18945312,-1.65625,-26.6875,-53.46875,0.0,0.0,0.0,554
555,1696168241543,-0.67578125,-0.45117188,0.09277344,11.34375,-11.90625,-13.4375,0.0,0.0,0.0,555
556,1696168241583,-0.4970703,-0.29492188,0.123046875,15.5625,5.40625,0.34375,-28.8125,-24.6875,-85.5625,556
557,1696168241623,-0.59472656,-0.4033203,0.044921875,3.03125,36.375,3.59375,0.0,0.0,0.0,557
558,1696168241663,-0.69628906,-0.3857422,0.091796875,29.84375,27.375,8.84375,0.0,0.0,0.0,558
559,1696168241703,-0.60839844,-0.21582031,0.20800781,44.71875,35.8125,29.09375,0.0,0.0,0.0,559
560,1696168241743,-1.0966797,-0.4140625,0.12890625,7.90625,26.59375,20.8125,0.0,0.0,0.0,560
561,1696168241783,-1.2998047,-0.51660156,0.19238281,3.46875,29.28125,0.78125,0.0,0.0,0.0,561
562,1696168241823,-0.8701172,-0.3486328,0.11035156,6.6875,32.8125,20.3125,0.0,0.0,0.0,562
563,1696168241863,-1.0820312,-0.33789062,0.14746094,-16.75,60.21875,51.5625,0.0,0.0,0.0,563
564,1696168241903,-1.3867188,-0.3828125,0.08105469,-23.03125,56.5,52.0625,0.0,0.0,0.0,564
565,1696168241943,-0.84472656,-0.2109375,0.021484375,-5.3125,32.40625,45.53125,0.0,0.0,0.0,565
566,1696168241983,-0.96191406,-0.18066406,-0.06542969,-21.5625,46.0,61.4375,0.0,0.0,0.0,566
567,1696168242023,-1.0625,-0.20019531,-0.15136719,-22.40625,43.625,49.46875,0.0,0.0,0.0,567
568,1696168242063,-0.9238281,-0.025390625,-0.12011719,-22.59375,32.75,42.28125,-40.625,-15.4375,-95.3125,568
569,1696168242103,-0.9980469,-0.059570312,-0.21679688,-30.65625,22.625,53.875,0.0,0.0,0.0,569
570,1696168242143,-1.1152344,-0.29589844,-0.14355469,-12.65625,17.375,54.78125,0.0,0.0,0.0,570
571,1696168242183,-0.9472656,-0.25683594,-0.1484375,4.25,5.90625,43.5,0.0,0.0,0.0,571
572,1696168242223,-0.9560547,-0.087890625,-0.15625,38.75,6.5625,41.125,0.0,0.0,0.0,572
573,1696168242263,-0.9423828,0.0,-0.11816406,43.375,-8.4375,40.21875,0.0,0.0,0.0,573
574,1696168242303,-0.93359375,-0.13964844,-0.09082031,23.59375,-1.96875,35.25,0.0,0.0,0.0,574
575,1696168242343,-0.953125,-0.022460938,-0.07324219,14.5,10.84375,22.8125,0.0,0.0,0.0,575
576,1696168242383,-0.9248047,-0.026367188,-0.1015625,-11.90625,4.9375,22.9375,0.0,0.0,0.0,576
577,1696168242423,-0.9628906,-0.056640625,-0.14648438,-7.21875,11.75,20.90625,0.0,0.0,0.0,577
578,1696168242463,-0.95214844,-0.053710938,-0.12109375,3.90625,15.84375,18.40625,0.0,0.0,0.0,578
579,1696168242503,-1.0117188,-0.057617188,-0.109375,3.71875,17.3125,13.0,0.0,0.0,0.0,579
580,1696168242543,-1.0214844,-0.048828125,-0.15820312,-14.84375,10.78125,7.25,0.0,0.0,0.0,580
581,1696168242583,-1.0634766,-0.0107421875,-0.18066406,10.46875,13.71875,7.90625,-47.375,-4.0,-101.4375,581
582,1696168242623,-1.1103516,0.10058594,-0.2265625,1.5,14.5,24.28125,0.0,0.0,0.0,582
583,1696168242663,-1.0810547,-0.055664062,-0.20800781,-7.71875,4.5,18.53125,0.0,0.0,0.0,583
584,1696168242703,-1.1992188,-0.07128906,-0.16796875,7.375,8.71875,7.375,0.0,0.0,0.0,584
585,1696168242743,-1.3261719,0.09863281,-0.107421875,27.09375,1.21875,3.03125,0.0,0.0,0.0,585
586,1696168242783,-1.2763672,0.24414062,-0.11035156,13.21875,-19.125,-0.25,0.0,0.0,0.0,586
587,1696168242823,-1.1347656,0.095703125,-0.052734375,-62.5625,-54.8125,-21.4375,0.0,0.0,0.0,587
588,1696168242863,-0.9589844,-0.07910156,0.13867188,-71.3125,-94.5,-42.96875,0.0,0.0,0.0,588
589,1696168242903,-0.9394531,-0.34765625,0.09863281,-54.6875,-50.78125,-84.96875,0.0,0.0,0.0,589
590,1696168242943,-1.2763672,-0.0546875,0.01953125,-60.125,-36.34375,-120.8125,0.0,0.0,0.0,590
591,1696168242983,-1.1269531,0.053710938,0.14550781,-28.8125,-55.0625,-99.4375,0.0,0.0,0.0,591
592,1696168243023,-1.2304688,-0.053710938,0.03125,21.59375,-73.875,-92.90625,0.0,0.0,0.0,592
593,1696168243063,-0.99121094,-0.37402344,0.005859375,19.8125,-75.5625,-110.4375,-39.4375,-16.3125,-89.625,593
594,1696168243103,-0.8798828,-0.028320312,0.17675781,-32.84375,-61.78125,-121.71875,0.0,0.0,0.0,594
595,1696168243143,-0.7373047,-0.171875,0.12988281,-2.46875,-32.4375,-94.1875,0.0,0.0,0.0,595
596,1696168243183,-0.81933594,-0.29296875,0.1796875,-12.21875,-28.53125,-79.125,0.0,0.0,0.0,596
597,1696168243223,-0.59277344,-0.2841797,0.15527344,0.28125,-16.3125,-55.8125,0.0,0.0,0.0,597
598,1696168243263,-0.38964844,-0.26660156,0.11035156,27.15625,-10.09375,-24.75,0.0,0.0,0.0,598
599,1696168243303,-0.54785156,-0.4736328,0.091796875,1.5,11.53125,0.34375,0.0,0.0,0.0,599
600,1696168243343,-0.55566406,-0.4794922,0.18164062,2.25,41.71875,-2.34375,0.0,0.0,0.0,600
601,1696168243383,-0.5859375,-0.4404297,0.125,6.15625,50.15625,10.46875,0.0,0.0,0.0,601
602,1696168243423,-1.0292969,-0.6640625,0.43652344,-2.28125,46.90625,21.96875,0.0,0.0,0.0,602
603,1696168243463,-1.5810547,-0.6376953,0.4169922,11.40625,36.1875,11.9375,0.0,0.0,0.0,603
604,1696168243503,-0.8251953,-0.33203125,0.16210938,25.0625,26.65625,23.0,0.0,0.0,0.0,604
605,1696168243543,-0.9355469,-0.37695312,0.0546875,-19.0,37.9375,61.875,0.0,0.0,0.0,605
606,1696168243583,-1.4082031,-0.5253906,0.16503906,-39.0625,70.96875,66.75,-32.125,-23.1875,-88.6875,606
607,1696168243623,-0.89453125,-0.37109375,-0.015625,18.40625,37.9375,49.375,0.0,0.0,0.0,607
608,1696168243663,-0.78808594,-0.10839844,0.0009765625,6.03125,43.5625,51.5,0.0,0.0,0.0,608
609,1696168243703,-1.1533203,-0.19628906,-0.025390625,-16.6875,49.65625,52.34375,0.0,0.0,0.0,609
610,1696168243743,-0.9472656,-0.041015625,-0.044921875,-22.53125,37.03125,40.03125,0.0,0.0,0.0,610
611,1696168243783,-0.9609375,-0.15332031,-0.15332031,-39.875,40.625,60.65625,0.0,0.0,0.0,611
612,1696168243823,-1.1162109,-0.26171875,-0.23339844,-38.59375,23.25,62.59375,0.0,0.0,0.0,612
613,1696168243863,-1.0185547,-0.32617188,-0.15429688,-4.34375,7.4375,46.5625,0.0,0.0,0.0,613
614,1696168243903,-0.9296875,-0.15625,-0.16601562,30.3125,-0.125,46.4375,0.0,0.0,0.0,614
615,1696168243943,-0.9814453,-0.08300781,-0.14453125,47.53125,-7.65625,48.15625,0.0,0.0,0.0,615
616,1696168243983,-0.95703125,-0.14550781,-0.12695312,31.34375,-5.15625,40.21875,0.0,0.0,0.0,616
617,1696168244023,-0.9091797,-0.10058594,-0.091796875,29.59375,4.8125,25.25,0.0,0.0,0.0,617
618,1696168244063,-0.9589844,0.0029296875,-0.05859375,5.90625,9.5625,28.78125,-44.6875,-9.875,-96.5,618
619,1696168244103,-0.9824219,-0.12695312,-0.08886719,-0.125,10.65625,31.0,0.0,0.0,0.0,619
620,1696168244143,-0.9003906,-0.09765625,-0.051757812,1.875,0.28125,19.03125,0.0,0.0,0.0,620
621,1696168244183,-0.93359375,-0.10546875,-0.11621094,0.0,11.71875,18.0,0.0,0.0,0.0,621
622,1696168244223,-0.9814453,-0.08300781,-0.17675781,11.28125,6.34375,10.1875,0.0,0.0,0.0,796
623,1696168244263,-1.0878906,0.0859375,-0.1875,-1.59375,12.5625,13.40625,0.0,0.0,0.0,797
624,1696168244303,-1.1689453,-0.060546875,-0.22167969,1.15625,2.25,15.0,0.0,0.0,0.0,798
625,1696168244343,-1.3037109,-0.07519531,-0.17382812,13.21875,-4.46875,1.875,0.0,0.0,0.0,799
626,1696168244383,-1.5087891,-0.00390625,-0.16308594,24.28125,-4.65625,0.09375,0.0,0.0,0.0,800
627,1696168244423,-1.3330078,0.0,-0.060546875,7.5,-43.09375,-7.59375,0.0,0.0,0.0,801
628,1696168244463,-1.0839844,0.08886719,0.12597656,-32.1875,-72.15625,-27.125,0.0,0.0,0.0,802
629,1696168244503,-1.0332031,-0.06542969,-0.12597656,-64.03125,-98.03125,-47.625,0.0,0.0,0.0,803
630,1696168244543,-0.96777344,-0.30566406,0.13378906,-94.875,-69.96875,-83.75,0.0,0.0,0.0,804
631,1696168244583,-1.1923828,-0.052734375,0.09472656,-94.0625,-35.40625,-113.59375,0.0,0.0,0.0,805
632,1696168244623,-1.2167969,-0.13476562,0.12890625,6.40625,-70.3125,-98.90625,-40.9375,-12.25,-92.125,806
633,1696168244663,-1.1025391,-0.026367188,0.091796875,38.6875,-98.84375,-121.46875,0.0,0.0,0.0,807
634,1696168244703,-0.89453125,-0.14648438,0.11328125,18.125,-95.40625,-113.25,0.0,0.0,0.0,808
635,1696168244743,-0.76660156,0.0068359375,0.1640625,-36.75,-59.40625,-105.3125,0.0,0.0,0.0,809
636,1696168244783,-0.59375,-0.22558594,0.13867188,-23.15625,-35.40625,-80.65625,0.0,0.0,0.0,810
637,1696168244823,-0.6640625,-0.4111328,0.18457031,-11.90625,-32.0625,-60.25,0.0,0.0,0.0,811
638,1696168244863,-0.59277344,-0.32128906,0.13183594,9.5,-12.53125,-36.28125,0.0,0.0,0.0,812
639,1696168244903,-0.3623047,-0.29785156,0.15429688,17.6875,-3.5625,-11.25,0.0,0.0,0.0,813
640,1696168244943,-0.4453125,-0.5566406,0.21289062,9.375,22.5,-1.3125,0.0,0.0,0.0,814
641,1696168244983,-0.6269531,-0.5644531,0.21386719,13.71875,38.875,-1.71875,0.0,0.0,0.0,815
642,1696168245023,-0.67285156,-0.29296875,0.3154297,23.125,42.03125,17.625,0.0,0.0,0.0,816
643,1696168245063,-1.3818359,-0.7685547,0.57714844,5.90625,9.03125,28.0625,0.0,0.0,0.0,817
644,1696168245103,-1.0263672,-0.55566406,0.41601562,10.90625,47.96875,-17.90625,-26.125,-25.3125,-83.3125,818
645,1696168245143,-0.48632812,-0.27734375,0.38867188,36.65625,2.125,16.15625,0.0,0.0,0.0,819
646,1696168245183,-0.85253906,-0.45507812,0.29785156,-11.90625,38.1875,37.40625,0.0,0.0,0.0,820
647,1696168245223,-1.5400391,-0.5917969,0.28027344,-23.21875,42.84375,52.84375,0.0,0.0,0.0,821
648,1696168245263,-1.0517578,-0.4296875,0.16796875,5.53125,58.03125,49.25,0.0,0.0,0.0,822
649,1696168245303,-1.0634766,-0.25195312,0.08496094,-11.1875,66.15625,62.3125,0.0,0.0,0.0,823
650,1696168245343,-0.8652344,-0.19726562,-0.0146484375,-23.09375,73.78125,60.65625,0.0,0.0,0.0,824
651,1696168245383,-1.0703125,-0.19628906,-0.01171875,-7.875,51.8125,57.59375,0.0,0.0,0.0,825
652,1696168245423,-0.9863281,-0.24121094,-0.044921875,-8.5,24.46875,45.625,0.0,0.0,0.0,826
653,1696168245463,-0.8017578,-0.032226562,-0.17285156,-25.78125,23.71875,41.3125,0.0,0.0,0.0,827
654,1696168245503,-1.0322266,-0.14453125,-0.16015625,-23.8125,29.53125,54.78125,0.0,0.0,0.0,828
655,1696168245543,-1.1074219,-0.38183594,-0.1484375,-30.84375,20.5,44.0625,0.0,0.0,0.0,829
656,1696168245583,-0.9248047,-0.19824219,-0.09472656,24.59375,-3.0625,38.875,0.0,0.0,0.0,830
657,1696168245623,-0.97265625,-0.064453125,-0.08300781,43.5625,6.5625,41.78125,-42.4375,-10.75,-95.625,831
658,1696168245663,-0.93066406,-0.203125,-0.115234375,29.84375,17.0625,39.40625,0.0,0.0,0.0,832
659,1696168245703,-0.9453125,-0.15234375,-0.036132812,32.34375,20.90625,27.75,0.0,0.0,0.0,833
660,1696168245743,-0.9589844,-0.0087890625,-0.005859375,9.5,14.9375,20.125,0.0,0.0,0.0,834
661,1696168245783,-0.9550781,-0.19238281,-0.08984375,-1.3125,13.53125,31.59375,0.0,0.0,0.0,835
662,1696168245823,-0.8642578,-0.140625,-0.028320312,6.28125,7.90625,18.96875,0.0,0.0,0.0,836
663,1696168245863,-0.94433594,-0.08300781,-0.1015625,-3.75,16.03125,15.71875,0.0,0.0,0.0,837
664,1696168245903,-1.0009766,-0.17480469,-0.0390625,-6.25,26.15625,13.03125,0.0,0.0,0.0,838
665,1696168245943,-1.0654297,-0.06347656,-0.15820312,0.0,18.0625,8.15625,0.0,0.0,0.0,839
666,1696168245983,-1.078125,0.09765625,-0.11425781,23.3125,22.4375,13.03125,0.0,0.0,0.0,840
667,1696168246023,-1.1552734,-0.0048828125,-0.22363281,19.21875,18.28125,26.53125,0.0,0.0,0.0,841
668,1696168246063,-1.140625,-0.0068359375,-0.16210938,10.46875,13.28125,28.0,0.0,0.0,0.0,842
669,1696168246103,-1.2958984,0.032226562,-0.12890625,10.84375,15.5,20.96875,-47.6875,-2.375,-99.625,843
670,1696168246143,-1.3896484,-0.08886719,-0.14453125,10.53125,-10.28125,4.9375,0.0,0.0,0.0,844
671,1696168246183,-1.1875,0.11035156,-0.12988281,3.15625,-37.0,-9.59375,0.0,0.0,0.0,845
672,1696168246223,-1.0419922,0.16796875,0.024414062,-39.4375,-60.875,-23.5,0.0,0.0,0.0,846
673,1696168246263,-0.9902344,-0.029296875,0.05078125,-76.25,-90.46875,-45.4375,0.0,0.0,0.0,847
674,1696168246303,-0.9238281,-0.2783203,0.08496094,-80.28125,-68.25,-83.03125,0.0,0.0,0.0,848
675,1696168246343,-1.1943359,-0.16210938,0.20996094,-55.0625,-56.40625,-106.9375,0.0,0.0,0.0,849
676,1696168246383,-1.2509766,0.061523438,0.15527344,-41.8125,-60.4375,-94.25,0.0,0.0,0.0,850
677,1696168246423,-1.1171875,0.14355469,-0.0029296875,19.40625,-97.78125,-87.65625,0.0,0.0,0.0,851
678,1696168246463,-0.984375,-0.3310547,0.119140625,-7.53125,-87.25,-95.90625,0.0,0.0,0.0,852
679,1696168246503,-0.89941406,-0.14453125,0.25683594,-66.25,-61.34375,-125.9375,0.0,0.0,0.0,853
680,1696168246543,-0.703125,-0.21484375,0.14550781,3.15625,-44.75,-94.375,0.0,0.0,0.0,854
681,1696168246583,-0.6894531,-0.27734375,0.22558594,4.375,-39.375,-69.40625,0.0,0.0,0.0,855
682,1696168246623,-0.5576172,-0.23242188,0.16503906,1.8125,-29.1875,-43.28125,-26.875,-25.625,-85.125,856
683,1696168246663,-0.4326172,-0.2734375,0.20800781,29.84375,-15.875,-22.40625,0.0,0.0,0.0,857
684,1696168246703,-0.4892578,-0.4013672,0.21386719,15.71875,11.03125,-3.375,0.0,0.0,0.0,858
685,1696168246743,-0.54296875,-0.67285156,0.2529297,6.21875,39.59375,7.125,0.0,0.0,0.0,859
686,1696168246783,-0.58496094,-0.6533203,0.23535156,8.71875,51.6875,13.71875,0.0,0.0,0.0,860
687,1696168246823,-1.3125,-0.53515625,0.28515625,2.0,43.3125,0.84375,0.0,0.0,0.0,861
688,1696168246863,-0.9765625,-0.38867188,0.3232422,44.71875,38.3125,5.90625,0.0,0.0,0.0,862
689,1696168246903,-0.5566406,-0.2529297,0.34960938,26.03125,21.09375,-7.21875,0.0,0.0,0.0,863
690,1696168246943,-0.953125,-0.38183594,0.2841797,-8.0625,39.40625,36.71875,0.0,0.0,0.0,864
691,1696168246983,-1.1269531,-0.53515625,0.33789062,-16.5625,38.6875,24.75,0.0,0.0,0.0,865
692,1696168247023,-0.9140625,-0.48242188,0.22851562,4.9375,35.03125,25.9375,0.0,0.0,0.0,866
693,1696168247063,-1.0966797,-0.45117188,0.171875,-16.25,45.875,47.53125,0.0,0.0,0.0,867
694,1696168247103,-0.9121094,-0.33203125,0.061523438,-21.625,49.71875,54.5625,-34.5,-22.1875,-87.625,868
695,1696168247143,-1.0117188,-0.265625,0.017578125,-25.03125,47.78125,50.34375,0.0,0.0,0.0,869
696,1696168247183,-1.1220703,-0.29296875,-0.076171875,-10.34375,51.75,54.84375,0.0,0.0,0.0,870
697,1696168247223,-0.98339844,-0.16601562,-0.059570312,-2.21875,41.5,39.59375,0.0,0.0,0.0,871
698,1696168247263,-0.9267578,-0.14648438,-0.046875,-13.875,53.5625,36.84375,0.0,0.0,0.0,872
699,1696168247303,-1.0625,-0.16699219,-0.055664062,-14.90625,42.03125,47.03125,0.0,0.0,0.0,873
700,1696168247343,-1.1748047,-0.17675781,-0.07714844,-2.21875,8.65625,48.875,0.0,0.0,0.0,874
701,1696168247383,-0.9628906,-0.14160156,-0.12890625,6.6875,12.5,56.0625,0.0,0.0,0.0,875
702,1696168247423,-1.0341797,-0.24023438,-0.057617188,32.28125,0.09375,58.9375,0.0,0.0,0.0,876
703,1696168247463,-0.92578125,-0.2998047,-0.12695312,45.53125,0.09375,43.0625,0.0,0.0,0.0,877
704,1696168247503,-0.86621094,-0.1171875,-0.052734375,51.9375,-2.75,33.5,0.0,0.0,0.0,878
705,1696168247543,-0.921875,-0.026367188,-0.06933594,21.84375,14.5,32.46875,0.0,0.0,0.0,879
706,1696168247583,-0.9453125,-0.06542969,-0.059570312,7.125,15.71875,27.21875,0.0,0.0,0.0,880
707,1696168247623,-0.8886719,-0.12402344,-0.09277344,-5.15625,17.125,27.28125,-47.375,-5.8125,-96.375,881
708,1696168247663,-0.9267578,-0.1875,-0.0546875,5.34375,25.3125,12.375,0.0,0.0,0.0,882
709,1696168247703,-1.0634766,-0.0107421875,-0.12402344,13.53125,24.9375,9.5625,0.0,0.0,0.0,883
710,1696168247743,-1.1044922,0.08496094,-0.17480469,12.75,18.96875,18.53125,0.0,0.0,0.0,884
711,1696168247783,-1.0732422,0.19433594,-0.17285156,-3.96875,20.125,19.53125,0.0,0.0,0.0,885
712,1696168247823,-1.1171875,0.10253906,-0.20019531,-12.03125,11.53125,24.65625,0.0,0.0,0.0,886
713,1696168247863,-1.1191406,0.0146484375,-0.12207031,-13.4375,-0.4375,20.1875,0.0,0.0,0.0,887
714,1696168247903,-1.1445312,0.056640625,-0.1875,-3.375,-1.96875,19.40625,0.0,0.0,0.0,888
715,1696168247943,-1.3828125,0.16308594,-0.037109375,-19.84375,-9.71875,6.6875,0.0,0.0,0.0,889
716,1696168247983,-1.1650391,0.0048828125,0.017578125,-47.75,-50.5625,-9.0625,0.0,0.0,0.0,890
717,1696168248023,-1.0517578,-0.08984375,0.25976562,-68.5,-85.21875,-44.21875,0.0,0.0,0.0,891
718,1696168248063,-0.984375,-0.2578125,0.038085938,-77.96875,-57.09375,-87.84375,0.0,0.0,0.0,892
719,1696168248103,-1.2099609,-0.034179688,0.10253906,-32.4375,-37.0625,-101.28125,-46.9375,-5.9375,-93.0625,893
720,1696168248143,-1.1650391,0.0126953125,0.16601562,-51.84375,-44.15625,-108.65625,0.0,0.0,0.0,894
721,1696168248183,-1.3251953,0.16796875,0.022460938,3.71875,-75.03125,-90.46875,0.0,0.0,0.0,895
722,1696168248223,-1.0898438,-0.33007812,0.10644531,-27.78125,-81.3125,-127.59375,0.0,0.0,0.0,896
723,1696168248263,-0.7988281,-0.04296875,0.09667969,-48.0,-60.5625,-131.84375,0.0,0.0,0.0,897
724,1696168248303,-0.6669922,-0.27441406,0.21191406,-38.65625,-29.3125,-117.5625,0.0,0.0,0.0,898
725,1696168248343,-0.65722656,-0.30859375,0.13574219,-4.78125,-33.03125,-86.5625,0.0,0.0,0.0,899
726,1696168248383,-0.6191406,-0.36914062,0.140625,17.6875,-35.0,-55.125,0.0,0.0,0.0,900
727,1696168248423,-0.4189453,-0.33984375,0.115234375,23.25,-4.46875,-19.4375,0.0,0.0,0.0,901
728,1696168248463,-0.4169922,-0.43554688,0.16113281,19.15625,18.96875,0.21875,0.0,0.0,0.0,902
729,1696168248503,-0.5605469,-0.59375,0.23242188,22.75,53.8125,18.71875,0.0,0.0,0.0,903
730,1696168248543,-0.875,-0.48046875,0.35742188,17.3125,28.96875,18.96875,0.0,0.0,0.0,904
731,1696168248583,-1.4335938,-0.32128906,0.12988281,5.59375,85.5625,43.75,0.0,0.0,0.0,905
732,1696168248623,-0.90527344,-0.578125,0.33496094,13.15625,22.03125,6.15625,-31.375,-24.4375,-87.625,906
733,1696168248663,-0.80566406,-0.3330078,0.20117188,15.0,45.5625,31.65625,0.0,0.0,0.0,907
734,1696168248703,-1.3808594,-0.4658203,0.1171875,-11.78125,51.0625,63.03125,0.0,0.0,0.0,908
735,1696168248743,-0.953125,-0.24023438,0.020507812,-4.59375,51.375,46.375,0.0,0.0,0.0,909
736,1696168248783,-0.91503906,-0.32421875,-0.059570312,-8.9375,65.40625,53.5,0.0,0.0,0.0,910
737,1696168248823,-1.09375,-0.3798828,-0.024414062,-13.5625,68.40625,45.8125,0.0,0.0,0.0,911
738,1696168248863,-1.0742188,-0.18847656,-0.044921875,2.78125,29.90625,40.09375,0.0,0.0,0.0,912
739,1696168248903,-0.90234375,0.0048828125,-0.033203125,-2.21875,29.09375,46.6875,0.0,0.0,0.0,913
740,1696168248943,-0.97265625,-0.115234375,-0.13964844,-25.78125,31.46875,52.78125,0.0,0.0,0.0,914
741,1696168248983,-1.0791016,-0.27441406,-0.13378906,-26.0625,23.0625,44.25,0.0,0.0,0.0,915
742,1696168249023,-1.0605469,-0.3076172,-0.14453125,-7.53125,8.09375,43.3125,0.0,0.0,0.0,916
743,1696168249063,-0.9794922,-0.076171875,-0.18164062,40.34375,-0.6875,48.1875,0.0,0.0,0.0,917
744,1696168249103,-0.96777344,-0.10253906,-0.16796875,40.75,4.6875,48.625,-45.875,-10.9375,-97.875,918
745,1696168249143,-0.921875,-0.1484375,-0.10644531,34.40625,5.78125,33.96875,0.0,0.0,0.0,919
746,1696168249183,-0.88378906,-0.0009765625,-0.09082031,27.9375,6.9375,28.375,0.0,0.0,0.0,920
747,1696168249223,-0.8964844,-0.021484375,-0.07324219,2.65625,6.5625,30.875,0.0,0.0,0.0,921
748,1696168249263,-0.9667969,-0.15332031,-0.087890625,-11.90625,17.6875,28.4375,0.0,0.0,0.0,922
749,1696168249303,-0.9355469,-0.23632812,-0.0625,-0.25,16.46875,24.34375,0.0,0.0,0.0,923
750,1696168249343,-0.9814453,-0.060546875,-0.1015625,12.1875,7.5625,20.3125,0.0,0.0,0.0,924
751,1696168249383,-0.984375,0.0107421875,-0.15527344,2.25,17.375,16.9375,0.0,0.0,0.0,925
752,1696168249423,-1.1757812,0.0068359375,-0.15917969,1.09375,25.5625,25.5625,0.0,0.0,0.0,926
753,1696168249463,-1.0615234,0.043945312,-0.16503906,2.0,9.25,24.21875,0.0,0.0,0.0,927
754,1696168249503,-1.1269531,0.107421875,-0.171875,-9.0625,0.78125,21.84375,0.0,0.0,0.0,928
755,1696168249543,-1.1855469,-0.0546875,-0.17675781,-11.6875,5.0,18.78125,0.0,0.0,0.0,929
756,1696168249583,-1.34375,0.072265625,-0.10058594,0.84375,-2.8125,9.25,0.0,0.0,0.0,930
757,1696168249623,-1.2783203,0.1953125,-0.08984375,-1.65625,-27.96875,7.5,-49.8125,-0.25,-99.1875,931
758,1696168249663,-1.0537109,0.030273438,0.0068359375,-53.78125,-53.0625,-19.375,0.0,0.0,0.0,932
759,1696168249703,-1.0107422,0.07324219,0.053710938,-61.125,-70.9375,-40.125,0.0,0.0,0.0,933
