,timestamp,accel_x,accel_y,accel_z,gyro_x,gyro_y,gyro_z,mag_x,mag_y,mag_z,ind
0,1695809891759,0.4404297,0.8339844,-0.0029296875,-31.625,38.375,-15.28125,0.0,0.0,0.0,0
1,1695809891799,0.42773438,0.84277344,-0.026367188,-30.9375,36.78125,-21.5625,0.0,0.0,0.0,1
2,1695809891839,0.5,0.8613281,-0.03125,-27.78125,37.21875,-25.65625,0.0,0.0,0.0,2
3,1695809891879,0.40039062,0.93359375,0.10449219,-39.0625,24.5,-25.03125,0.0,0.0,0.0,3
4,1695809891919,0.3203125,0.9814453,0.08984375,-29.0625,34.53125,-10.9375,0.0,0.0,0.0,4
5,1695809891959,0.3359375,0.9863281,-0.1015625,-13.375,52.40625,-6.0625,0.0,0.0,0.0,5
6,1695809891999,0.6582031,0.79589844,0.022460938,3.0625,59.375,-9.53125,0.0,0.0,0.0,6
7,1695809892039,0.63378906,1.0517578,0.13378906,28.1875,19.9375,-3.5,0.0,0.0,0.0,7
8,1695809892079,0.55371094,1.2050781,0.31152344,47.78125,-27.3125,11.21875,0.0,0.0,0.0,8
9,1695809892119,0.27539062,1.1142578,0.1171875,72.625,-80.21875,25.5,0.0,0.0,0.0,9
10,1695809892159,0.3486328,1.2363281,-0.053710938,102.28125,-74.5625,7.25,0.0,0.0,0.0,10
11,1695809892199,0.23144531,1.140625,-0.06542969,107.1875,-39.03125,10.78125,-17.375,39.3125,-144.625,11
12,1695809892239,0.3046875,0.9794922,-0.0126953125,120.125,-35.78125,11.8125,0.0,0.0,0.0,12
13,1695809892279,0.38378906,0.8232422,-0.15820312,92.53125,-61.1875,4.375,0.0,0.0,0.0,13
14,1695809892319,0.29492188,0.875,-0.20410156,58.71875,-77.40625,13.03125,0.0,0.0,0.0,14
15,1695809892359,0.24902344,0.7324219,-0.2421875,46.75,-63.3125,19.625,0.0,0.0,0.0,15
16,1695809892399,0.20605469,0.6738281,-0.21679688,11.21875,-50.6875,19.6875,0.0,0.0,0.0,16
17,1695809892439,0.14355469,0.5957031,-0.2109375,-24.71875,-42.1875,3.65625,0.0,0.0,0.0,17
18,1695809892479,0.15625,0.58496094,-0.2734375,-30.03125,-13.09375,-9.0625,0.0,0.0,0.0,18
19,1695809892519,0.22949219,0.5546875,-0.38085938,-53.59375,32.25,-9.53125,0.0,0.0,0.0,19
20,1695809892559,0.40039062,0.83203125,-0.5136719,-69.03125,30.75,-6.90625,0.0,0.0,0.0,20
21,1695809892599,0.50683594,1.2578125,-0.5097656,-19.84375,-17.65625,6.09375,0.0,0.0,0.0,21
22,1695809892639,0.5214844,0.9707031,-0.6279297,6.40625,-32.75,4.3125,0.0,0.0,0.0,22
23,1695809892679,0.22851562,0.7939453,-0.4951172,-7.875,-32.875,31.65625,0.0,0.0,0.0,23
24,1695809892719,0.123046875,1.6396484,-0.3310547,-33.25,-24.6875,-2.84375,-19.8125,37.5625,-151.25,24
25,1695809892759,0.16015625,1.1591797,-0.17382812,8.125,7.25,-10.75,0.0,0.0,0.0,25
26,1695809892799,-0.01171875,0.60058594,0.0859375,-3.25,44.84375,14.6875,0.0,0.0,0.0,26
27,1695809892839,0.3720703,0.93066406,-0.044921875,-13.25,12.78125,-12.15625,0.0,0.0,0.0,27
28,1695809892879,0.546875,1.1308594,-0.025390625,-19.90625,77.1875,14.5625,0.0,0.0,0.0,28
29,1695809892919,0.22167969,0.9238281,-0.09667969,-32.28125,71.09375,16.6875,0.0,0.0,0.0,29
30,1695809892959,0.38378906,0.8486328,-0.0703125,-18.25,65.09375,14.8125,0.0,0.0,0.0,30
31,1695809892999,0.3095703,0.8515625,0.07421875,-25.34375,64.625,7.71875,0.0,0.0,0.0,31
32,1695809893039,0.41503906,0.8623047,-0.09472656,-35.9375,55.6875,1.5625,0.0,0.0,0.0,32
33,1695809893079,0.42578125,0.76660156,-0.041992188,-34.4375,55.6875,-5.5,0.0,0.0,0.0,33
34,1695809893119,0.4609375,0.7890625,-0.0078125,-38.03125,38.96875,-17.0625,0.0,0.0,0.0,34
35,1695809893159,0.46875,0.8339844,-0.013671875,-34.0,25.375,-25.53125,0.0,0.0,0.0,35
36,1695809893199,0.4658203,0.8701172,-0.076171875,-27.03125,22.6875,-26.4375,-14.25,38.0,-145.25,36
37,1695809893239,0.5214844,0.90722656,-0.02734375,-26.71875,19.3125,-30.125,0.0,0.0,0.0,37
38,1695809893279,0.3486328,0.9501953,0.013671875,-35.46875,19.6875,-18.21875,0.0,0.0,0.0,38
39,1695809893319,0.44921875,0.86328125,0.0087890625,-26.375,20.78125,-8.8125,0.0,0.0,0.0,39
40,1695809893359,0.5625,0.86035156,-0.029296875,-24.90625,23.90625,-13.15625,0.0,0.0,0.0,40
41,1695809893399,0.6816406,1.0273438,0.17675781,0.96875,6.1875,-16.0,0.0,0.0,0.0,41
42,1695809893439,0.4189453,1.2246094,0.16015625,24.0625,-23.21875,1.625,0.0,0.0,0.0,42
43,1695809893479,0.2763672,1.1132812,0.17578125,62.1875,-63.0625,19.8125,0.0,0.0,0.0,43
44,1695809893519,0.32714844,1.0859375,-0.015625,96.125,-85.28125,13.96875,0.0,0.0,0.0,44
45,1695809893559,0.24511719,1.2363281,-0.026367188,100.65625,-59.90625,16.8125,0.0,0.0,0.0,45
46,1695809893599,0.26660156,1.0673828,-0.080078125,113.09375,-43.65625,20.125,0.0,0.0,0.0,46
47,1695809893639,0.34960938,0.9472656,-0.125,98.15625,-57.46875,16.59375,0.0,0.0,0.0,47
48,1695809893679,0.33496094,0.83203125,-0.13183594,63.84375,-106.96875,14.03125,0.0,0.0,0.0,48
49,1695809893719,0.28515625,0.82910156,-0.23242188,42.84375,-114.78125,25.96875,-18.75,36.0625,-155.125,49
50,1695809893759,0.22265625,0.7441406,-0.22265625,22.09375,-79.125,34.28125,0.0,0.0,0.0,50
51,1695809893799,0.15234375,0.5917969,-0.23828125,-12.9375,-68.125,30.75,0.0,0.0,0.0,51
52,1695809893839,0.11425781,0.5957031,-0.1640625,-10.625,-51.46875,20.5625,0.0,0.0,0.0,52
53,1695809893879,0.15917969,0.5136719,-0.16894531,-29.3125,-26.28125,14.5625,0.0,0.0,0.0,53
54,1695809893919,0.22949219,0.74121094,-0.46191406,-64.40625,-11.0,10.0,0.0,0.0,0.0,54
55,1695809893959,0.3779297,1.0761719,-0.54296875,-24.46875,-31.9375,22.25,0.0,0.0,0.0,55
56,1695809893999,0.515625,0.9042969,-0.62597656,6.59375,-67.09375,34.71875,0.0,0.0,0.0,56
57,1695809894039,0.3955078,0.5419922,-0.3515625,33.03125,-80.03125,56.3125,0.0,0.0,0.0,57
58,1695809894079,0.22558594,1.1435547,-0.21191406,26.25,-80.96875,83.40625,0.0,0.0,0.0,58
59,1695809894119,0.5019531,1.2294922,-0.45898438,23.6875,-100.3125,45.09375,0.0,0.0,0.0,59
60,1695809894159,0.076171875,0.33007812,-0.4736328,43.09375,-183.25,-6.84375,0.0,0.0,0.0,60
61,1695809894199,0.3828125,1.0058594,-0.19921875,41.6875,-52.5625,61.4375,-21.625,33.1875,-158.625,61
62,1695809894239,0.22363281,1.015625,-0.39453125,24.40625,-37.375,27.125,0.0,0.0,0.0,62
63,1695809894279,0.5175781,0.7949219,-0.4736328,8.0,-14.3125,33.1875,0.0,0.0,0.0,63
64,1695809894319,0.23828125,0.7236328,-0.47460938,-3.0,-20.09375,34.84375,0.0,0.0,0.0,64
65,1695809894359,0.45898438,0.8066406,-0.6064453,0.65625,-25.09375,38.75,0.0,0.0,0.0,65
66,1695809894399,0.39648438,0.6142578,-0.6464844,-16.0625,-28.53125,50.5625,0.0,0.0,0.0,66
67,1695809894439,0.35839844,0.6777344,-0.6074219,11.96875,-42.5625,44.21875,0.0,0.0,0.0,67
68,1695809894479,0.24316406,0.578125,-0.59375,7.375,-7.28125,28.71875,0.0,0.0,0.0,68
69,1695809894519,0.48339844,0.5,-0.5058594,16.28125,8.21875,14.75,0.0,0.0,0.0,69
70,1695809894559,0.34960938,0.3876953,-0.48046875,19.65625,-1.4375,6.625,0.0,0.0,0.0,70
71,1695809894599,0.390625,0.49414062,-0.5683594,40.84375,0.71875,1.0625,0.0,0.0,0.0,71
72,1695809894639,0.51171875,0.48535156,-0.5625,36.0625,6.4375,6.21875,0.0,0.0,0.0,72
73,1695809894679,0.38671875,0.4326172,-0.6357422,34.84375,-7.96875,14.375,0.0,0.0,0.0,73
74,1695809894719,0.4013672,0.5576172,-0.6503906,39.625,0.84375,18.78125,-16.5,28.375,-161.75,74
75,1695809894759,0.35546875,0.58203125,-0.7451172,34.5,-9.4375,15.96875,0.0,0.0,0.0,75
76,1695809894799,0.4814453,0.5410156,-0.8017578,35.53125,2.78125,18.40625,0.0,0.0,0.0,76
77,1695809894839,0.41015625,0.5839844,-0.8515625,26.3125,-13.15625,14.3125,0.0,0.0,0.0,77
78,1695809894879,0.43652344,0.56347656,-0.8515625,28.125,-10.46875,10.84375,0.0,0.0,0.0,78
79,1695809894919,0.4482422,0.5234375,-0.85839844,23.125,-10.9375,10.46875,0.0,0.0,0.0,79
80,1695809894959,0.4423828,0.5966797,-0.8876953,27.46875,-18.625,9.9375,0.0,0.0,0.0,80
81,1695809894999,0.4482422,0.55371094,-0.92285156,22.71875,-15.53125,7.96875,0.0,0.0,0.0,81
82,1695809895039,0.4560547,0.53808594,-0.9121094,12.625,-12.46875,9.6875,0.0,0.0,0.0,82
83,1695809895079,0.35253906,0.63183594,-1.0107422,10.6875,-8.875,10.71875,0.0,0.0,0.0,83
84,1695809895119,0.4267578,0.5097656,-0.9316406,13.4375,-1.0,9.5,0.0,0.0,0.0,84
85,1695809895159,0.41015625,0.4970703,-0.9316406,2.5625,-3.25,6.375,0.0,0.0,0.0,85
86,1695809895199,0.38964844,0.5214844,-0.9199219,-4.75,-4.84375,3.8125,-20.6875,21.1875,-166.25,86
87,1695809895239,0.4140625,0.50097656,-0.93066406,-12.21875,0.53125,1.5,0.0,0.0,0.0,87
88,1695809895279,0.42871094,0.4658203,-0.97265625,-16.0,0.40625,0.40625,0.0,0.0,0.0,88
89,1695809895319,0.41308594,0.49316406,-0.9511719,-23.25,-0.6875,0.71875,0.0,0.0,0.0,89
90,1695809895359,0.42382812,0.48242188,-0.96191406,-26.4375,0.78125,1.9375,0.0,0.0,0.0,90
91,1695809895399,0.4169922,0.47851562,-0.8720703,-34.78125,2.53125,-1.25,0.0,0.0,0.0,91
92,1695809895439,0.40039062,0.5234375,-0.8613281,-34.84375,4.0625,-3.625,0.0,0.0,0.0,92
93,1695809895479,0.4189453,0.57128906,-0.85253906,-35.21875,-1.4375,-6.75,0.0,0.0,0.0,93
94,1695809895519,0.39746094,0.56933594,-0.77734375,-48.34375,3.09375,-10.59375,0.0,0.0,0.0,94
95,1695809895559,0.42285156,0.6035156,-0.78515625,-43.9375,0.28125,-12.34375,0.0,0.0,0.0,95
96,1695809895599,0.43066406,0.5878906,-0.80859375,-46.875,2.65625,-13.3125,0.0,0.0,0.0,96
97,1695809895639,0.4404297,0.53125,-0.7470703,-47.25,7.71875,-9.0625,0.0,0.0,0.0,97
98,1695809895679,0.42578125,0.6015625,-0.7734375,-51.875,2.1875,-4.0625,0.0,0.0,0.0,98
99,1695809895719,0.4033203,0.66308594,-0.70996094,-60.90625,4.1875,0.59375,-21.3125,31.0625,-159.9375,99
100,1695809895759,0.4638672,0.64160156,-0.72558594,-66.96875,2.90625,5.71875,0.0,0.0,0.0,100
101,1695809895799,0.41015625,0.76464844,-0.70703125,-68.125,0.15625,13.03125,0.0,0.0,0.0,101
102,1695809895839,0.4580078,0.64453125,-0.5761719,-67.5,-15.46875,13.21875,0.0,0.0,0.0,102
103,1695809895879,0.3642578,0.6347656,-0.5253906,-76.34375,-19.75,13.53125,0.0,0.0,0.0,103
104,1695809895919,0.375,0.71484375,-0.50097656,-73.71875,-19.625,14.6875,0.0,0.0,0.0,104
105,1695809895959,0.4921875,0.75097656,-0.51953125,-71.21875,-28.59375,8.9375,0.0,0.0,0.0,105
106,1695809895999,0.38964844,0.74609375,-0.46484375,-73.84375,-29.6875,4.5,0.0,0.0,0.0,106
107,1695809896039,0.4326172,0.7470703,-0.50390625,-71.65625,-26.34375,-0.03125,0.0,0.0,0.0,107
108,1695809896079,0.5048828,0.72265625,-0.35253906,-82.09375,-20.53125,-12.84375,0.0,0.0,0.0,108
109,1695809896119,0.37304688,0.8935547,-0.3515625,-77.875,-44.21875,-14.3125,0.0,0.0,0.0,109
110,1695809896159,0.50878906,0.8964844,-0.34375,-55.78125,-42.375,-4.96875,0.0,0.0,0.0,110
111,1695809896199,0.45996094,0.8466797,-0.26367188,-39.0,-77.21875,-3.5,-20.6875,39.8125,-140.4375,111
112,1695809896239,0.22753906,0.8300781,-0.17675781,-36.25,-113.625,-3.1875,0.0,0.0,0.0,112
113,1695809896279,0.21777344,0.98339844,-0.2265625,-25.28125,-112.4375,-2.46875,0.0,0.0,0.0,113
114,1695809896319,0.38183594,0.89160156,-0.19921875,0.625,-80.21875,10.40625,0.0,0.0,0.0,114
115,1695809896359,0.30371094,0.8701172,-0.22753906,7.375,-80.78125,23.1875,0.0,0.0,0.0,115
116,1695809896399,0.2685547,0.87890625,-0.21777344,14.71875,-78.28125,32.15625,0.0,0.0,0.0,116
117,1695809896439,0.29882812,0.87597656,-0.2734375,10.625,-81.03125,33.0625,0.0,0.0,0.0,117
118,1695809896479,0.2861328,0.7636719,-0.1953125,11.65625,-82.3125,38.375,0.0,0.0,0.0,118
119,1695809896519,0.19335938,0.7451172,-0.20996094,-10.625,-85.34375,38.75,0.0,0.0,0.0,119
120,1695809896559,0.23339844,0.7890625,-0.22851562,-22.15625,-70.6875,44.46875,0.0,0.0,0.0,120
121,1695809896599,0.17871094,0.72265625,-0.17480469,-26.0,-71.75,39.21875,0.0,0.0,0.0,121
122,1695809896639,0.06347656,0.7060547,-0.20703125,-29.71875,-42.0,35.375,0.0,0.0,0.0,122
123,1695809896679,0.16113281,0.6855469,-0.24804688,-42.0625,-27.375,14.9375,0.0,0.0,0.0,123
124,1695809896719,0.17578125,0.8359375,-0.4892578,-46.875,-9.90625,6.8125,-9.4375,41.0,-138.8125,124
125,1695809896759,0.5263672,0.9199219,-0.48632812,-35.15625,-5.5625,13.84375,0.0,0.0,0.0,125
126,1695809896799,0.4169922,0.96484375,-0.44140625,10.5,-22.96875,24.625,0.0,0.0,0.0,126
127,1695809896839,0.3798828,0.7871094,-0.49902344,20.8125,-14.25,29.46875,0.0,0.0,0.0,127
128,1695809896879,0.30371094,0.6933594,-0.34765625,-3.90625,-36.21875,29.03125,0.0,0.0,0.0,128
129,1695809896919,0.20507812,1.2949219,-0.5029297,-49.5,-37.125,17.375,0.0,0.0,0.0,129
130,1695809896959,0.4501953,1.4033203,-0.37304688,-0.78125,-6.25,-0.21875,0.0,0.0,0.0,130
131,1695809896999,0.111328125,0.6845703,-0.25878906,-1.28125,-8.625,7.59375,0.0,0.0,0.0,131
132,1695809897039,0.13476562,0.8310547,-0.29882812,16.40625,-14.375,-11.3125,0.0,0.0,0.0,132
133,1695809897079,0.53515625,1.0195312,0.111328125,9.28125,42.28125,18.53125,0.0,0.0,0.0,133
134,1695809897119,0.25585938,0.9873047,-0.140625,-28.1875,4.5,19.21875,0.0,0.0,0.0,134
135,1695809897159,0.27246094,0.9794922,-0.1640625,-11.96875,-23.59375,-1.5625,0.0,0.0,0.0,135
136,1695809897199,0.22949219,0.96875,-0.140625,-2.1875,18.59375,6.09375,-5.6875,39.0625,-133.125,136
137,1695809897239,0.43652344,0.9316406,-0.021484375,-7.75,45.4375,9.1875,0.0,0.0,0.0,137
138,1695809897279,0.44433594,0.91015625,-0.13964844,-18.90625,26.78125,12.78125,0.0,0.0,0.0,138
139,1695809897319,0.3466797,0.9423828,-0.064453125,-13.96875,28.3125,7.375,0.0,0.0,0.0,139
140,1695809897359,0.26660156,0.92871094,-0.0546875,2.5,39.96875,-10.53125,0.0,0.0,0.0,140
141,1695809897399,0.38476562,0.8798828,-0.12597656,13.5,48.875,-17.0,0.0,0.0,0.0,141
142,1695809897439,0.50390625,0.80078125,-0.13671875,14.96875,53.6875,-15.65625,0.0,0.0,0.0,142
143,1695809897479,0.5810547,0.8486328,-0.00390625,21.4375,62.46875,-12.78125,0.0,0.0,0.0,143
144,1695809897519,0.39941406,0.73046875,0.0009765625,39.5625,63.5,-6.96875,0.0,0.0,0.0,144
145,1695809897559,0.33007812,0.6875,-0.05078125,73.1875,77.4375,-11.6875,0.0,0.0,0.0,145
146,1695809897599,0.24804688,1.0419922,-0.036132812,70.6875,68.40625,8.09375,0.0,0.0,0.0,146
147,1695809897639,1.03125,0.7910156,-0.13574219,68.125,43.0,8.28125,0.0,0.0,0.0,147
148,1695809897679,0.4765625,0.8544922,-0.34960938,43.03125,-14.84375,-9.84375,0.0,0.0,0.0,148
149,1695809897719,0.24804688,0.96875,-0.4638672,22.53125,-2.46875,-17.34375,-8.5625,38.75,-135.5,149
150,1695809897759,0.4091797,1.0283203,-0.4921875,16.1875,-3.6875,-22.125,0.0,0.0,0.0,150
151,1695809897799,0.14160156,0.81640625,-0.31347656,23.8125,1.125,-17.1875,0.0,0.0,0.0,151
152,1695809897839,0.2939453,0.9404297,-0.41796875,-22.03125,16.40625,-29.375,0.0,0.0,0.0,152
153,1695809897879,0.38671875,0.9873047,-0.44433594,-4.40625,1.9375,-23.75,0.0,0.0,0.0,153
154,1695809897919,0.19628906,0.8964844,-0.3125,2.0,2.71875,-17.125,0.0,0.0,0.0,154
155,1695809897959,0.20507812,0.9980469,-0.37695312,-10.4375,26.96875,-16.5625,0.0,0.0,0.0,155
156,1695809897999,0.28710938,0.94628906,-0.5126953,4.21875,22.3125,-20.21875,0.0,0.0,0.0,156
157,1695809898039,0.32910156,0.80371094,-0.44140625,26.78125,10.0625,-16.875,0.0,0.0,0.0,157
158,1695809898079,0.26464844,0.74121094,-0.33203125,21.0,-7.03125,-7.96875,0.0,0.0,0.0,158
159,1695809898119,0.203125,0.9238281,-0.37695312,1.71875,-2.09375,-1.84375,0.0,0.0,0.0,159
160,1695809898159,0.26367188,0.95996094,-0.4453125,13.625,-6.0,-3.3125,0.0,0.0,0.0,160
161,1695809898199,0.34765625,0.8095703,-0.44726562,8.78125,1.125,5.21875,-15.125,41.75,-138.5,161
162,1695809898239,0.35546875,0.7861328,-0.40527344,-0.65625,-2.84375,12.75,0.0,0.0,0.0,162
163,1695809898279,0.3388672,0.8769531,-0.42285156,-1.46875,-6.625,17.3125,0.0,0.0,0.0,163
164,1695809898319,0.31640625,0.93359375,-0.43847656,2.5,-3.25,12.0625,0.0,0.0,0.0,164
165,1695809898359,0.29003906,0.9277344,-0.46972656,3.28125,12.3125,9.5625,0.0,0.0,0.0,165
166,1695809898399,0.3564453,0.88964844,-0.4326172,-2.3125,27.0,4.8125,0.0,0.0,0.0,166
167,1695809898439,0.3154297,0.87597656,-0.4345703,-4.5625,32.09375,3.03125,0.0,0.0,0.0,167
168,1695809898479,0.35546875,0.8183594,-0.41503906,-6.59375,33.5,1.375,0.0,0.0,0.0,168
169,1695809898519,0.3564453,0.82421875,-0.4248047,-7.375,37.8125,1.5625,0.0,0.0,0.0,169
170,1695809898559,0.34472656,0.83496094,-0.3515625,-6.46875,41.1875,4.5,0.0,0.0,0.0,170
171,1695809898599,0.31445312,0.8222656,-0.37695312,-6.03125,45.625,4.75,0.0,0.0,0.0,171
172,1695809898639,0.3642578,0.8017578,-0.3564453,-2.0,52.34375,4.375,0.0,0.0,0.0,172
173,1695809898679,0.4169922,0.9794922,-0.34375,1.84375,62.78125,8.34375,0.0,0.0,0.0,173
174,1695809898719,0.4169922,0.7626953,-0.19921875,-0.625,67.0,-4.53125,-12.4375,40.5625,-135.1875,174
175,1695809898759,0.4404297,0.84472656,-0.23632812,-3.84375,53.4375,-13.5,0.0,0.0,0.0,175
176,1695809898799,0.6142578,0.84765625,-0.16601562,-14.09375,69.75,-6.6875,0.0,0.0,0.0,176
177,1695809898839,0.48632812,0.8417969,-0.14453125,-11.21875,64.5,-5.5625,0.0,0.0,0.0,177
178,1695809898879,0.4609375,0.9628906,-0.07519531,-8.0,73.28125,-12.90625,0.0,0.0,0.0,178
179,1695809898919,0.3876953,0.92089844,-0.14746094,3.34375,95.625,-7.84375,0.0,0.0,0.0,179
180,1695809898959,0.5361328,0.76953125,-0.07714844,18.4375,125.21875,-10.875,0.0,0.0,0.0,180
181,1695809898999,0.64941406,0.79785156,-0.03125,6.84375,118.5,-1.4375,0.0,0.0,0.0,181
182,1695809899039,0.4716797,0.8417969,-0.024414062,-5.875,87.75,-3.0,0.0,0.0,0.0,182
183,1695809899079,0.33007812,0.9716797,-0.07714844,-3.59375,90.25,-14.375,0.0,0.0,0.0,183
184,1695809899119,0.4013672,0.8408203,0.041015625,14.46875,96.15625,-25.96875,0.0,0.0,0.0,184
185,1695809899159,0.43945312,0.75683594,-0.01171875,14.03125,86.46875,-16.5625,0.0,0.0,0.0,185
186,1695809899199,0.5517578,0.7792969,0.0009765625,17.34375,91.71875,-8.5,-18.4375,41.75,-132.1875,186
187,1695809899239,0.4404297,0.81347656,-0.09765625,16.1875,80.78125,-7.03125,0.0,0.0,0.0,187
188,1695809899279,0.46289062,0.7949219,-0.18066406,-1.90625,72.5625,-13.875,0.0,0.0,0.0,188
189,1695809899319,0.5361328,0.8222656,-0.12988281,-15.8125,59.375,-24.4375,0.0,0.0,0.0,189
190,1695809899359,0.609375,0.8691406,0.19628906,-4.21875,41.71875,-26.5625,0.0,0.0,0.0,190
191,1695809899399,0.42871094,1.3652344,0.2421875,19.71875,21.53125,1.3125,0.0,0.0,0.0,191
192,1695809899439,0.22949219,1.1601562,0.24316406,55.0625,13.53125,25.1875,0.0,0.0,0.0,192
193,1695809899479,0.53515625,1.0009766,0.009765625,100.34375,5.46875,17.3125,0.0,0.0,0.0,193
194,1695809899519,0.4580078,1.1386719,-0.026367188,108.9375,-17.53125,8.875,0.0,0.0,0.0,194
195,1695809899559,0.36132812,1.0146484,-0.05078125,115.1875,-44.21875,-0.3125,0.0,0.0,0.0,195
196,1695809899599,0.45996094,0.8886719,-0.047851562,104.96875,-48.3125,-11.5625,0.0,0.0,0.0,196
197,1695809899639,0.4453125,0.8955078,-0.17089844,72.03125,-66.96875,-23.15625,0.0,0.0,0.0,197
198,1695809899679,0.22460938,0.8730469,-0.203125,62.4375,-66.5,-21.125,0.0,0.0,0.0,198
199,1695809899719,0.2734375,0.7421875,-0.24414062,50.15625,-46.09375,-7.21875,-23.375,39.3125,-152.3125,199
200,1695809899759,0.35253906,0.6142578,-0.27148438,13.625,-36.40625,-2.53125,0.0,0.0,0.0,200
201,1695809899799,0.2626953,0.6171875,-0.2529297,-26.4375,-28.34375,-3.5,0.0,0.0,0.0,201
202,1695809899839,0.17480469,0.59375,-0.29296875,-52.75,-17.28125,-8.375,0.0,0.0,0.0,202
203,1695809899879,0.23046875,0.6933594,-0.4404297,-78.625,-3.75,-7.96875,0.0,0.0,0.0,203
204,1695809899919,0.33203125,0.88964844,-0.5126953,-58.53125,-25.96875,0.21875,0.0,0.0,0.0,204
205,1695809899959,0.3388672,1.125,-0.4951172,-28.5625,-53.84375,8.59375,0.0,0.0,0.0,205
206,1695809899999,0.40429688,0.8310547,-0.57128906,-37.53125,-84.1875,17.75,0.0,0.0,0.0,206
207,1695809900039,0.20898438,1.0537109,-0.36914062,-38.28125,-84.75,28.84375,0.0,0.0,0.0,207
208,1695809900079,0.33984375,1.8828125,0.095703125,-29.59375,-76.25,19.15625,0.0,0.0,0.0,208
209,1695809900119,0.03125,0.828125,-0.171875,-39.25,-62.9375,-27.0625,0.0,0.0,0.0,209
210,1695809900159,0.07324219,0.5957031,-0.041015625,3.46875,-19.125,6.75,0.0,0.0,0.0,210
211,1695809900199,0.5859375,0.7919922,0.119140625,1.03125,35.1875,31.28125,-26.6875,42.5,-135.625,211
212,1695809900239,0.52441406,0.9873047,-0.043945312,-20.8125,62.46875,43.625,0.0,0.0,0.0,212
213,1695809900279,0.27148438,0.8095703,-0.02734375,-19.09375,20.375,25.5,0.0,0.0,0.0,213
214,1695809900319,0.38183594,0.8339844,0.053710938,-12.09375,42.46875,24.5,0.0,0.0,0.0,214
215,1695809900359,0.5205078,0.9169922,0.020507812,-28.375,33.4375,16.65625,0.0,0.0,0.0,215
216,1695809900399,0.5058594,0.8984375,0.024414062,-29.90625,16.9375,12.6875,0.0,0.0,0.0,216
217,1695809900439,0.40039062,0.8857422,-0.0029296875,-35.03125,11.21875,5.46875,0.0,0.0,0.0,217
218,1695809900479,0.3544922,0.90527344,-0.009765625,-27.84375,28.3125,-1.84375,0.0,0.0,0.0,218
219,1695809900519,0.34765625,0.8232422,0.046875,-20.625,35.5625,-8.4375,0.0,0.0,0.0,219
220,1695809900559,0.31152344,0.9042969,-0.06347656,-11.28125,37.5625,-12.78125,0.0,0.0,0.0,220
221,1695809900599,0.46191406,0.89746094,-0.057617188,-6.59375,56.1875,-25.34375,0.0,0.0,0.0,221
222,1695809900639,0.4814453,0.8105469,0.0390625,-11.0,64.4375,-26.4375,0.0,0.0,0.0,222
223,1695809900679,0.47558594,0.8730469,-0.028320312,-29.25,51.75,-25.65625,0.0,0.0,0.0,223
224,1695809900719,0.40234375,0.92871094,0.06640625,-22.40625,57.90625,-17.0,-21.125,41.5625,-132.8125,224
225,1695809900759,0.57421875,1.0390625,0.28027344,11.0625,60.9375,-26.03125,0.0,0.0,0.0,225
226,1695809900799,0.20605469,1.6308594,0.38671875,33.75,35.4375,-9.90625,0.0,0.0,0.0,226
227,1695809900839,0.29492188,1.1064453,0.23730469,65.78125,35.375,13.65625,0.0,0.0,0.0,227
228,1695809900879,0.34960938,0.98828125,-0.01171875,59.9375,6.03125,2.78125,0.0,0.0,0.0,228
229,1695809900919,0.13671875,0.8925781,0.15234375,49.5625,-4.96875,-13.15625,0.0,0.0,0.0,229
230,1695809900959,-0.015625,1.0273438,0.15917969,49.0,-1.5625,-14.3125,0.0,0.0,0.0,230
231,1695809900999,0.12402344,1.0048828,0.125,51.875,10.40625,-8.875,0.0,0.0,0.0,231
232,1695809901039,0.20605469,0.90527344,-0.01171875,57.6875,13.59375,-11.75,0.0,0.0,0.0,232
233,1695809901079,0.14550781,0.9091797,-0.11035156,69.59375,29.21875,-6.5625,0.0,0.0,0.0,233
234,1695809901119,0.19433594,0.87402344,-0.20800781,76.34375,47.84375,3.15625,0.0,0.0,0.0,234
235,1695809901159,0.34765625,0.8388672,-0.22949219,69.15625,45.4375,5.84375,0.0,0.0,0.0,235
236,1695809901199,0.37304688,0.78222656,-0.25683594,46.875,26.40625,8.21875,-22.9375,40.5625,-150.375,236
237,1695809901239,0.30078125,0.8222656,-0.2705078,28.3125,8.875,8.53125,0.0,0.0,0.0,237
238,1695809901279,0.25097656,0.92578125,-0.38476562,19.59375,-9.71875,14.6875,0.0,0.0,0.0,238
239,1695809901319,0.3251953,0.75878906,-0.35253906,36.1875,-17.0,18.46875,0.0,0.0,0.0,239
240,1695809901359,0.24511719,0.7607422,-0.32910156,33.3125,-3.0,32.9375,0.0,0.0,0.0,240
241,1695809901399,0.3828125,0.8330078,-0.4970703,8.1875,-26.375,35.25,0.0,0.0,0.0,241
242,1695809901439,0.50390625,0.70214844,-0.39746094,4.875,-29.4375,32.625,0.0,0.0,0.0,242
243,1695809901479,0.4189453,0.6591797,-0.35351562,-20.09375,-23.78125,41.65625,0.0,0.0,0.0,243
244,1695809901519,0.38183594,0.7597656,-0.4326172,-46.15625,-38.21875,34.84375,0.0,0.0,0.0,244
245,1695809901559,0.33691406,0.9082031,-0.4423828,-38.6875,-62.03125,29.75,0.0,0.0,0.0,245
246,1695809901599,0.6640625,1.5136719,-0.06347656,-42.96875,-111.84375,6.875,0.0,0.0,0.0,246
247,1695809901639,-0.0859375,0.6542969,-0.2265625,11.15625,-108.96875,12.90625,0.0,0.0,0.0,247
248,1695809901679,0.087890625,0.5361328,-0.28808594,10.3125,-97.8125,13.59375,0.0,0.0,0.0,248
249,1695809901719,0.40625,0.98828125,-0.21972656,-3.0,-68.03125,38.625,-23.375,40.375,-153.0625,249
250,1695809901759,0.24511719,0.92578125,-0.23144531,-3.84375,-62.34375,32.625,0.0,0.0,0.0,250
251,1695809901799,0.3642578,0.8564453,-0.28710938,-1.28125,-76.25,32.03125,0.0,0.0,0.0,251
252,1695809901839,0.21484375,0.8828125,-0.234375,11.21875,-73.625,37.9375,0.0,0.0,0.0,252
253,1695809901879,0.27148438,0.8339844,-0.4423828,11.78125,-53.5625,35.5625,0.0,0.0,0.0,253
254,1695809901919,0.36914062,0.9501953,-0.6376953,10.375,-58.9375,34.40625,0.0,0.0,0.0,254
255,1695809901959,0.5527344,0.8515625,-0.56347656,-0.1875,-51.0625,23.96875,0.0,0.0,0.0,255
256,1695809901999,0.4873047,0.9003906,-0.5498047,-16.90625,-50.625,23.46875,0.0,0.0,0.0,256
257,1695809902039,0.5214844,0.95703125,-0.5722656,-15.875,-56.0625,26.09375,0.0,0.0,0.0,257
258,1695809902079,0.45410156,0.8544922,-0.56933594,-24.0625,-40.5,17.25,0.0,0.0,0.0,258
259,1695809902119,0.45996094,0.8808594,-0.52734375,-31.0,-31.875,18.15625,0.0,0.0,0.0,259
260,1695809902159,0.46289062,0.8730469,-0.5283203,-31.875,-30.71875,18.71875,0.0,0.0,0.0,260
261,1695809902199,0.46289062,0.8388672,-0.5136719,-46.03125,-31.40625,25.4375,-20.25,41.0,-149.625,261
262,1695809902239,0.5527344,0.828125,-0.4013672,-53.65625,-46.78125,24.8125,0.0,0.0,0.0,262
263,1695809902279,0.45507812,0.8017578,-0.3701172,-56.6875,-56.0,33.4375,0.0,0.0,0.0,263
264,1695809902319,0.4345703,0.8027344,-0.42871094,-68.78125,-43.71875,38.6875,0.0,0.0,0.0,264
265,1695809902359,0.52441406,0.7451172,-0.30859375,-71.28125,-39.9375,40.1875,0.0,0.0,0.0,265
266,1695809902399,0.40039062,0.7685547,-0.26757812,-76.28125,-50.0625,24.21875,0.0,0.0,0.0,266
267,1695809902439,0.3125,0.8232422,-0.31933594,-68.46875,-35.59375,8.21875,0.0,0.0,0.0,267
268,1695809902479,0.40820312,0.70410156,-0.35058594,-53.96875,-21.25,-6.78125,0.0,0.0,0.0,268
269,1695809902519,0.39160156,0.7207031,-0.29296875,-46.8125,-20.71875,-18.8125,0.0,0.0,0.0,269
270,1695809902559,0.27441406,0.80859375,-0.3154297,-36.3125,-4.125,-14.4375,0.0,0.0,0.0,270
271,1695809902599,0.36523438,0.93652344,-0.26757812,-37.21875,20.5,-0.75,0.0,0.0,0.0,271
272,1695809902639,0.65722656,1.0478516,-0.15136719,-44.1875,-5.15625,-9.84375,0.0,0.0,0.0,272
273,1695809902679,0.38671875,1.0751953,-0.08300781,-58.15625,-26.28125,-11.8125,0.0,0.0,0.0,273
274,1695809902719,0.21386719,1.2128906,0.06347656,-57.1875,-30.71875,-12.46875,-15.875,39.9375,-126.8125,274
275,1695809902759,0.21582031,1.1269531,0.052734375,-30.40625,-22.96875,-21.5,0.0,0.0,0.0,275
276,1695809902799,0.17675781,1.0175781,-0.029296875,-19.28125,-23.34375,-22.3125,0.0,0.0,0.0,276
277,1695809902839,0.21484375,0.875,0.0029296875,-9.59375,-49.8125,-22.375,0.0,0.0,0.0,277
278,1695809902879,0.22851562,0.8027344,-0.018554688,0.5,-75.78125,-18.5625,0.0,0.0,0.0,278
279,1695809902919,0.19238281,0.8886719,-0.10253906,16.34375,-80.21875,-6.6875,0.0,0.0,0.0,279
280,1695809902959,0.28125,0.8095703,-0.037109375,23.25,-69.78125,5.21875,0.0,0.0,0.0,280
281,1695809902999,0.26171875,0.83203125,0.00390625,18.0,-77.84375,12.375,0.0,0.0,0.0,281
282,1695809903039,0.29003906,0.9121094,-0.103515625,15.625,-87.71875,20.1875,0.0,0.0,0.0,282
283,1695809903079,0.33007812,0.81347656,-0.10644531,9.71875,-83.53125,24.625,0.0,0.0,0.0,283
284,1695809903119,0.18164062,0.8935547,-0.1640625,4.625,-71.4375,38.0,0.0,0.0,0.0,284
285,1695809903159,0.22363281,0.95214844,-0.1484375,4.15625,-69.78125,37.15625,0.0,0.0,0.0,285
286,1695809903199,0.23632812,0.92871094,-0.20996094,10.625,-46.65625,31.21875,-10.625,41.875,-131.75,286
287,1695809903239,0.19726562,0.88964844,-0.23339844,13.0,-33.34375,26.21875,0.0,0.0,0.0,287
288,1695809903279,0.23632812,0.83691406,-0.39453125,29.53125,-31.875,22.75,0.0,0.0,0.0,288
289,1695809903319,0.45410156,0.9033203,-0.5097656,63.125,-29.625,27.3125,0.0,0.0,0.0,289
290,1695809903359,0.6015625,0.51660156,-0.25390625,55.65625,42.03125,80.59375,0.0,0.0,0.0,290
291,1695809903399,-0.10449219,0.94140625,0.1640625,-112.71875,10.0,43.375,0.0,0.0,0.0,291
292,1695809903439,0.96191406,1.3486328,-0.038085938,-40.59375,-164.21875,-59.96875,0.0,0.0,0.0,292
293,1695809903479,-0.15234375,1.2392578,-0.076171875,-33.375,-41.53125,-9.46875,0.0,0.0,0.0,293
294,1695809903519,0.5810547,0.9873047,-0.29003906,-9.53125,-4.34375,-17.59375,0.0,0.0,0.0,294
295,1695809903559,0.5136719,0.81933594,0.052734375,-31.25,13.46875,13.71875,0.0,0.0,0.0,295
296,1695809903599,0.46777344,0.8457031,-0.0859375,-67.0625,-22.0625,9.6875,0.0,0.0,0.0,296
297,1695809903639,0.3046875,0.7324219,-0.15820312,-39.6875,-4.34375,-11.6875,0.0,0.0,0.0,297
298,1695809903679,0.375,0.6044922,-0.2607422,-10.375,31.21875,-22.84375,0.0,0.0,0.0,298
299,1695809903719,0.10839844,0.6074219,-0.22265625,10.875,36.78125,-29.3125,-6.875,37.5625,-129.1875,299
300,1695809903759,1.0214844,1.6748047,-0.12402344,-10.6875,26.46875,9.5625,0.0,0.0,0.0,300
301,1695809903799,0.060546875,1.2314453,-0.34277344,5.6875,-33.53125,14.8125,0.0,0.0,0.0,301
302,1695809903839,0.16210938,1.5498047,-0.4951172,-16.28125,-21.09375,5.65625,0.0,0.0,0.0,302
303,1695809903879,0.09765625,1.0839844,-0.35058594,13.78125,-45.625,4.125,0.0,0.0,0.0,303
304,1695809903919,0.13867188,1.0400391,-0.16015625,21.0,-49.8125,2.1875,0.0,0.0,0.0,304
305,1695809903959,0.08984375,0.90722656,-0.17089844,2.5,-35.1875,-2.34375,0.0,0.0,0.0,305
306,1695809903999,0.11328125,0.69433594,-0.09863281,-9.21875,-32.5625,-7.40625,0.0,0.0,0.0,306
307,1695809904039,-0.055664062,0.69140625,-0.23046875,8.0,-17.53125,-4.0625,0.0,0.0,0.0,307
308,1695809904079,0.030273438,0.8310547,-0.20800781,20.1875,2.25,1.9375,0.0,0.0,0.0,308
309,1695809904119,0.25976562,0.8925781,-0.21386719,20.9375,7.0,-3.3125,0.0,0.0,0.0,309
310,1695809904159,0.19628906,0.8730469,-0.2685547,19.96875,15.1875,-2.59375,0.0,0.0,0.0,310
311,1695809904199,0.296875,0.8144531,-0.4169922,-8.65625,11.34375,-11.5625,-6.0,39.5,-133.375,311
312,1695809904239,0.14941406,0.82714844,-0.41015625,-17.625,6.3125,-14.84375,0.0,0.0,0.0,312
313,1695809904279,0.09472656,0.8457031,-0.34765625,-22.40625,-10.21875,-17.53125,0.0,0.0,0.0,313
314,1695809904319,0.15039062,0.83984375,-0.25,-27.71875,-22.1875,-20.71875,0.0,0.0,0.0,314
315,1695809904359,0.10644531,0.8359375,-0.2734375,-33.625,-24.875,-15.9375,0.0,0.0,0.0,315
316,1695809904399,0.015625,0.8964844,-0.43164062,-22.34375,-12.78125,-1.5,0.0,0.0,0.0,316
317,1695809904439,0.28222656,0.93066406,-0.37109375,-16.59375,-19.8125,13.15625,0.0,0.0,0.0,317
318,1695809904479,0.14648438,0.87597656,-0.40527344,-7.9375,-29.75,32.03125,0.0,0.0,0.0,318
319,1695809904519,0.11425781,0.89941406,-0.5214844,-21.84375,-25.78125,38.6875,0.0,0.0,0.0,319
320,1695809904559,0.17578125,1.2597656,-0.3046875,-22.28125,-32.75,39.03125,0.0,0.0,0.0,320
321,1695809904599,0.08300781,1.5664062,-0.061523438,-32.78125,-26.6875,4.25,0.0,0.0,0.0,321
322,1695809904639,0.022460938,1.1777344,-0.16796875,2.8125,-21.375,-26.3125,0.0,0.0,0.0,322
323,1695809904679,0.109375,0.57714844,0.04296875,26.5,27.5,6.75,0.0,0.0,0.0,323
324,1695809904719,0.5625,0.89160156,0.1171875,30.34375,78.71875,33.96875,-6.875,39.625,-126.375,324
325,1695809904759,0.50683594,1.1201172,-0.049804688,-10.625,74.0,21.875,0.0,0.0,0.0,325
326,1695809904799,0.2939453,0.8408203,-0.0126953125,-21.65625,61.875,17.875,0.0,0.0,0.0,326
327,1695809904839,0.34179688,0.8359375,0.029296875,-25.21875,63.8125,18.78125,0.0,0.0,0.0,327
328,1695809904879,0.37109375,0.9091797,-0.02734375,-21.125,53.25,16.59375,0.0,0.0,0.0,328
329,1695809904919,0.38183594,0.92285156,-0.10644531,-1.71875,50.4375,14.0625,0.0,0.0,0.0,329
330,1695809904959,0.43554688,0.8222656,-0.12402344,-3.28125,47.40625,10.15625,0.0,0.0,0.0,330
331,1695809904999,0.4326172,0.7402344,0.001953125,-15.0,49.78125,1.8125,0.0,0.0,0.0,331
332,1695809905039,0.4580078,0.8310547,-0.07128906,-38.6875,43.4375,-12.78125,0.0,0.0,0.0,332
333,1695809905079,0.44433594,0.9042969,-0.04296875,-35.09375,43.25,-26.03125,0.0,0.0,0.0,333
334,1695809905119,0.32617188,0.96484375,0.0107421875,-27.21875,47.15625,-29.5625,0.0,0.0,0.0,334
335,1695809905159,0.42578125,0.9296875,0.03125,-18.125,45.03125,-17.78125,0.0,0.0,0.0,335
336,1695809905199,0.50390625,0.921875,-0.091796875,-6.90625,35.625,4.5625,-7.625,34.25,-118.125,336
337,1695809905239,0.7441406,0.9902344,0.11328125,19.40625,20.90625,4.75,0.0,0.0,0.0,337
338,1695809905279,0.5722656,1.1992188,0.21386719,48.8125,-29.9375,12.0,0.0,0.0,0.0,338
339,1695809905319,0.22949219,1.1162109,0.07714844,88.3125,-70.875,15.3125,0.0,0.0,0.0,339
340,1695809905359,0.41601562,1.0605469,-0.016601562,118.15625,-72.46875,1.375,0.0,0.0,0.0,340
341,1695809905399,0.39746094,1.0839844,-0.053710938,99.90625,-71.25,11.03125,0.0,0.0,0.0,341
342,1695809905439,0.24804688,1.1552734,-0.09765625,99.84375,-75.21875,10.0,0.0,0.0,0.0,342
343,1695809905479,0.35351562,0.97265625,-0.14941406,80.3125,-67.21875,-2.65625,0.0,0.0,0.0,343
344,1695809905519,0.35253906,0.86621094,-0.27539062,56.46875,-75.21875,7.125,0.0,0.0,0.0,344
345,1695809905559,0.24804688,0.7578125,-0.20507812,35.40625,-79.25,21.875,0.0,0.0,0.0,345
346,1695809905599,0.16699219,0.5722656,-0.11328125,-3.84375,-72.90625,28.46875,0.0,0.0,0.0,346
347,1695809905639,0.099609375,0.50683594,-0.13769531,-58.09375,-64.59375,23.59375,0.0,0.0,0.0,347
348,1695809905679,0.15917969,0.58496094,-0.26367188,-73.1875,-48.53125,18.40625,0.0,0.0,0.0,348
349,1695809905719,0.22949219,0.9394531,-0.4326172,-67.125,-31.53125,35.8125,-2.25,37.5625,-139.875,349
350,1695809905759,0.43847656,0.93359375,-0.35546875,-19.78125,-72.59375,41.0,0.0,0.0,0.0,350
351,1695809905799,0.3203125,1.4199219,-0.4345703,44.0625,-91.03125,60.9375,0.0,0.0,0.0,351
352,1695809905839,0.06640625,1.1132812,-0.21972656,61.46875,-48.5,50.875,0.0,0.0,0.0,352
353,1695809905879,0.12402344,0.75390625,-0.22753906,-6.59375,-103.0625,4.125,0.0,0.0,0.0,353
354,1695809905919,0.33203125,0.72558594,-0.2421875,20.625,-71.4375,32.03125,0.0,0.0,0.0,354
355,1695809905959,0.29492188,0.9941406,-0.4013672,13.5625,-39.09375,46.84375,0.0,0.0,0.0,355
356,1695809905999,0.50683594,0.75390625,-0.40820312,21.125,-36.53125,47.71875,0.0,0.0,0.0,356
357,1695809906039,0.3017578,0.5517578,-0.23925781,32.34375,-30.59375,37.8125,0.0,0.0,0.0,357
358,1695809906079,0.24609375,0.57714844,-0.34570312,41.4375,-41.59375,19.21875,0.0,0.0,0.0,358
359,1695809906119,0.3154297,0.4951172,-0.3466797,56.03125,-40.84375,6.21875,0.0,0.0,0.0,359
360,1695809906159,0.2861328,0.47070312,-0.46484375,46.375,-17.90625,15.0625,0.0,0.0,0.0,360
361,1695809906199,0.30273438,0.64160156,-0.53222656,80.5,-5.09375,13.21875,3.0,26.5625,-154.875,361
362,1695809906239,0.35546875,0.5966797,-0.546875,81.71875,8.09375,5.21875,0.0,0.0,0.0,362
363,1695809906279,0.3857422,0.44726562,-0.64941406,73.5625,-1.5,5.40625,0.0,0.0,0.0,363
364,1695809906319,0.47265625,0.48535156,-0.9111328,71.90625,-20.84375,9.9375,0.0,0.0,0.0,364
365,1695809906359,0.3095703,0.48339844,-0.73046875,71.96875,-19.125,8.40625,0.0,0.0,0.0,365
366,1695809906399,0.34179688,0.5205078,-0.8652344,65.25,-11.625,6.5625,0.0,0.0,0.0,366
367,1695809906439,0.32421875,0.51660156,-0.9267578,62.5625,-12.15625,7.0625,0.0,0.0,0.0,367
368,1695809906479,0.3955078,0.3828125,-0.9394531,61.03125,-3.3125,8.40625,0.0,0.0,0.0,368
369,1695809906519,0.37402344,0.5205078,-1.1533203,60.375,-5.28125,6.5625,0.0,0.0,0.0,369
370,1695809906559,0.34960938,0.4296875,-1.0800781,50.28125,5.09375,7.96875,0.0,0.0,0.0,370
371,1695809906599,0.4423828,0.43945312,-1.1035156,35.9375,-5.625,1.5,0.0,0.0,0.0,371
372,1695809906639,0.34570312,0.5361328,-1.2802734,25.5625,-15.21875,-5.09375,0.0,0.0,0.0,372
373,1695809906679,0.42578125,0.5214844,-1.3955078,7.5,-12.40625,-7.46875,0.0,0.0,0.0,373
374,1695809906719,0.5019531,0.50878906,-1.4033203,-8.25,-1.0,-11.5,-0.3125,9.8125,-167.0,374
375,1695809906759,0.38964844,0.53515625,-1.3623047,-27.09375,-3.1875,-13.5,0.0,0.0,0.0,375
376,1695809906799,0.4140625,0.43066406,-1.2744141,-43.15625,9.125,-15.34375,0.0,0.0,0.0,376
377,1695809906839,0.3408203,0.41503906,-1.0966797,-56.65625,11.5,-15.28125,0.0,0.0,0.0,377
378,1695809906879,0.2998047,0.4423828,-1.0351562,-69.6875,21.34375,-15.71875,0.0,0.0,0.0,378
379,1695809906919,0.35351562,0.4326172,-0.9296875,-78.0625,28.40625,-15.28125,0.0,0.0,0.0,379
380,1695809906959,0.32128906,0.5234375,-0.88378906,-76.59375,23.65625,-12.53125,0.0,0.0,0.0,380
381,1695809906999,0.3359375,0.5605469,-0.8466797,-85.03125,25.625,-13.6875,0.0,0.0,0.0,381
382,1695809907039,0.3388672,0.5732422,-0.765625,-85.4375,29.40625,-16.125,0.0,0.0,0.0,382
383,1695809907079,0.3466797,0.60546875,-0.7597656,-86.125,31.53125,-18.15625,0.0,0.0,0.0,383
384,1695809907119,0.34472656,0.625,-0.6308594,-87.21875,34.59375,-19.90625,0.0,0.0,0.0,384
385,1695809907159,0.359375,0.6923828,-0.578125,-90.625,35.5625,-23.03125,0.0,0.0,0.0,385
386,1695809907199,0.27246094,0.6425781,-0.44726562,-91.6875,49.40625,-25.65625,2.25,29.75,-151.125,386
387,1695809907239,0.2783203,0.546875,-0.38867188,-98.75,47.53125,-31.6875,0.0,0.0,0.0,387
388,1695809907279,0.23535156,0.5361328,-0.3017578,-99.78125,53.03125,-31.625,0.0,0.0,0.0,388
389,1695809907319,0.3310547,0.57128906,-0.36816406,-90.6875,49.71875,-26.09375,0.0,0.0,0.0,389
390,1695809907359,0.33007812,0.53027344,-0.12695312,-82.53125,39.40625,-23.21875,0.0,0.0,0.0,390
391,1695809907399,0.15429688,0.64941406,-0.13183594,-76.71875,37.875,-18.28125,0.0,0.0,0.0,391
392,1695809907439,0.14746094,0.6503906,-0.16601562,-66.53125,9.1875,-29.6875,0.0,0.0,0.0,392
393,1695809907479,0.25976562,0.8496094,0.08496094,-40.28125,-4.90625,-23.8125,0.0,0.0,0.0,393
394,1695809907519,0.29003906,1.1025391,0.018554688,-36.0,-15.21875,-8.875,0.0,0.0,0.0,394
395,1695809907559,0.24023438,1.0673828,-0.015625,-1.65625,-3.0,7.90625,0.0,0.0,0.0,395
396,1695809907599,0.19433594,0.99609375,-0.0029296875,28.375,-1.5,10.71875,0.0,0.0,0.0,396
397,1695809907639,0.3310547,0.90527344,-0.10058594,33.8125,-8.9375,9.3125,0.0,0.0,0.0,397
398,1695809907679,0.34277344,0.83984375,-0.095703125,38.75,-9.90625,16.09375,0.3125,35.3125,-132.1875,398
399,1695809907719,0.29785156,0.9013672,-0.15136719,12.09375,-15.84375,14.03125,0.0,0.0,0.0,399
400,1695809907759,0.28027344,0.89746094,-0.18457031,22.40625,-23.78125,9.3125,0.0,0.0,0.0,400
401,1695809907799,0.20507812,0.8144531,-0.31347656,29.25,-10.9375,13.84375,0.0,0.0,0.0,401
402,1695809907839,0.43554688,0.8544922,-0.19042969,34.0625,-32.6875,9.375,0.0,0.0,0.0,402
403,1695809907879,0.20214844,0.6953125,-0.15722656,54.6875,-19.90625,20.59375,0.0,0.0,0.0,403
404,1695809907919,0.2626953,0.7402344,-0.33691406,47.125,-32.5,13.09375,0.0,0.0,0.0,404
405,1695809907959,0.25878906,0.72558594,-0.3515625,60.1875,-21.625,21.84375,0.0,0.0,0.0,405
406,1695809907999,0.3955078,0.8144531,-0.31347656,43.6875,-27.125,14.9375,0.0,0.0,0.0,406
407,1695809908039,0.37402344,0.78222656,-0.41503906,63.59375,-19.5,18.53125,0.0,0.0,0.0,407
408,1695809908079,0.41015625,0.7080078,-0.4501953,45.40625,-29.5625,10.90625,0.0,0.0,0.0,408
409,1695809908119,0.40527344,0.6777344,-0.45898438,70.0625,-42.0,11.6875,0.0,0.0,0.0,409
410,1695809908159,0.2705078,0.71777344,-0.64941406,62.5,-38.65625,10.15625,0.0,0.0,0.0,410
411,1695809908199,0.25683594,0.60546875,-0.49804688,57.8125,-9.0625,14.6875,1.8125,27.9375,-150.8125,411
412,1695809908239,0.37109375,0.58984375,-0.5966797,61.59375,-1.5625,13.53125,0.0,0.0,0.0,412
413,1695809908279,0.40429688,0.5576172,-0.6972656,59.5625,-14.25,13.71875,0.0,0.0,0.0,413
414,1695809908319,0.296875,0.546875,-0.68066406,55.1875,-19.25,14.8125,0.0,0.0,0.0,414
415,1695809908359,0.37109375,0.59277344,-0.6816406,60.25,-20.65625,11.09375,0.0,0.0,0.0,415
416,1695809908399,0.31640625,0.49902344,-0.7470703,55.96875,-16.5,9.4375,0.0,0.0,0.0,416
417,1695809908439,0.3330078,0.51953125,-0.82128906,55.96875,-13.03125,7.0625,0.0,0.0,0.0,417
418,1695809908479,0.38671875,0.5292969,-0.8574219,50.28125,-16.1875,9.8125,0.0,0.0,0.0,418
419,1695809908519,0.38964844,0.5830078,-0.8652344,40.90625,-11.4375,10.53125,0.0,0.0,0.0,419
420,1695809908559,0.37695312,0.5839844,-0.9550781,39.3125,-13.5,4.75,0.0,0.0,0.0,420
421,1695809908599,0.39453125,0.56152344,-1.0185547,33.875,-5.875,7.71875,0.0,0.0,0.0,421
422,1695809908639,0.4482422,0.55078125,-1.0810547,29.1875,-7.84375,5.96875,0.0,0.0,0.0,422
423,1695809908679,0.40625,0.62890625,-1.1826172,14.09375,-10.21875,0.84375,1.1875,15.8125,-162.5,423
424,1695809908719,0.48632812,0.6152344,-1.2402344,-3.40625,2.125,1.375,0.0,0.0,0.0,424
425,1695809908759,0.53808594,0.6826172,-1.2402344,-17.875,0.53125,-2.46875,0.0,0.0,0.0,425
426,1695809908799,0.40722656,0.63183594,-1.2109375,-35.09375,2.59375,-4.46875,0.0,0.0,0.0,426
427,1695809908839,0.5,0.4873047,-1.0878906,-54.5625,12.5625,-4.28125,0.0,0.0,0.0,427
428,1695809908879,0.4169922,0.6064453,-0.9824219,-60.0625,4.3125,-0.3125,0.0,0.0,0.0,428
429,1695809908919,0.3701172,0.6015625,-0.9345703,-64.46875,6.875,-1.96875,0.0,0.0,0.0,429
430,1695809908959,0.3955078,0.5654297,-0.8027344,-73.4375,9.25,-3.1875,0.0,0.0,0.0,430
431,1695809908999,0.4111328,0.65722656,-0.75878906,-82.59375,6.09375,-6.84375,0.0,0.0,0.0,431
432,1695809909039,0.36914062,0.6328125,-0.7109375,-85.6875,4.125,-10.40625,0.0,0.0,0.0,432
433,1695809909079,0.36523438,0.6796875,-0.66796875,-83.0625,8.09375,-12.03125,0.0,0.0,0.0,433
434,1695809909119,0.37304688,0.6298828,-0.5546875,-94.78125,15.25,-16.8125,0.0,0.0,0.0,434
435,1695809909159,0.30859375,0.6982422,-0.48828125,-88.1875,17.75,-18.6875,0.0,0.0,0.0,435
436,1695809909199,0.328125,0.69921875,-0.3876953,-92.46875,15.84375,-25.46875,0.3125,30.3125,-149.625,436
437,1695809909239,0.30371094,0.55078125,-0.38964844,-90.46875,15.25,-24.25,0.0,0.0,0.0,437
438,1695809909279,0.2734375,0.53515625,-0.2939453,-89.28125,12.0625,-23.15625,0.0,0.0,0.0,438
439,1695809909319,0.30078125,0.7158203,-0.22265625,-84.09375,3.9375,-14.71875,0.0,0.0,0.0,439
440,1695809909359,0.30664062,0.69628906,-0.38183594,-79.59375,9.4375,-15.84375,0.0,0.0,0.0,440
441,1695809909399,0.27734375,0.6533203,-0.15136719,-65.96875,10.71875,-10.9375,0.0,0.0,0.0,441
442,1695809909439,0.4140625,0.86328125,-0.29003906,-55.59375,-5.09375,-3.375,0.0,0.0,0.0,442
443,1695809909479,0.33203125,0.7919922,-0.16601562,-29.1875,-25.40625,-3.9375,0.0,0.0,0.0,443
444,1695809909519,0.3017578,0.94140625,-0.26660156,3.34375,-59.21875,2.0,0.0,0.0,0.0,444
445,1695809909559,0.38671875,0.82714844,-0.29882812,33.6875,-81.875,6.875,0.0,0.0,0.0,445
446,1695809909599,0.2998047,0.93359375,-0.18847656,52.375,-114.40625,25.1875,0.0,0.0,0.0,446
447,1695809909639,0.16015625,0.9199219,-0.20605469,26.90625,-120.4375,17.0625,0.0,0.0,0.0,447
448,1695809909679,0.3564453,1.078125,-0.3486328,34.125,-69.25,30.5,-0.625,33.8125,-143.875,448
449,1695809909719,0.3017578,0.89746094,-0.328125,23.1875,-79.78125,26.40625,0.0,0.0,0.0,449
450,1695809909759,0.15332031,0.7597656,-0.35058594,7.8125,-48.5,31.84375,0.0,0.0,0.0,450
451,1695809909799,0.18457031,0.6503906,-0.25878906,-12.9375,-18.75,35.3125,0.0,0.0,0.0,451
452,1695809909839,0.07421875,0.62597656,-0.20800781,-50.71875,-21.25,22.4375,0.0,0.0,0.0,452
453,1695809909879,0.13085938,0.6435547,-0.31152344,-45.96875,-16.6875,5.21875,0.0,0.0,0.0,453
454,1695809909919,0.21875,0.8886719,-0.49804688,-38.9375,25.0625,10.34375,0.0,0.0,0.0,454
455,1695809909959,0.6347656,1.1904297,-0.5019531,-12.75,1.125,6.15625,0.0,0.0,0.0,455
456,1695809909999,0.49609375,0.95996094,-0.6298828,11.90625,-23.8125,20.375,0.0,0.0,0.0,456
457,1695809910039,0.38378906,0.6826172,-0.48242188,-1.03125,-62.40625,26.53125,0.0,0.0,0.0,457
458,1695809910079,0.23535156,1.0263672,-0.5078125,-31.25,-31.53125,24.28125,0.0,0.0,0.0,458
459,1695809910119,0.45410156,1.6357422,-0.359375,-8.0,-26.5625,11.625,0.0,0.0,0.0,459
460,1695809910159,-0.043945312,0.79785156,-0.31054688,4.6875,11.625,7.5625,0.0,0.0,0.0,460
461,1695809910199,0.0029296875,0.61328125,-0.125,-0.625,37.03125,19.03125,4.5,28.5625,-145.125,461
462,1695809910239,0.4638672,1.0634766,-0.0126953125,-0.5625,17.8125,1.3125,0.0,0.0,0.0,462
463,1695809910279,0.33398438,1.0673828,-0.06933594,-27.46875,60.09375,21.84375,0.0,0.0,0.0,463
464,1695809910319,0.2109375,0.8886719,-0.22949219,-30.625,49.84375,10.90625,0.0,0.0,0.0,464
465,1695809910359,0.4169922,0.9140625,-0.001953125,-10.25,67.125,5.46875,0.0,0.0,0.0,465
466,1695809910399,0.50878906,0.94433594,0.038085938,-30.40625,81.59375,9.375,0.0,0.0,0.0,466
467,1695809910439,0.41796875,0.8095703,-0.047851562,-44.875,53.375,11.5,0.0,0.0,0.0,467
468,1695809910479,0.3642578,0.8388672,-0.00390625,-31.125,61.125,2.0,0.0,0.0,0.0,468
469,1695809910519,0.30566406,0.8886719,0.001953125,-35.40625,69.6875,-10.875,0.0,0.0,0.0,469
470,1695809910559,0.37597656,0.81640625,-0.08496094,-31.5625,65.78125,-19.84375,0.0,0.0,0.0,470
471,1695809910599,0.5214844,0.79589844,-0.07324219,-13.1875,63.9375,-21.875,0.0,0.0,0.0,471
472,1695809910639,0.6357422,0.84765625,-0.072265625,-18.1875,53.375,-15.875,0.0,0.0,0.0,472
473,1695809910679,0.47460938,0.9316406,-0.013671875,-31.25,37.5,-9.125,6.875,28.375,-128.3125,473
474,1695809910719,0.3388672,0.9160156,0.041015625,-10.6875,41.96875,-6.6875,0.0,0.0,0.0,474
475,1695809910759,0.3564453,0.9482422,0.045898438,-19.78125,43.96875,-10.9375,0.0,0.0,0.0,475
476,1695809910799,0.52734375,0.8251953,0.032226562,-16.96875,58.21875,-14.5625,0.0,0.0,0.0,476
477,1695809910839,0.7011719,0.9121094,0.16601562,-24.40625,31.34375,-10.34375,0.0,0.0,0.0,477
478,1695809910879,0.4716797,1.0253906,0.0625,-29.96875,-2.40625,8.71875,0.0,0.0,0.0,478
479,1695809910919,0.40429688,0.79296875,0.043945312,-12.875,-16.0,8.65625,0.0,0.0,0.0,479
480,1695809910959,0.44335938,0.62890625,0.17578125,20.09375,-40.375,0.78125,0.0,0.0,0.0,480
481,1695809910999,0.24804688,0.7421875,0.23828125,49.75,-73.09375,13.71875,0.0,0.0,0.0,481
482,1695809911039,0.29492188,0.9296875,0.6142578,89.0,-73.5625,25.1875,0.0,0.0,0.0,482
483,1695809911079,0.4560547,1.15625,-0.05078125,105.65625,-66.0,16.875,0.0,0.0,0.0,483
484,1695809911119,0.5029297,1.2216797,-0.21777344,101.4375,-67.03125,10.15625,0.0,0.0,0.0,484
485,1695809911159,0.51953125,1.1982422,-0.28222656,102.40625,-89.625,4.8125,0.0,0.0,0.0,485
486,1695809911199,0.6074219,1.2402344,-0.5830078,86.3125,-110.1875,0.96875,6.4375,28.6875,-137.625,486
487,1695809911239,0.7138672,1.4863281,-0.65722656,70.5625,-144.25,-1.4375,0.0,0.0,0.0,487
488,1695809911279,0.34570312,1.2636719,-0.7451172,27.90625,-114.78125,-2.78125,0.0,0.0,0.0,488
489,1695809911319,0.3310547,0.6972656,-0.59765625,-60.1875,-32.90625,-21.9375,0.0,0.0,0.0,489
490,1695809911359,0.20117188,0.65722656,-0.5126953,-93.25,21.59375,-37.5625,0.0,0.0,0.0,490
491,1695809911399,-0.030273438,0.1328125,-0.18457031,-85.21875,60.21875,-30.28125,0.0,0.0,0.0,491
492,1695809911439,0.17089844,-0.12792969,-0.08984375,-41.1875,-8.4375,-21.03125,0.0,0.0,0.0,492
493,1695809911479,0.17480469,0.10644531,-0.20214844,-25.875,-24.3125,27.125,0.0,0.0,0.0,493
494,1695809911519,0.034179688,-0.029296875,-0.42382812,32.53125,-9.90625,53.375,0.0,0.0,0.0,494
495,1695809911559,-0.83691406,1.9755859,0.5888672,116.46875,-27.5625,58.6875,0.0,0.0,0.0,495
496,1695809911599,-0.296875,0.19726562,-0.2548828,118.59375,94.875,6.8125,0.0,0.0,0.0,496
497,1695809911639,0.4169922,0.75683594,-0.28125,80.3125,99.59375,26.65625,0.0,0.0,0.0,497
498,1695809911679,0.7167969,1.8447266,-0.2685547,36.0,144.15625,-5.75,7.8125,26.4375,-149.125,498
499,1695809911719,0.6542969,1.2675781,-0.54589844,-8.1875,160.0,-30.28125,0.0,0.0,0.0,499
500,1695809911759,0.7919922,0.921875,-0.29492188,-41.6875,150.1875,-29.8125,0.0,0.0,0.0,500
501,1695809911799,0.6777344,0.9316406,-0.23339844,-95.65625,116.0,-28.34375,0.0,0.0,0.0,501
502,1695809911839,0.46679688,0.8095703,-0.25585938,-82.59375,109.71875,-23.65625,0.0,0.0,0.0,502
503,1695809911879,0.5185547,0.45703125,-0.21875,-55.34375,87.6875,-33.28125,0.0,0.0,0.0,503
504,1695809911919,0.18652344,0.19238281,-0.18847656,-18.875,59.3125,-46.34375,0.0,0.0,0.0,504
505,1695809911959,0.19433594,0.3955078,-0.064453125,5.90625,32.625,-47.8125,0.0,0.0,0.0,505
506,1695809911999,0.16992188,0.3466797,0.056640625,17.09375,10.53125,-31.21875,0.0,0.0,0.0,506
507,1695809912039,-0.046875,0.37109375,0.10546875,49.0625,-25.21875,-17.28125,0.0,0.0,0.0,507
508,1695809912079,0.63183594,2.0136719,0.13183594,79.71875,-45.75,7.25,0.0,0.0,0.0,508
509,1695809912119,0.52441406,1.4902344,0.07324219,106.5,-44.28125,29.21875,0.0,0.0,0.0,509
510,1695809912159,0.7480469,1.6269531,-0.19824219,133.59375,-21.375,15.0,0.0,0.0,0.0,510
511,1695809912199,0.5439453,1.1757812,-0.25976562,110.59375,-72.46875,30.0,5.25,30.625,-136.125,511
512,1695809912239,0.3125,1.2197266,-0.35253906,95.09375,-62.46875,19.6875,0.0,0.0,0.0,512
513,1695809912279,0.26367188,0.9550781,-0.2890625,64.6875,-50.75,-3.625,0.0,0.0,0.0,513
514,1695809912319,0.4892578,0.5722656,-0.22949219,17.875,-29.25,14.375,0.0,0.0,0.0,514
515,1695809912359,0.2890625,0.4169922,-0.28222656,-19.15625,-43.125,32.875,0.0,0.0,0.0,515
516,1695809912399,0.18457031,0.44726562,-0.3642578,-47.5,-43.84375,46.1875,0.0,0.0,0.0,516
517,1695809912439,0.21582031,0.4921875,-0.31054688,-50.71875,-61.59375,44.34375,0.0,0.0,0.0,517
518,1695809912479,0.25390625,0.734375,-0.171875,-39.0,-62.28125,35.6875,0.0,0.0,0.0,518
519,1695809912519,0.25878906,0.7919922,-0.22949219,-43.875,-41.84375,20.90625,0.0,0.0,0.0,519
520,1695809912559,0.29296875,0.74316406,-0.3330078,-45.78125,-19.375,8.65625,0.0,0.0,0.0,520
521,1695809912599,0.34277344,0.8066406,-0.42871094,-36.9375,3.34375,9.4375,0.0,0.0,0.0,521
522,1695809912639,0.50097656,0.8964844,-0.41503906,-41.875,10.65625,10.84375,0.0,0.0,0.0,522
523,1695809912679,0.5703125,0.70996094,-0.36914062,-51.875,-3.4375,10.15625,8.5625,27.1875,-143.3125,523
524,1695809912719,0.57910156,0.8095703,-0.36035156,-42.84375,-4.65625,13.28125,0.0,0.0,0.0,524
525,1695809912759,0.4951172,0.7832031,-0.37695312,-47.90625,-25.0,14.6875,0.0,0.0,0.0,525
526,1695809912799,0.45703125,0.8105469,-0.48535156,-41.4375,-48.0,5.65625,0.0,0.0,0.0,526
527,1695809912839,0.44726562,1.1826172,-0.42285156,-42.65625,-32.0,8.03125,0.0,0.0,0.0,527
528,1695809912879,0.40722656,1.4111328,-0.19726562,-45.28125,-4.96875,19.4375,0.0,0.0,0.0,528
529,1695809912919,0.20703125,0.7861328,-0.19042969,-16.125,-17.78125,13.90625,0.0,0.0,0.0,529
530,1695809912959,0.05078125,0.7294922,-0.19824219,-25.40625,-19.5,12.1875,0.0,0.0,0.0,530
531,1695809912999,0.29785156,1.1357422,-0.12988281,-21.53125,-22.0,1.5,0.0,0.0,0.0,531
532,1695809913039,0.24121094,1.09375,-0.11035156,-27.84375,73.9375,15.25,0.0,0.0,0.0,532
533,1695809913079,0.23828125,0.9316406,-0.09082031,-16.0625,99.28125,12.0625,0.0,0.0,0.0,533
534,1695809913119,0.43945312,0.8769531,0.025390625,0.0625,116.96875,9.5625,0.0,0.0,0.0,534
535,1695809913159,0.54003906,0.8232422,0.044921875,-9.40625,107.15625,3.65625,0.0,0.0,0.0,535
536,1695809913199,0.5654297,0.7871094,0.046875,-0.1875,86.40625,-0.03125,12.3125,26.3125,-129.9375,536
537,1695809913239,0.4580078,0.8779297,-0.028320312,8.46875,80.78125,0.53125,0.0,0.0,0.0,537
538,1695809913279,0.6015625,0.78808594,-0.048828125,11.0,84.625,-3.1875,0.0,0.0,0.0,538
539,1695809913319,0.6123047,0.7939453,-0.036132812,-3.59375,62.71875,-7.46875,0.0,0.0,0.0,539
540,1695809913359,0.5654297,0.7626953,-0.076171875,-21.65625,38.84375,-18.03125,0.0,0.0,0.0,540
541,1695809913399,0.5517578,0.8798828,-0.08203125,-18.375,33.125,-22.46875,0.0,0.0,0.0,541
542,1695809913439,0.3544922,0.9355469,-0.0625,-15.1875,40.9375,-16.375,0.0,0.0,0.0,542
543,1695809913479,0.30273438,0.85839844,-0.13085938,3.28125,54.25,-9.78125,0.0,0.0,0.0,543
544,1695809913519,0.3095703,0.7705078,0.0107421875,26.90625,71.625,-13.3125,0.0,0.0,0.0,544
545,1695809913559,0.60546875,0.96875,0.19824219,49.625,70.34375,-18.40625,0.0,0.0,0.0,545
546,1695809913599,0.66796875,1.2304688,0.2421875,74.09375,7.4375,-5.15625,0.0,0.0,0.0,546
547,1695809913639,0.28808594,1.3369141,0.22558594,61.21875,-16.875,18.34375,0.0,0.0,0.0,547
548,1695809913679,0.37695312,1.0390625,0.02734375,76.0625,-3.875,-6.3125,4.625,30.1875,-120.625,548
549,1695809913719,0.25878906,1.0908203,-0.015625,84.84375,1.3125,-11.375,0.0,0.0,0.0,549
550,1695809913759,0.23242188,1.0800781,-0.08105469,103.9375,6.03125,-12.21875,0.0,0.0,0.0,550
551,1695809913799,0.3359375,1.0205078,-0.055664062,111.5,14.6875,-20.65625,0.0,0.0,0.0,551
552,1695809913839,0.46972656,0.89160156,-0.07324219,90.8125,1.9375,-29.75,0.0,0.0,0.0,552
553,1695809913879,0.296875,0.8388672,-0.22265625,66.84375,-12.78125,-30.0625,0.0,0.0,0.0,553
554,1695809913919,0.21777344,0.82128906,-0.26464844,53.21875,-12.09375,-30.46875,0.0,0.0,0.0,554
555,1695809913959,0.18359375,0.70214844,-0.24609375,40.71875,5.46875,-27.125,0.0,0.0,0.0,555
556,1695809913999,0.19238281,0.68066406,-0.22363281,17.5625,19.25,-27.125,0.0,0.0,0.0,556
557,1695809914039,0.19628906,0.64453125,-0.28808594,-4.75,42.46875,-19.0625,0.0,0.0,0.0,557
558,1695809914079,0.22949219,0.6201172,-0.36816406,-11.46875,60.03125,-15.21875,0.0,0.0,0.0,558
559,1695809914119,0.2861328,0.6455078,-0.43066406,-24.59375,82.0625,-10.8125,0.0,0.0,0.0,559
560,1695809914159,0.41796875,0.7685547,-0.5371094,-31.1875,74.0,-3.1875,0.0,0.0,0.0,560
561,1695809914199,0.59375,0.9765625,-0.48632812,-9.40625,33.125,2.125,-2.375,37.6875,-132.0625,561
562,1695809914239,0.5839844,1.0039062,-0.6357422,-0.65625,-8.25,14.75,0.0,0.0,0.0,562
563,1695809914279,0.45410156,0.6425781,-0.5498047,-10.4375,-67.09375,19.5,0.0,0.0,0.0,563
564,1695809914319,0.171875,1.4619141,-0.46679688,-40.28125,-56.53125,20.3125,0.0,0.0,0.0,564
565,1695809914359,0.15625,1.3857422,-0.18261719,-9.65625,-15.90625,-4.34375,0.0,0.0,0.0,565
566,1695809914399,0.20605469,0.6425781,-0.05859375,18.25,-4.59375,9.9375,0.0,0.0,0.0,566
567,1695809914439,0.10839844,0.5986328,0.0703125,-6.21875,11.9375,12.75,0.0,0.0,0.0,567
568,1695809914479,0.56347656,1.2294922,-0.0625,-7.5625,26.65625,4.5625,0.0,0.0,0.0,568
569,1695809914519,0.3935547,1.0615234,-0.14355469,-5.0,82.6875,20.90625,0.0,0.0,0.0,569
570,1695809914559,0.36328125,0.81152344,-0.08496094,-13.3125,61.5,14.875,0.0,0.0,0.0,570
571,1695809914599,0.46679688,0.8642578,-0.0234375,-8.375,59.4375,10.65625,0.0,0.0,0.0,571
572,1695809914639,0.48632812,0.859375,-0.055664062,-15.375,44.21875,-0.25,0.0,0.0,0.0,572
573,1695809914679,0.45410156,0.8027344,-0.1171875,-14.40625,41.1875,3.875,1.5,35.5625,-124.5625,573
574,1695809914719,0.49316406,0.7998047,-0.103515625,-26.90625,31.15625,0.15625,0.0,0.0,0.0,574
575,1695809914759,0.49121094,0.8125,-0.09082031,-32.40625,12.71875,-7.28125,0.0,0.0,0.0,575
576,1695809914799,0.4404297,0.84765625,-0.14160156,-31.75,5.78125,-8.3125,0.0,0.0,0.0,576
577,1695809914839,0.5,0.87597656,-0.14746094,-31.4375,12.5,-15.09375,0.0,0.0,0.0,577
578,1695809914879,0.46777344,0.8486328,-0.103515625,-29.78125,17.3125,-21.875,0.0,0.0,0.0,578
579,1695809914919,0.42382812,0.86328125,-0.080078125,-33.03125,25.71875,-21.625,0.0,0.0,0.0,579
580,1695809914959,0.4326172,0.8652344,0.025390625,-31.375,41.40625,-13.9375,0.0,0.0,0.0,580
581,1695809914999,0.4892578,0.8642578,0.041992188,-21.71875,23.59375,-13.4375,0.0,0.0,0.0,581
582,1695809915039,0.53222656,0.9580078,0.01171875,-13.625,27.5,-8.0625,0.0,0.0,0.0,582
583,1695809915079,0.7441406,1.1279297,0.20019531,8.4375,8.9375,6.9375,0.0,0.0,0.0,583
584,1695809915119,0.5126953,1.3017578,0.103515625,29.90625,-40.96875,21.53125,0.0,0.0,0.0,584
585,1695809915159,0.29101562,1.0400391,0.061523438,85.09375,-55.9375,4.6875,0.0,0.0,0.0,585
586,1695809915199,0.29003906,0.9375,-0.13769531,104.84375,-46.84375,-6.6875,-1.375,36.1875,-118.25,586
587,1695809915239,0.43945312,0.9765625,-0.15039062,97.96875,-47.4375,5.21875,0.0,0.0,0.0,587
588,1695809915279,0.40429688,0.9550781,-0.15527344,82.46875,-80.78125,5.78125,0.0,0.0,0.0,588
589,1695809915319,0.2626953,0.92578125,-0.22851562,42.59375,-79.90625,-1.125,0.0,0.0,0.0,589
590,1695809915359,0.2421875,0.89453125,-0.2763672,31.5625,-69.71875,1.0625,0.0,0.0,0.0,590
591,1695809915399,0.27441406,0.8544922,-0.265625,31.125,-58.125,5.59375,0.0,0.0,0.0,591
592,1695809915439,0.29589844,0.78027344,-0.15527344,22.03125,-56.25,4.375,0.0,0.0,0.0,592
593,1695809915479,0.14160156,0.74902344,-0.22070312,-21.53125,-56.25,-6.375,0.0,0.0,0.0,593
594,1695809915519,0.15722656,0.78515625,-0.3564453,-37.53125,-24.4375,-9.25,0.0,0.0,0.0,594
595,1695809915559,0.18554688,0.75390625,-0.34472656,-28.125,4.125,-10.03125,0.0,0.0,0.0,595
596,1695809915599,0.16992188,0.7314453,-0.38964844,-29.90625,20.4375,-7.40625,0.0,0.0,0.0,596
597,1695809915639,0.31054688,0.7792969,-0.37109375,-47.125,24.03125,-0.8125,0.0,0.0,0.0,597
598,1695809915679,0.33691406,0.9609375,-0.44140625,-41.3125,7.46875,-7.84375,-1.375,39.0625,-134.4375,598
599,1695809915719,0.31835938,1.0625,-0.42382812,-5.1875,-15.90625,-3.0,0.0,0.0,0.0,599
600,1695809915759,0.265625,0.88964844,-0.4970703,-7.5625,-23.71875,7.125,0.0,0.0,0.0,600
601,1695809915799,0.15429688,0.6972656,-0.39746094,-10.75,-21.15625,19.8125,0.0,0.0,0.0,601
602,1695809915839,0.099609375,1.1503906,-0.3671875,-15.8125,-34.625,21.40625,0.0,0.0,0.0,602
603,1695809915879,0.19433594,1.4462891,-0.2705078,-9.53125,-3.875,20.78125,0.0,0.0,0.0,603
604,1695809915919,0.36035156,1.2177734,-0.3857422,26.0,-34.09375,-7.96875,0.0,0.0,0.0,604
605,1695809915959,-0.0107421875,0.46484375,0.078125,7.625,23.90625,12.4375,0.0,0.0,0.0,605
606,1695809915999,0.38378906,0.9589844,0.029296875,3.84375,37.15625,4.8125,0.0,0.0,0.0,606
607,1695809916039,0.5595703,1.0947266,0.028320312,7.9375,74.875,4.8125,0.0,0.0,0.0,607
608,1695809916079,0.3798828,1.0068359,-0.078125,2.5625,66.6875,2.96875,0.0,0.0,0.0,608
609,1695809916119,0.3876953,0.80859375,-0.11328125,-8.1875,58.25,6.4375,0.0,0.0,0.0,609
610,1695809916159,0.484375,0.8701172,-0.14746094,-21.25,60.78125,4.1875,0.0,0.0,0.0,610
611,1695809916199,0.5371094,0.80859375,-0.057617188,-27.21875,37.15625,-0.25,-0.4375,37.5625,-128.4375,611
612,1695809916239,0.47558594,0.74902344,-0.10644531,-31.90625,15.78125,10.40625,0.0,0.0,0.0,612
613,1695809916279,0.37402344,0.91308594,-0.18652344,-31.96875,10.0,9.5,0.0,0.0,0.0,613
614,1695809916319,0.39453125,0.8183594,-0.21679688,-23.4375,8.53125,-2.40625,0.0,0.0,0.0,614
615,1695809916359,0.48632812,0.8574219,-0.12988281,-20.4375,7.78125,-6.25,0.0,0.0,0.0,615
616,1695809916399,0.421875,0.9003906,-0.20507812,-9.03125,3.625,-5.9375,0.0,0.0,0.0,616
617,1695809916439,0.39160156,0.9736328,-0.19042969,20.3125,34.34375,16.6875,0.0,0.0,0.0,617
618,1695809916479,0.3076172,0.78125,-0.15234375,11.0625,4.90625,14.625,0.0,0.0,0.0,618
619,1695809916519,0.35742188,0.875,0.061523438,12.09375,-6.5625,10.96875,0.0,0.0,0.0,619
620,1695809916559,0.4970703,1.2519531,0.07421875,13.84375,-10.03125,23.59375,0.0,0.0,0.0,620
621,1695809916599,0.6035156,1.0341797,-0.08105469,58.96875,-52.875,2.25,0.0,0.0,0.0,621
622,1695809916639,0.46289062,0.8408203,-0.25878906,90.6875,-109.8125,-23.75,0.0,0.0,0.0,622
623,1695809916679,0.40722656,0.78808594,-0.12792969,40.90625,-128.6875,-19.84375,1.5,38.4375,-129.9375,623
624,1695809916719,0.5136719,1.0820312,-0.25585938,47.53125,-115.375,2.1875,0.0,0.0,0.0,624
625,1695809916759,0.32226562,0.9423828,-0.33007812,22.15625,-111.78125,8.21875,0.0,0.0,0.0,625
626,1695809916799,0.080078125,0.8544922,-0.35058594,-2.3125,-95.40625,12.125,0.0,0.0,0.0,626
627,1695809916839,0.27539062,0.7109375,-0.34472656,-18.90625,-70.75,21.46875,0.0,0.0,0.0,627
628,1695809916879,0.19433594,0.63183594,-0.3017578,-37.59375,-64.78125,35.1875,0.0,0.0,0.0,628
629,1695809916919,0.11328125,0.67578125,-0.4501953,-48.21875,-69.65625,40.25,0.0,0.0,0.0,629
630,1695809916959,0.2109375,0.82128906,-0.48828125,-25.6875,-86.28125,46.5625,0.0,0.0,0.0,630
631,1695809916999,0.31640625,0.70410156,-0.2998047,4.09375,-98.34375,59.78125,0.0,0.0,0.0,631
632,1695809917039,0.10253906,0.72558594,-0.35351562,-14.84375,-70.8125,65.40625,0.0,0.0,0.0,632
633,1695809917079,0.10253906,1.0351562,-0.35546875,-33.25,-26.03125,64.6875,0.0,0.0,0.0,633
634,1695809917119,0.5136719,1.1894531,-0.42382812,46.25,-93.90625,26.40625,0.0,0.0,0.0,634
635,1695809917159,0.17675781,0.66015625,-0.4609375,38.40625,-60.25,40.4375,0.0,0.0,0.0,635
636,1695809917199,0.4873047,0.8466797,-0.43945312,41.0,-49.65625,44.65625,7.0625,29.3125,-149.125,636
637,1695809917239,0.2734375,0.5830078,-0.4580078,28.625,-43.96875,41.78125,0.0,0.0,0.0,637
638,1695809917279,0.49804688,0.5595703,-0.6152344,30.625,-50.125,44.84375,0.0,0.0,0.0,638
639,1695809917319,0.2734375,0.59765625,-0.5546875,41.25,-47.8125,49.1875,0.0,0.0,0.0,639
640,1695809917359,0.44335938,0.5566406,-0.57421875,55.78125,-39.5,51.4375,0.0,0.0,0.0,640
641,1695809917399,0.3671875,0.5546875,-0.65527344,47.0,-30.78125,47.59375,0.0,0.0,0.0,641
642,1695809917439,0.4296875,0.5332031,-0.6464844,52.6875,-35.96875,42.53125,0.0,0.0,0.0,642
643,1695809917479,0.41992188,0.5810547,-0.68652344,59.375,-38.15625,41.0625,0.0,0.0,0.0,643
644,1695809917519,0.40820312,0.4970703,-0.75097656,56.625,-29.8125,39.84375,0.0,0.0,0.0,644
645,1695809917559,0.43945312,0.53222656,-0.7998047,56.15625,-28.59375,38.96875,0.0,0.0,0.0,645
646,1695809917599,0.3642578,0.4873047,-0.8623047,51.28125,-16.8125,33.0625,0.0,0.0,0.0,646
647,1695809917639,0.47558594,0.63964844,-0.8857422,63.84375,-3.3125,24.6875,0.0,0.0,0.0,647
648,1695809917679,0.6230469,0.44140625,-0.93652344,59.5,13.84375,17.1875,9.625,6.0625,-166.5625,648
649,1695809917719,0.6953125,0.20117188,-1.0458984,40.40625,-2.46875,15.40625,0.0,0.0,0.0,649
650,1695809917759,0.5683594,0.12988281,-1.0791016,30.28125,-10.8125,12.125,0.0,0.0,0.0,650
651,1695809917799,0.46289062,0.15234375,-1.0527344,16.0625,-26.75,8.59375,0.0,0.0,0.0,651
652,1695809917839,0.34570312,0.2265625,-0.9980469,6.40625,-13.5,8.59375,0.0,0.0,0.0,652
653,1695809917879,0.2705078,0.24804688,-0.9609375,6.84375,-11.75,8.21875,0.0,0.0,0.0,653
654,1695809917919,0.27929688,0.26660156,-0.9169922,14.84375,-10.03125,6.9375,0.0,0.0,0.0,654
655,1695809917959,0.31933594,0.21972656,-0.77734375,22.59375,-5.625,5.90625,0.0,0.0,0.0,655
656,1695809917999,0.39453125,0.24902344,-1.0039062,11.53125,-6.125,4.96875,0.0,0.0,0.0,656
657,1695809918039,0.3310547,0.17578125,-0.8544922,21.84375,-11.9375,5.15625,0.0,0.0,0.0,657
658,1695809918079,0.3623047,0.18261719,-1.0205078,1.40625,-1.375,2.125,0.0,0.0,0.0,658
659,1695809918119,0.41015625,0.15625,-0.84277344,13.90625,-8.625,0.15625,0.0,0.0,0.0,659
660,1695809918159,0.32128906,0.14746094,-1.0068359,-8.59375,-4.0625,-4.59375,0.0,0.0,0.0,660
661,1695809918199,0.30859375,0.20117188,-0.8798828,2.875,-11.375,-6.0,7.9375,-0.5625,-172.875,661
662,1695809918239,0.25878906,0.18261719,-0.9453125,-11.0625,-3.25,-4.40625,0.0,0.0,0.0,662
663,1695809918279,0.35351562,0.23144531,-0.93847656,-6.28125,-7.03125,-5.6875,0.0,0.0,0.0,663
664,1695809918319,0.2998047,0.18652344,-0.9033203,-9.40625,-4.90625,-4.46875,0.0,0.0,0.0,664
665,1695809918359,0.3564453,0.26757812,-0.93652344,-4.03125,-9.96875,-4.21875,0.0,0.0,0.0,665
666,1695809918399,0.29101562,0.16308594,-0.92285156,-2.0625,-20.21875,-12.59375,0.0,0.0,0.0,666
667,1695809918439,0.30664062,0.22167969,-0.99121094,-6.84375,-8.4375,-4.96875,0.0,0.0,0.0,667
668,1695809918479,0.20117188,0.24023438,-0.875,-10.1875,-11.0,-4.0625,0.0,0.0,0.0,668
669,1695809918519,0.22265625,0.24121094,-0.98046875,-13.375,-8.03125,-5.46875,0.0,0.0,0.0,669
670,1695809918559,0.25097656,0.22460938,-0.91796875,-8.90625,0.65625,-5.46875,0.0,0.0,0.0,670
671,1695809918599,0.26464844,0.20996094,-0.9433594,-14.59375,4.6875,-4.59375,0.0,0.0,0.0,671
672,1695809918639,0.23144531,0.26171875,-0.9042969,-22.46875,7.53125,-5.8125,0.0,0.0,0.0,672
673,1695809918679,0.25976562,0.31054688,-0.90234375,-23.4375,9.875,-7.21875,7.0625,5.3125,-174.8125,673
674,1695809918719,0.3076172,0.35839844,-0.91796875,-18.96875,6.5625,-8.375,0.0,0.0,0.0,674
675,1695809918759,0.30566406,0.37597656,-0.88671875,-18.75,-0.03125,-10.46875,0.0,0.0,0.0,675
676,1695809918799,0.25097656,0.3828125,-0.8701172,-14.03125,-4.46875,-9.59375,0.0,0.0,0.0,676
677,1695809918839,0.22851562,0.3251953,-0.86328125,-21.0,-11.1875,-10.8125,0.0,0.0,0.0,677
678,1695809918879,0.2548828,0.42773438,-0.9707031,-15.875,-3.75,-9.0,0.0,0.0,0.0,678
679,1695809918919,0.2109375,0.33007812,-0.90722656,-9.34375,-2.46875,-8.5625,0.0,0.0,0.0,679
680,1695809918959,0.234375,0.375,-0.9121094,-5.75,0.65625,-9.59375,0.0,0.0,0.0,680
681,1695809918999,0.23242188,0.37402344,-0.90527344,-2.5,0.78125,-11.0625,0.0,0.0,0.0,681
682,1695809919039,0.23925781,0.3095703,-0.8798828,2.5625,-1.96875,-8.25,0.0,0.0,0.0,682
683,1695809919079,0.28027344,0.3154297,-1.0849609,-4.28125,-0.03125,-7.46875,0.0,0.0,0.0,683
684,1695809919119,0.34277344,0.3701172,-1.1132812,-0.0625,-10.53125,-7.34375,0.0,0.0,0.0,684
685,1695809919159,0.3544922,0.28320312,-1.1396484,-20.625,-0.9375,-5.40625,0.0,0.0,0.0,685
686,1695809919199,0.25,0.45898438,-1.0625,-39.71875,2.125,-4.53125,3.875,8.875,-173.0,686
687,1695809919239,0.2734375,0.39453125,-1.0068359,-29.71875,15.71875,-1.90625,0.0,0.0,0.0,687
688,1695809919279,0.390625,0.43164062,-1.0263672,-41.25,18.96875,-2.59375,0.0,0.0,0.0,688
689,1695809919319,0.2841797,0.48046875,-0.9638672,-52.78125,20.0625,-3.9375,0.0,0.0,0.0,689
690,1695809919359,0.3173828,0.6152344,-0.9355469,-65.96875,24.6875,-5.8125,0.0,0.0,0.0,690
691,1695809919399,0.28710938,0.64941406,-0.86035156,-83.1875,33.4375,-5.5,0.0,0.0,0.0,691
692,1695809919439,0.22167969,0.6484375,-0.890625,-82.875,45.15625,2.40625,0.0,0.0,0.0,692
693,1695809919479,0.2939453,0.67871094,-0.7392578,-97.59375,60.84375,3.40625,0.0,0.0,0.0,693
694,1695809919519,0.27441406,0.6845703,-0.6699219,-101.75,67.96875,-2.21875,0.0,0.0,0.0,694
695,1695809919559,0.29101562,0.6152344,-0.5576172,-101.6875,69.5,-11.8125,0.0,0.0,0.0,695
696,1695809919599,0.29589844,0.59375,-0.49121094,-93.09375,53.3125,-13.09375,0.0,0.0,0.0,696
697,1695809919639,0.2861328,0.6435547,-0.484375,-74.09375,47.53125,-15.84375,0.0,0.0,0.0,697
698,1695809919679,0.3017578,0.71191406,-0.3466797,-64.625,36.53125,-9.40625,11.375,27.5,-149.625,698
699,1695809919719,0.2841797,0.60546875,-0.28125,-62.8125,36.21875,-13.28125,0.0,0.0,0.0,699
700,1695809919759,0.34472656,0.70214844,-0.140625,-56.875,63.28125,-13.3125,0.0,0.0,0.0,700
701,1695809919799,0.2919922,0.6669922,-0.05859375,-60.125,60.03125,-18.34375,0.0,0.0,0.0,701
702,1695809919839,0.3828125,0.83496094,0.083984375,-52.75,47.03125,-14.4375,0.0,0.0,0.0,702
703,1695809919879,0.42089844,0.85546875,0.068359375,-58.71875,22.6875,-5.875,0.0,0.0,0.0,703
704,1695809919919,0.5800781,0.81347656,0.07910156,-47.25,10.09375,-2.03125,0.0,0.0,0.0,704
705,1695809919959,0.5410156,0.8671875,-0.07714844,-50.71875,-15.34375,-6.25,0.0,0.0,0.0,705
706,1695809919999,0.46875,0.8652344,0.044921875,-40.59375,-12.09375,-3.8125,0.0,0.0,0.0,706
707,1695809920039,0.5488281,0.8642578,-0.0390625,-50.0625,-16.1875,-12.65625,0.0,0.0,0.0,707
708,1695809920079,0.42871094,0.7861328,0.0107421875,-51.15625,-20.09375,-13.625,0.0,0.0,0.0,708
709,1695809920119,0.31640625,0.8564453,-0.052734375,-50.28125,-9.375,-13.375,0.0,0.0,0.0,709
710,1695809920159,0.3486328,0.9580078,0.02734375,-23.1875,12.84375,-23.53125,0.0,0.0,0.0,710
711,1695809920199,0.29492188,0.9863281,-0.03515625,-15.625,25.84375,-30.78125,11.875,31.5625,-128.625,711
712,1695809920239,0.4716797,0.8642578,0.025390625,-0.78125,37.28125,-26.4375,0.0,0.0,0.0,712
713,1695809920279,0.6669922,0.8046875,-0.024414062,-13.90625,18.53125,-21.8125,0.0,0.0,0.0,713
714,1695809920319,0.6533203,0.91503906,0.12597656,-10.625,5.34375,-11.0625,0.0,0.0,0.0,714
715,1695809920359,0.49414062,1.1660156,0.21191406,-8.0625,-8.625,-1.5625,0.0,0.0,0.0,715
716,1695809920399,0.49902344,1.2480469,0.09277344,8.78125,-11.25,3.28125,0.0,0.0,0.0,716
717,1695809920439,0.43945312,1.0107422,0.0625,47.71875,-31.8125,-17.65625,0.0,0.0,0.0,717
718,1695809920479,0.22167969,0.9189453,0.0048828125,68.25,-53.96875,-11.9375,0.0,0.0,0.0,718
719,1695809920519,0.2685547,1.0273438,-0.026367188,94.84375,-50.875,3.46875,0.0,0.0,0.0,719
720,1695809920559,0.40429688,0.9794922,-0.029296875,97.53125,-53.96875,10.15625,0.0,0.0,0.0,720
721,1695809920599,0.36035156,0.9794922,-0.16308594,82.34375,-67.40625,12.84375,0.0,0.0,0.0,721
722,1695809920639,0.33203125,0.9355469,-0.18261719,73.65625,-70.875,12.96875,0.0,0.0,0.0,722
723,1695809920679,0.27441406,0.89160156,-0.22167969,52.0,-74.25,22.5,8.5625,34.25,-144.375,723
724,1695809920719,0.30273438,0.81933594,-0.22265625,31.90625,-77.21875,27.1875,0.0,0.0,0.0,724
725,1695809920759,0.22753906,0.7949219,-0.22363281,11.53125,-86.9375,34.09375,0.0,0.0,0.0,725
726,1695809920799,0.20507812,0.8222656,-0.23730469,-8.84375,-86.875,35.0625,0.0,0.0,0.0,726
727,1695809920839,0.21289062,0.7763672,-0.29101562,-12.375,-62.03125,33.5625,0.0,0.0,0.0,727
728,1695809920879,0.31054688,0.7216797,-0.29785156,-16.53125,-53.0625,29.28125,0.0,0.0,0.0,728
729,1695809920919,0.25976562,0.7392578,-0.36523438,-31.6875,-52.40625,20.1875,0.0,0.0,0.0,729
730,1695809920959,0.2578125,0.7841797,-0.5205078,-37.90625,-65.875,9.1875,0.0,0.0,0.0,730
731,1695809920999,0.36523438,0.81640625,-0.5205078,-38.28125,-63.75,9.625,0.0,0.0,0.0,731
732,1695809921039,0.34960938,0.7597656,-0.4189453,-44.125,-69.125,25.90625,0.0,0.0,0.0,732
733,1695809921079,0.34765625,0.6972656,-0.49609375,-44.25,-94.875,33.78125,0.0,0.0,0.0,733
734,1695809921119,0.17773438,0.88964844,-0.50390625,-49.625,-68.8125,51.25,0.0,0.0,0.0,734
735,1695809921159,0.5595703,2.0136719,-0.25,-60.5,-43.65625,33.90625,0.0,0.0,0.0,735
736,1695809921199,0.328125,0.9794922,-0.2685547,-1.15625,-72.78125,-9.0,5.125,30.5,-152.875,736
737,1695809921239,0.09765625,0.42382812,-0.09472656,-9.09375,-56.40625,19.9375,0.0,0.0,0.0,737
738,1695809921279,0.4453125,0.6767578,0.10449219,0.0625,-3.625,37.875,0.0,0.0,0.0,738
739,1695809921319,0.7402344,1.2285156,0.0390625,-30.28125,11.09375,30.9375,0.0,0.0,0.0,739
740,1695809921359,0.18554688,0.9345703,-0.24609375,-36.0,-62.59375,12.78125,0.0,0.0,0.0,740
741,1695809921399,0.24414062,0.7734375,-0.24902344,-34.5,-8.6875,29.875,0.0,0.0,0.0,741
742,1695809921439,0.71777344,0.93066406,-0.053710938,-51.28125,16.46875,19.4375,0.0,0.0,0.0,742
743,1695809921479,0.54003906,0.81640625,-0.068359375,-75.25,-22.90625,11.40625,0.0,0.0,0.0,743
744,1695809921519,0.3857422,0.859375,0.0107421875,-81.25,-36.40625,10.34375,0.0,0.0,0.0,744
745,1695809921559,0.29492188,0.8574219,-0.07714844,-75.9375,-11.3125,6.21875,0.0,0.0,0.0,745
746,1695809921599,0.30078125,0.8173828,-0.061523438,-52.5625,11.9375,-3.5,0.0,0.0,0.0,746
747,1695809921639,0.40234375,0.77246094,-0.028320312,-43.59375,5.34375,-20.28125,0.0,0.0,0.0,747
748,1695809921679,0.42285156,0.859375,-0.099609375,-38.15625,10.71875,-23.65625,8.875,33.5,-147.1875,748
749,1695809921719,0.39746094,0.9423828,-0.053710938,-33.6875,38.625,-21.09375,0.0,0.0,0.0,749
750,1695809921759,0.43945312,0.9404297,0.021484375,-28.3125,42.28125,-18.15625,0.0,0.0,0.0,750
751,1695809921799,0.56933594,0.82128906,0.036132812,-23.75,5.15625,-16.0,0.0,0.0,0.0,751
752,1695809921839,0.71191406,1.0615234,0.09375,-17.59375,-0.5625,-0.75,0.0,0.0,0.0,752
753,1695809921879,0.765625,1.0996094,0.10058594,-1.46875,-36.34375,13.34375,0.0,0.0,0.0,753
754,1695809921919,0.4970703,1.0263672,0.11621094,43.34375,-74.78125,7.65625,0.0,0.0,0.0,754
755,1695809921959,0.20898438,0.9404297,-0.03515625,84.40625,-103.21875,0.96875,0.0,0.0,0.0,755
756,1695809921999,0.43066406,1.1835938,-0.046875,97.90625,-82.0,11.625,0.0,0.0,0.0,756
757,1695809922039,0.39941406,0.95703125,-0.038085938,91.625,-85.03125,24.6875,0.0,0.0,0.0,757
758,1695809922079,0.37109375,1.0380859,-0.17089844,78.1875,-95.125,17.6875,0.0,0.0,0.0,758
759,1695809922119,0.41015625,0.93652344,-0.25195312,64.34375,-89.8125,7.1875,0.0,0.0,0.0,759
