,timestamp,accel_x,accel_y,accel_z,gyro_x,gyro_y,gyro_z,mag_x,mag_y,mag_z,ind
0,1696168272922,-1.3105469,-0.20703125,0.01171875,51.0,-16.1875,0.90625,0.0,0.0,0.0,0
1,1696168272962,-0.8798828,-0.08203125,-0.0146484375,34.71875,-31.4375,10.84375,0.0,0.0,0.0,1
2,1696168273002,-1.0380859,-0.21289062,0.18652344,29.34375,-20.15625,20.4375,0.0,0.0,0.0,2
3,1696168273042,-1.0986328,-0.21582031,0.11230469,-17.90625,-11.6875,-23.15625,0.0,0.0,0.0,3
4,1696168273082,-1.0644531,-0.3095703,0.13867188,-26.0625,-38.84375,-53.1875,-45.0,16.6875,-113.625,4
5,1696168273122,-1.0126953,-0.3251953,0.12597656,-14.59375,-32.65625,-53.1875,0.0,0.0,0.0,5
6,1696168273162,-0.9628906,-0.19824219,0.12402344,3.46875,-27.65625,-47.75,0.0,0.0,0.0,6
7,1696168273202,-1.0498047,-0.1796875,0.057617188,22.03125,-18.03125,-24.3125,0.0,0.0,0.0,7
8,1696168273242,-0.953125,-0.21875,0.064453125,-1.53125,-14.0,-27.96875,0.0,0.0,0.0,8
9,1696168273282,-0.81152344,-0.15332031,0.13476562,-11.3125,0.03125,-26.25,0.0,0.0,0.0,9
10,1696168273322,-0.7919922,-0.20019531,0.12011719,-11.0,9.875,-7.21875,0.0,0.0,0.0,10
11,1696168273362,-0.7841797,-0.2890625,0.12402344,3.78125,13.53125,13.03125,0.0,0.0,0.0,11
12,1696168273402,-0.60253906,-0.2626953,0.18261719,10.25,13.96875,34.40625,0.0,0.0,0.0,12
13,1696168273442,-0.53027344,-0.27246094,0.08984375,-5.25,23.84375,65.21875,0.0,0.0,0.0,13
14,1696168273482,-1.0078125,-0.3671875,0.13671875,63.875,20.0,66.40625,0.0,0.0,0.0,14
15,1696168273522,-0.9902344,-0.38964844,0.18359375,76.78125,11.03125,52.21875,0.0,0.0,0.0,15
16,1696168273562,-1.0146484,-0.026367188,-0.017578125,41.65625,42.09375,26.90625,-47.125,13.5625,-112.25,16
17,1696168273602,-1.15625,-0.23632812,0.2783203,23.59375,69.375,12.0625,0.0,0.0,0.0,17
18,1696168273642,-1.0126953,-0.18066406,0.3017578,-13.25,10.65625,-6.65625,0.0,0.0,0.0,18
19,1696168273682,-1.0849609,-0.015625,0.1171875,-4.84375,2.84375,10.25,0.0,0.0,0.0,19
20,1696168273722,-1.3583984,-0.14257812,-0.064453125,-27.78125,45.21875,5.40625,0.0,0.0,0.0,20
21,1696168273762,-1.1757812,-0.1796875,0.0146484375,-61.1875,46.4375,-12.40625,0.0,0.0,0.0,21
22,1696168273802,-1.0839844,-0.3251953,0.07324219,-39.8125,2.375,-2.75,0.0,0.0,0.0,22
23,1696168273842,-1.0820312,-0.16015625,-0.032226562,6.8125,18.71875,-0.5625,0.0,0.0,0.0,23
24,1696168273882,-0.9042969,-0.21484375,-0.0859375,-23.15625,1.3125,-1.65625,0.0,0.0,0.0,24
25,1696168273922,-1.1621094,-0.15722656,-0.15917969,18.78125,35.75,12.875,0.0,0.0,0.0,25
26,1696168273962,-1.0634766,-0.14746094,-0.1953125,2.375,-2.28125,12.25,0.0,0.0,0.0,26
27,1696168274002,-0.9951172,-0.22167969,-0.08203125,1.4375,4.6875,3.34375,0.0,0.0,0.0,27
28,1696168274042,-0.9609375,-0.08105469,-0.12402344,22.6875,13.03125,3.46875,0.0,0.0,0.0,28
29,1696168274082,-0.9667969,-0.1328125,-0.08984375,12.0625,14.5,6.34375,-44.125,19.375,-122.0,29
30,1696168274122,-0.95410156,-0.16308594,-0.087890625,21.46875,11.9375,7.8125,0.0,0.0,0.0,30
31,1696168274162,-0.89746094,-0.2109375,-0.020507812,13.03125,1.03125,-4.90625,0.0,0.0,0.0,31
32,1696168274202,-0.8857422,-0.11035156,-0.07910156,15.5625,-14.125,-11.71875,0.0,0.0,0.0,32
33,1696168274242,-0.72753906,-0.19335938,-0.02734375,8.21875,-13.875,-14.59375,0.0,0.0,0.0,33
34,1696168274282,-0.9189453,-0.22265625,-0.0390625,-2.8125,-5.3125,-21.8125,0.0,0.0,0.0,34
35,1696168274322,-0.9111328,-0.17871094,-0.09472656,17.375,-9.21875,-18.15625,0.0,0.0,0.0,35
36,1696168274362,-0.9970703,-0.13769531,-0.08300781,-11.5,-16.0625,-12.71875,0.0,0.0,0.0,36
37,1696168274402,-0.9941406,-0.23632812,-0.13085938,-16.4375,1.3125,-7.03125,0.0,0.0,0.0,37
38,1696168274442,-1.0673828,-0.35351562,-0.09765625,-33.59375,13.0,-2.03125,0.0,0.0,0.0,38
39,1696168274482,-1.0205078,-0.2763672,-0.1640625,-12.90625,-21.25,-7.09375,0.0,0.0,0.0,39
40,1696168274522,-0.95703125,-0.3798828,-0.109375,-4.46875,-14.40625,-2.46875,0.0,0.0,0.0,40
41,1696168274562,-0.9873047,-0.34765625,0.059570312,37.03125,-12.40625,2.78125,-46.1875,17.5625,-120.625,41
42,1696168274602,-1.0869141,-0.1640625,-0.043945312,-4.65625,-22.84375,-14.125,0.0,0.0,0.0,42
43,1696168274642,-1.1816406,-0.3359375,0.068359375,-6.4375,-30.46875,-6.53125,0.0,0.0,0.0,43
44,1696168274682,-1.1435547,-0.2919922,0.049804688,11.75,-32.0625,-15.03125,0.0,0.0,0.0,44
45,1696168274722,-0.84472656,-0.1171875,0.025390625,38.1875,-46.9375,-12.84375,0.0,0.0,0.0,45
46,1696168274762,-1.0654297,-0.0068359375,0.13183594,-1.53125,-28.03125,-22.40625,0.0,0.0,0.0,46
47,1696168274802,-1.2929688,-0.11816406,0.10449219,-51.21875,-5.75,-35.71875,0.0,0.0,0.0,47
48,1696168274842,-1.0742188,-0.27246094,0.09863281,-60.8125,-15.09375,-43.65625,0.0,0.0,0.0,48
49,1696168274882,-1.0888672,-0.3623047,0.08203125,-30.09375,-5.3125,-32.59375,0.0,0.0,0.0,49
50,1696168274922,-1.0039062,-0.38867188,0.15625,-15.9375,-18.875,-35.0625,0.0,0.0,0.0,50
51,1696168274962,-0.9404297,-0.2734375,0.11621094,0.71875,-17.84375,-33.78125,0.0,0.0,0.0,51
52,1696168275002,-0.75878906,-0.13183594,0.052734375,6.8125,-9.78125,-14.96875,0.0,0.0,0.0,52
53,1696168275042,-0.6230469,-0.08984375,0.09472656,12.25,1.4375,4.25,0.0,0.0,0.0,53
54,1696168275082,-0.5410156,-0.13574219,0.13574219,16.9375,-17.28125,22.5625,-49.0625,11.5625,-110.625,54
55,1696168275122,-0.5957031,-0.12988281,0.06738281,-7.78125,-12.15625,46.5,0.0,0.0,0.0,55
56,1696168275162,-0.85253906,-0.39941406,0.1015625,-7.875,29.78125,51.1875,0.0,0.0,0.0,56
57,1696168275202,-0.9121094,-0.5332031,0.16308594,6.21875,21.65625,22.75,0.0,0.0,0.0,57
58,1696168275242,-1.0615234,-0.35546875,-0.08691406,31.0,40.75,14.375,0.0,0.0,0.0,58
59,1696168275282,-1.0078125,-0.25,0.17871094,34.09375,41.625,22.625,0.0,0.0,0.0,59
60,1696168275322,-1.0273438,-0.26367188,0.4248047,30.375,13.65625,17.375,0.0,0.0,0.0,60
61,1696168275362,-1.1162109,-0.3095703,0.22265625,11.40625,17.5,32.75,0.0,0.0,0.0,61
62,1696168275402,-1.1230469,-0.07910156,0.20605469,16.09375,22.8125,20.6875,0.0,0.0,0.0,62
63,1696168275442,-1.3212891,-0.107421875,-0.055664062,-29.6875,46.25,8.21875,0.0,0.0,0.0,63
64,1696168275482,-1.1152344,-0.25976562,-0.0703125,-28.875,-12.65625,7.125,0.0,0.0,0.0,64
65,1696168275522,-1.1074219,-0.37890625,-0.12695312,12.25,14.15625,-8.125,0.0,0.0,0.0,65
66,1696168275562,-1.0419922,-0.0126953125,-0.12890625,4.5625,26.15625,-10.15625,-46.9375,19.0625,-119.0,66
67,1696168275602,-1.2363281,-0.041992188,-0.049804688,8.03125,26.40625,22.6875,0.0,0.0,0.0,67
68,1696168275642,-1.0029297,-0.24609375,-0.103515625,2.0,8.71875,16.53125,0.0,0.0,0.0,68
69,1696168275682,-0.9667969,-0.16992188,-0.08105469,10.0625,10.46875,7.8125,0.0,0.0,0.0,69
70,1696168275722,-0.96875,-0.043945312,-0.07714844,-2.40625,16.78125,11.15625,0.0,0.0,0.0,70
71,1696168275762,-1.0068359,-0.13183594,-0.043945312,-11.4375,16.09375,14.625,0.0,0.0,0.0,71
72,1696168275802,-1.0009766,-0.23730469,-0.07128906,2.0,11.28125,17.5625,0.0,0.0,0.0,72
73,1696168275842,-0.98535156,-0.22558594,-0.0390625,12.375,5.125,11.9375,0.0,0.0,0.0,73
74,1696168275882,-0.9140625,-0.20898438,-0.033203125,5.46875,-3.0625,-0.6875,0.0,0.0,0.0,74
75,1696168275922,-0.79296875,-0.23730469,0.07128906,-23.625,-21.0625,-17.28125,0.0,0.0,0.0,75
76,1696168275962,-0.81152344,-0.22753906,-0.0068359375,-11.5,-23.5,-31.75,0.0,0.0,0.0,76
77,1696168276002,-0.85546875,-0.203125,-0.09472656,8.84375,0.40625,-23.09375,0.0,0.0,0.0,77
78,1696168276042,-0.7373047,-0.13671875,-0.049804688,-13.3125,-9.0,-16.96875,0.0,0.0,0.0,78
79,1696168276082,-1.2226562,-0.41601562,-0.09667969,-22.15625,33.375,-18.25,-46.5,19.375,-119.625,79
80,1696168276122,-0.8466797,-0.17382812,-0.020507812,-2.625,-28.75,-22.90625,0.0,0.0,0.0,80
81,1696168276162,-1.0654297,-0.12988281,-0.095703125,16.90625,-3.5,-1.46875,0.0,0.0,0.0,81
82,1696168276202,-1.0371094,-0.265625,-0.10449219,11.8125,7.5,7.8125,0.0,0.0,0.0,82
83,1696168276242,-1.0429688,-0.28222656,-0.026367188,-3.96875,-4.71875,5.0625,0.0,0.0,0.0,83
84,1696168276282,-0.9199219,-0.24414062,0.005859375,14.8125,-24.25,20.5625,0.0,0.0,0.0,84
85,1696168276322,-0.8886719,-0.3515625,-0.06542969,-0.4375,-14.3125,13.03125,0.0,0.0,0.0,85
86,1696168276362,-1.1552734,-0.3330078,0.009765625,2.125,6.9375,6.09375,0.0,0.0,0.0,86
87,1696168276402,-1.4648438,-0.1015625,0.1484375,-26.875,10.1875,-21.6875,0.0,0.0,0.0,87
88,1696168276442,-0.9824219,-0.07714844,-0.017578125,-4.09375,-56.28125,-19.125,0.0,0.0,0.0,88
89,1696168276482,-1.0546875,-0.12890625,0.11035156,-10.8125,-46.21875,-19.0,0.0,0.0,0.0,89
90,1696168276522,-1.1132812,-0.203125,-0.001953125,-29.5625,-17.28125,-27.0,0.0,0.0,0.0,90
91,1696168276562,-1.2021484,-0.10058594,0.07128906,-17.28125,-31.09375,-27.34375,-49.8125,17.5625,-110.625,91
92,1696168276602,-1.1757812,-0.35058594,0.07519531,-17.78125,-41.9375,-41.09375,0.0,0.0,0.0,92
93,1696168276642,-0.9199219,-0.3798828,0.15820312,-18.8125,-58.0625,-43.71875,0.0,0.0,0.0,93
94,1696168276682,-0.8955078,-0.29785156,0.1015625,5.1875,-23.40625,-31.3125,0.0,0.0,0.0,94
95,1696168276722,-0.94921875,-0.25,0.046875,-5.6875,7.5,-39.0625,0.0,0.0,0.0,95
96,1696168276762,-0.7841797,-0.15429688,0.11328125,-19.53125,12.8125,-33.09375,0.0,0.0,0.0,96
97,1696168276802,-0.6660156,-0.24023438,0.18554688,13.78125,-0.5,-2.75,0.0,0.0,0.0,97
98,1696168276842,-0.6152344,-0.3251953,0.16699219,48.25,-0.75,27.4375,0.0,0.0,0.0,98
99,1696168276882,-0.6767578,-0.20507812,0.103515625,38.4375,6.5625,27.21875,0.0,0.0,0.0,99
100,1696168276922,-0.7519531,-0.203125,0.140625,21.40625,23.84375,30.0625,0.0,0.0,0.0,100
101,1696168276962,-0.8232422,-0.21777344,0.11328125,25.9375,23.53125,37.03125,0.0,0.0,0.0,101
102,1696168277002,-1.0761719,-0.4140625,0.038085938,58.8125,38.5625,40.6875,0.0,0.0,0.0,102
103,1696168277042,-1.0712891,-0.40820312,0.21582031,48.375,49.0,29.46875,0.0,0.0,0.0,103
104,1696168277082,-1.2373047,-0.20117188,0.38085938,12.625,25.75,13.96875,-49.0625,16.25,-112.6875,104
105,1696168277122,-0.92089844,-0.27539062,0.040039062,-15.09375,1.5625,16.53125,0.0,0.0,0.0,105
106,1696168277162,-1.1113281,-0.22949219,0.24316406,-0.625,29.03125,8.15625,0.0,0.0,0.0,106
107,1696168277202,-1.1445312,-0.20605469,-0.0546875,-32.5625,46.75,-10.34375,0.0,0.0,0.0,107
108,1696168277242,-1.1816406,0.0087890625,-0.0146484375,13.40625,48.5,-8.0625,0.0,0.0,0.0,108
109,1696168277282,-0.8769531,-0.1171875,-0.026367188,-40.96875,7.75,-15.8125,0.0,0.0,0.0,109
110,1696168277322,-1.2529297,-0.038085938,-0.044921875,-11.0,36.4375,-3.25,0.0,0.0,0.0,110
111,1696168277362,-1.2578125,-0.17675781,-0.16015625,-17.96875,1.4375,8.15625,0.0,0.0,0.0,111
112,1696168277402,-1.078125,-0.2265625,-0.14453125,-18.75,-5.5625,17.6875,0.0,0.0,0.0,112
113,1696168277442,-1.0478516,-0.2841797,-0.103515625,12.625,14.375,24.8125,0.0,0.0,0.0,113
114,1696168277482,-1.0507812,-0.15625,-0.048828125,-7.53125,22.125,20.25,0.0,0.0,0.0,114
115,1696168277522,-0.9765625,-0.09277344,-0.0048828125,13.78125,-1.3125,27.21875,0.0,0.0,0.0,115
116,1696168277562,-0.86328125,-0.29296875,-0.03125,7.5,1.6875,18.65625,-46.9375,20.125,-117.5,116
117,1696168277602,-0.8173828,-0.31347656,-0.0126953125,3.21875,7.125,4.1875,0.0,0.0,0.0,117
118,1696168277642,-0.85253906,-0.21191406,0.028320312,-3.8125,-4.53125,-14.53125,0.0,0.0,0.0,118
119,1696168277682,-0.7705078,-0.20019531,-0.001953125,-7.09375,-22.96875,-26.1875,0.0,0.0,0.0,119
120,1696168277722,-0.7236328,-0.22851562,0.028320312,-9.21875,-29.3125,-27.0,0.0,0.0,0.0,120
121,1696168277762,-1.0195312,-0.2841797,-0.07324219,1.3125,1.875,-20.03125,0.0,0.0,0.0,121
122,1696168277802,-0.8261719,-0.15527344,-0.0859375,18.46875,-2.53125,-18.15625,0.0,0.0,0.0,122
123,1696168277842,-1.1816406,-0.21777344,-0.11035156,-28.9375,14.6875,-26.75,0.0,0.0,0.0,123
124,1696168277882,-0.9501953,-0.18652344,-0.0625,-29.6875,-10.03125,-14.71875,0.0,0.0,0.0,124
125,1696168277922,-1.0761719,-0.24511719,-0.14648438,9.09375,-30.78125,-0.5,0.0,0.0,0.0,125
126,1696168277962,-0.94433594,-0.41210938,-0.057617188,0.40625,-15.75,7.375,0.0,0.0,0.0,126
127,1696168278002,-1.1347656,-0.40820312,0.017578125,4.625,-10.9375,-5.5625,0.0,0.0,0.0,127
128,1696168278042,-1.3027344,-0.12597656,0.038085938,5.71875,-3.5,-9.28125,0.0,0.0,0.0,128
129,1696168278082,-1.0957031,-0.10546875,0.037109375,8.78125,-17.40625,0.46875,-47.6875,15.8125,-113.75,129
130,1696168278122,-1.0048828,-0.32714844,0.13769531,9.3125,-29.1875,4.25,0.0,0.0,0.0,130
131,1696168278162,-1.2363281,-0.35253906,0.14648438,-33.71875,-11.375,-29.96875,0.0,0.0,0.0,131
132,1696168278202,-1.1142578,-0.19824219,0.08496094,-24.0625,-18.875,-41.34375,0.0,0.0,0.0,132
133,1696168278242,-1.0410156,-0.08496094,0.0625,-15.625,-28.59375,-33.46875,0.0,0.0,0.0,133
134,1696168278282,-0.9794922,-0.265625,0.09277344,-25.09375,-31.25,-26.3125,0.0,0.0,0.0,134
135,1696168278322,-0.921875,-0.2939453,0.08203125,-15.09375,-9.0625,-24.1875,0.0,0.0,0.0,135
136,1696168278362,-0.95703125,-0.359375,0.056640625,-20.21875,1.4375,-32.375,0.0,0.0,0.0,136
137,1696168278402,-0.8417969,-0.18359375,0.103515625,-11.90625,-4.78125,-25.59375,0.0,0.0,0.0,137
138,1696168278442,-0.66796875,-0.15234375,0.11425781,-3.25,-5.9375,2.0,0.0,0.0,0.0,138
139,1696168278482,-0.66308594,-0.29003906,0.15527344,25.875,2.0,28.375,0.0,0.0,0.0,139
140,1696168278522,-0.6152344,-0.22851562,0.115234375,18.90625,-0.75,51.6875,0.0,0.0,0.0,140
141,1696168278562,-0.78125,-0.30371094,0.052734375,41.375,8.03125,57.78125,-49.8125,12.625,-107.875,141
142,1696168278602,-0.9404297,-0.34765625,0.14453125,45.40625,0.0,34.09375,0.0,0.0,0.0,142
143,1696168278642,-0.984375,-0.26171875,0.14941406,5.34375,20.8125,10.0625,0.0,0.0,0.0,143
144,1696168278682,-0.9980469,-0.2607422,0.026367188,1.15625,29.15625,12.0625,0.0,0.0,0.0,144
145,1696168278722,-1.0234375,-0.3984375,0.25585938,3.46875,32.625,8.71875,0.0,0.0,0.0,145
146,1696168278762,-1.125,-0.39746094,0.27539062,-0.8125,27.4375,6.8125,0.0,0.0,0.0,146
147,1696168278802,-1.0107422,-0.17773438,0.022460938,8.34375,6.9375,10.0625,0.0,0.0,0.0,147
148,1696168278842,-0.9902344,-0.21386719,0.15625,4.9375,34.03125,20.4375,0.0,0.0,0.0,148
149,1696168278882,-1.1943359,-0.16210938,0.08886719,-3.4375,49.84375,17.1875,0.0,0.0,0.0,149
150,1696168278922,-1.0859375,-0.103515625,-0.16113281,-7.21875,29.28125,-1.1875,0.0,0.0,0.0,150
151,1696168278962,-1.0078125,-0.15234375,-0.021484375,-7.21875,19.40625,-9.46875,0.0,0.0,0.0,151
152,1696168279002,-1.2832031,-0.0703125,0.0029296875,4.0,34.34375,2.5,0.0,0.0,0.0,152
153,1696168279042,-1.2021484,-0.15820312,-0.15332031,5.53125,20.0625,5.65625,0.0,0.0,0.0,153
154,1696168279082,-1.0644531,-0.15429688,-0.13964844,-19.78125,-32.59375,-1.84375,-47.125,18.1875,-117.0625,154
155,1696168279122,-0.93652344,-0.1171875,-0.19238281,-10.15625,11.09375,7.125,0.0,0.0,0.0,155
156,1696168279162,-0.9404297,-0.18457031,-0.119140625,16.40625,34.34375,12.375,0.0,0.0,0.0,156
157,1696168279202,-1.0332031,0.06542969,-0.04296875,-1.40625,6.09375,13.71875,0.0,0.0,0.0,157
158,1696168279242,-0.9824219,-0.18457031,-0.00390625,-4.34375,-8.1875,19.21875,0.0,0.0,0.0,158
159,1696168279282,-0.8183594,-0.3798828,-0.05078125,-9.40625,-16.25,-1.96875,0.0,0.0,0.0,159
160,1696168279322,-0.8769531,-0.3408203,-0.005859375,-7.34375,-4.53125,-13.75,0.0,0.0,0.0,160
161,1696168279362,-0.765625,-0.13867188,-0.044921875,12.3125,-12.21875,-26.4375,0.0,0.0,0.0,161
162,1696168279402,-0.9404297,-0.1484375,-0.041992188,-14.0,-13.03125,-17.90625,0.0,0.0,0.0,162
163,1696168279442,-0.890625,-0.21972656,-0.08984375,9.75,-2.21875,-3.375,0.0,0.0,0.0,163
164,1696168279482,-1.0244141,-0.42578125,-0.08691406,16.84375,6.09375,-7.15625,0.0,0.0,0.0,164
165,1696168279522,-1.015625,-0.14453125,-0.08886719,-21.375,2.96875,-11.90625,0.0,0.0,0.0,165
166,1696168279562,-1.0068359,-0.22265625,-0.09277344,20.5,-7.53125,7.0,-48.625,17.4375,-117.375,166
167,1696168279602,-1.0205078,-0.37109375,-0.064453125,3.9375,-17.53125,5.59375,0.0,0.0,0.0,167
168,1696168279642,-1.0556641,-0.28710938,-0.048828125,11.875,-19.4375,3.65625,0.0,0.0,0.0,168
169,1696168279682,-1.1826172,-0.2861328,0.047851562,15.65625,-16.75,-0.25,0.0,0.0,0.0,169
170,1696168279722,-1.2177734,-0.14550781,-0.09082031,8.65625,-8.3125,-1.65625,0.0,0.0,0.0,170
171,1696168279762,-1.1845703,-0.16210938,0.12597656,29.71875,-26.4375,1.375,0.0,0.0,0.0,171
172,1696168279802,-1.109375,-0.18457031,0.09863281,-11.90625,-10.34375,-24.0625,0.0,0.0,0.0,172
173,1696168279842,-0.9824219,-0.13769531,0.13769531,-23.9375,-31.8125,-40.3125,0.0,0.0,0.0,173
174,1696168279882,-1.140625,-0.076171875,0.060546875,-32.90625,-24.78125,-40.0625,0.0,0.0,0.0,174
175,1696168279922,-1.0166016,-0.15917969,0.041992188,-29.96875,-24.4375,-32.125,0.0,0.0,0.0,175
176,1696168279962,-1.0595703,-0.36132812,0.10839844,-23.6875,-12.96875,-31.9375,0.0,0.0,0.0,176
177,1696168280002,-0.8964844,-0.2939453,0.060546875,-8.0625,-14.0625,-32.0625,0.0,0.0,0.0,177
178,1696168280042,-0.7558594,-0.13867188,0.09472656,3.84375,-14.84375,-23.15625,0.0,0.0,0.0,178
179,1696168280082,-0.65527344,-0.04296875,0.12011719,-3.125,-8.0625,-2.6875,-48.875,12.0625,-108.375,179
180,1696168280122,-0.62597656,-0.07421875,0.09667969,8.78125,-12.90625,18.21875,0.0,0.0,0.0,180
181,1696168280162,-0.69921875,-0.22070312,0.13671875,23.71875,-0.5625,37.28125,0.0,0.0,0.0,181
182,1696168280202,-0.86621094,-0.2685547,0.12890625,29.15625,17.3125,47.46875,0.0,0.0,0.0,182
183,1696168280242,-0.9267578,-0.2763672,0.19628906,42.15625,16.34375,39.34375,0.0,0.0,0.0,183
184,1696168280282,-0.9111328,-0.5078125,0.0859375,-4.90625,11.65625,25.125,0.0,0.0,0.0,184
185,1696168280322,-1.2089844,-0.296875,0.16210938,17.4375,64.375,8.59375,0.0,0.0,0.0,185
186,1696168280362,-0.9892578,-0.2861328,0.1953125,-4.09375,31.71875,-2.53125,0.0,0.0,0.0,186
187,1696168280402,-1.2431641,-0.2578125,0.33789062,-12.96875,8.78125,1.8125,0.0,0.0,0.0,187
188,1696168280442,-1.2119141,-0.16015625,-0.11621094,-22.65625,43.125,-5.75,0.0,0.0,0.0,188
189,1696168280482,-1.2490234,0.022460938,0.061523438,9.375,28.625,18.34375,0.0,0.0,0.0,189
190,1696168280522,-0.98339844,-0.2578125,-0.052734375,-36.75,1.09375,1.6875,0.0,0.0,0.0,190
191,1696168280562,-0.8671875,-0.12402344,-0.23535156,-12.90625,22.5,4.75,-48.625,17.125,-114.9375,191
192,1696168280602,-1.1083984,-0.0703125,-0.047851562,11.15625,31.40625,13.84375,0.0,0.0,0.0,192
193,1696168280642,-1.3027344,-0.24609375,-0.091796875,-9.40625,32.34375,11.8125,0.0,0.0,0.0,193
194,1696168280682,-1.0302734,-0.22363281,-0.111328125,-1.25,-17.78125,1.5625,0.0,0.0,0.0,194
195,1696168280722,-0.89941406,-0.13769531,-0.15332031,-2.625,-0.9375,7.5625,0.0,0.0,0.0,195
196,1696168280762,-1.0908203,-0.16699219,-0.08203125,7.90625,34.15625,17.75,0.0,0.0,0.0,196
197,1696168280802,-0.9667969,-0.20605469,-0.044921875,4.8125,1.8125,6.03125,0.0,0.0,0.0,197
198,1696168280842,-0.92089844,-0.12695312,-0.072265625,17.8125,-1.96875,10.375,0.0,0.0,0.0,198
199,1696168280882,-0.8173828,-0.17871094,0.021484375,27.03125,-1.96875,2.4375,0.0,0.0,0.0,199
200,1696168280922,-0.7109375,-0.13085938,-0.01953125,-0.625,-4.65625,-18.9375,0.0,0.0,0.0,200
201,1696168280962,-0.86621094,-0.21191406,-0.016601562,3.53125,-3.5,-27.125,0.0,0.0,0.0,201
202,1696168281002,-0.79785156,-0.20019531,-0.0107421875,-11.3125,7.5,-20.34375,0.0,0.0,0.0,202
203,1696168281042,-1.0888672,-0.15722656,-0.17480469,7.125,8.15625,0.0,0.0,0.0,0.0,203
204,1696168281082,-0.9863281,-0.40039062,-0.087890625,-10.875,6.625,-9.0625,-45.0,18.1875,-118.375,204
205,1696168281122,-0.97265625,-0.18164062,-0.09765625,-19.90625,-24.25,-15.875,0.0,0.0,0.0,205
206,1696168281162,-1.0078125,-0.2783203,-0.18652344,10.0,-17.03125,4.5625,0.0,0.0,0.0,206
207,1696168281202,-0.97753906,-0.41601562,-0.11328125,15.78125,-19.84375,7.8125,0.0,0.0,0.0,207
208,1696168281242,-1.3203125,-0.15820312,0.009765625,-12.96875,-3.125,-10.5,0.0,0.0,0.0,208
209,1696168281282,-1.0507812,-0.10058594,-0.049804688,9.4375,-32.5625,2.25,0.0,0.0,0.0,209
210,1696168281322,-1.2753906,-0.4658203,0.18945312,4.25,-38.28125,-7.9375,0.0,0.0,0.0,210
211,1696168281362,-1.2626953,-0.2734375,0.08105469,-39.875,-13.0625,-42.75,0.0,0.0,0.0,211
212,1696168281402,-1.1132812,-0.0703125,0.0390625,9.5,-37.1875,-32.96875,0.0,0.0,0.0,212
213,1696168281442,-1.0458984,-0.0859375,0.057617188,-22.0,-28.75,-29.125,0.0,0.0,0.0,213
214,1696168281482,-1.0634766,-0.2734375,0.057617188,-32.78125,-27.40625,-32.84375,0.0,0.0,0.0,214
215,1696168281522,-1.0185547,-0.26367188,0.0859375,-13.625,-24.5625,-31.25,0.0,0.0,0.0,215
216,1696168281562,-0.8408203,-0.22070312,0.10253906,-14.25,-22.28125,-29.25,-48.875,12.5,-109.125,216
217,1696168281602,-0.71972656,-0.12695312,0.07421875,-13.6875,-16.5625,-12.46875,0.0,0.0,0.0,217
218,1696168281642,-0.7001953,-0.09472656,0.11621094,-5.625,-8.5625,9.8125,0.0,0.0,0.0,218
219,1696168281682,-0.7001953,-0.15136719,0.13476562,-5.5625,5.34375,30.4375,0.0,0.0,0.0,219
220,1696168281722,-0.5654297,-0.16210938,-0.001953125,-17.59375,11.53125,46.90625,0.0,0.0,0.0,220
221,1696168281762,-0.8408203,-0.4482422,0.12792969,70.90625,6.6875,51.5,0.0,0.0,0.0,221
222,1696168281802,-1.0390625,-0.38964844,0.2685547,41.625,14.875,27.9375,0.0,0.0,0.0,222
223,1696168281842,-0.7949219,-0.17773438,-0.06738281,-4.34375,14.03125,4.3125,0.0,0.0,0.0,223
224,1696168281882,-1.2324219,-0.27539062,0.27441406,13.40625,58.59375,23.125,0.0,0.0,0.0,224
225,1696168281922,-1.1191406,-0.4296875,0.24609375,-12.21875,26.28125,1.5625,0.0,0.0,0.0,225
226,1696168281962,-0.9326172,-0.18066406,0.19140625,-22.21875,34.40625,-17.28125,0.0,0.0,0.0,226
227,1696168282002,-1.2021484,-0.15039062,0.07714844,23.78125,30.4375,4.25,0.0,0.0,0.0,227
228,1696168282042,-1.1269531,-0.21386719,-0.19824219,-32.375,34.03125,-1.53125,0.0,0.0,0.0,228
229,1696168282082,-1.2236328,-0.375,0.12792969,-33.875,40.6875,-12.46875,-46.0625,17.875,-116.3125,229
230,1696168282122,-1.2128906,-0.083984375,0.01953125,-3.6875,5.1875,-16.4375,0.0,0.0,0.0,230
231,1696168282162,-1.0703125,-0.07128906,-0.15136719,14.28125,-28.46875,12.375,0.0,0.0,0.0,231
232,1696168282202,-1.0039062,-0.16210938,-0.15625,6.9375,-5.375,24.875,0.0,0.0,0.0,232
233,1696168282242,-1.0458984,-0.46191406,-0.203125,20.5,32.28125,19.46875,0.0,0.0,0.0,233
234,1696168282282,-1.1757812,-0.13867188,-0.046875,-3.4375,26.34375,3.03125,0.0,0.0,0.0,234
235,1696168282322,-0.99316406,-0.0126953125,-0.12792969,25.875,-0.875,18.0625,0.0,0.0,0.0,235
236,1696168282362,-0.86328125,-0.10546875,-0.078125,-2.75,-1.46875,19.03125,0.0,0.0,0.0,236
237,1696168282402,-0.8173828,-0.2421875,-0.0703125,-7.78125,2.125,10.59375,0.0,0.0,0.0,237
238,1696168282442,-0.7890625,-0.18652344,0.072265625,-9.34375,-6.4375,-1.71875,0.0,0.0,0.0,238
239,1696168282482,-0.90234375,-0.21582031,-0.052734375,-1.3125,-7.875,-8.6875,0.0,0.0,0.0,239
240,1696168282522,-0.70996094,-0.21972656,0.021484375,-11.5625,-27.34375,-15.40625,0.0,0.0,0.0,240
241,1696168282562,-0.8339844,-0.21582031,-0.12695312,-18.6875,-17.28125,-14.1875,-48.0,21.625,-115.5625,241
242,1696168282602,-0.93847656,-0.4326172,-0.059570312,-9.46875,23.1875,-8.3125,0.0,0.0,0.0,242
243,1696168282642,-1.1171875,-0.24804688,-0.1640625,-6.375,-12.53125,-18.15625,0.0,0.0,0.0,243
244,1696168282682,-0.9794922,-0.22753906,-0.0078125,26.40625,-6.65625,0.90625,0.0,0.0,0.0,244
245,1696168282722,-1.0302734,-0.40625,-0.064453125,10.53125,-13.25,-8.875,0.0,0.0,0.0,245
246,1696168282762,-1.0351562,-0.22363281,0.03515625,15.90625,-34.5,2.3125,0.0,0.0,0.0,246
247,1696168282802,-1.3964844,-0.08984375,0.07714844,16.21875,-25.71875,0.21875,0.0,0.0,0.0,247
248,1696168282842,-0.9628906,-0.25683594,-0.0009765625,-3.125,-39.1875,-2.9375,0.0,0.0,0.0,248
249,1696168282882,-1.4238281,-0.27929688,0.13964844,-0.8125,-13.875,-29.9375,0.0,0.0,0.0,249
250,1696168282922,-1.203125,-0.08691406,0.0703125,-12.46875,-9.46875,-43.59375,0.0,0.0,0.0,250
251,1696168282962,-0.99902344,-0.06640625,0.057617188,-3.1875,-37.4375,-32.5,0.0,0.0,0.0,251
252,1696168283002,-0.9404297,-0.10644531,0.13574219,-28.28125,-36.9375,-17.78125,0.0,0.0,0.0,252
253,1696168283042,-1.0556641,-0.33496094,0.16210938,-29.6875,-11.96875,-19.96875,0.0,0.0,0.0,253
254,1696168283082,-0.9580078,-0.3251953,0.068359375,-36.5625,-4.15625,-30.90625,-48.75,15.5,-107.625,254
255,1696168283122,-0.83203125,-0.22265625,0.078125,-12.40625,-9.71875,-29.0,0.0,0.0,0.0,255
256,1696168283162,-0.8027344,-0.17382812,0.13671875,-10.4375,5.28125,-9.65625,0.0,0.0,0.0,256
257,1696168283202,-0.75,-0.12890625,0.14550781,-7.28125,2.375,2.25,0.0,0.0,0.0,257
258,1696168283242,-0.7578125,-0.21386719,0.1875,9.8125,14.5,18.40625,0.0,0.0,0.0,258
259,1696168283282,-0.67285156,-0.39257812,0.045898438,10.1875,11.40625,41.625,0.0,0.0,0.0,259
260,1696168283322,-0.6894531,-0.4189453,0.09472656,73.40625,7.375,35.1875,0.0,0.0,0.0,260
261,1696168283362,-1.0380859,-0.16796875,0.3046875,50.46875,-6.25,22.625,0.0,0.0,0.0,261
262,1696168283402,-0.9589844,-0.15039062,0.0078125,32.6875,39.0,29.59375,0.0,0.0,0.0,262
263,1696168283442,-0.96875,-0.35058594,0.107421875,12.375,40.375,29.46875,0.0,0.0,0.0,263
264,1696168283482,-1.0898438,-0.4560547,0.2265625,5.0625,50.34375,17.5625,0.0,0.0,0.0,264
265,1696168283522,-0.94628906,-0.26367188,0.13671875,9.25,29.71875,6.5625,0.0,0.0,0.0,265
266,1696168283562,-1.0214844,-0.11621094,0.20117188,26.34375,16.34375,17.1875,-50.25,17.875,-111.8125,266
267,1696168283602,-1.3076172,-0.13867188,-0.15234375,-36.625,48.625,15.0625,0.0,0.0,0.0,267
268,1696168283642,-1.1572266,-0.02734375,-0.020507812,-4.46875,22.03125,3.34375,0.0,0.0,0.0,268
269,1696168283682,-0.90722656,-0.23242188,-0.08203125,-24.84375,3.46875,-11.90625,0.0,0.0,0.0,269
270,1696168283722,-1.2255859,-0.28320312,-0.09277344,2.5625,52.84375,-17.34375,0.0,0.0,0.0,270
271,1696168283762,-1.0878906,-0.020507812,-0.0078125,-26.0625,-28.65625,-30.59375,0.0,0.0,0.0,271
272,1696168283802,-0.9765625,-0.013671875,-0.20507812,6.625,-37.5,3.71875,0.0,0.0,0.0,272
273,1696168283842,-1.1660156,-0.2265625,-0.040039062,21.40625,42.34375,25.75,0.0,0.0,0.0,273
274,1696168283882,-0.9707031,-0.29785156,-0.13085938,4.125,13.03125,3.59375,0.0,0.0,0.0,274
275,1696168283922,-0.9765625,-0.0625,-0.029296875,10.3125,-8.375,-4.34375,0.0,0.0,0.0,275
276,1696168283962,-0.8486328,-0.0546875,-0.07324219,28.5,-1.90625,1.03125,0.0,0.0,0.0,276
277,1696168284002,-0.8486328,-0.08203125,-0.06640625,-9.34375,4.8125,1.3125,0.0,0.0,0.0,277
278,1696168284042,-0.8417969,-0.22070312,0.017578125,-3.8125,-1.84375,3.90625,0.0,0.0,0.0,278
279,1696168284082,-0.7998047,-0.3408203,-0.028320312,-18.4375,-5.8125,-20.71875,-47.6875,19.8125,-114.8125,279
280,1696168284122,-0.77734375,-0.14257812,-0.0107421875,-21.5,-30.65625,-32.125,0.0,0.0,0.0,280
281,1696168284162,-0.9013672,-0.20507812,-0.10546875,-3.6875,7.84375,-4.21875,0.0,0.0,0.0,281
282,1696168284202,-0.98828125,-0.41992188,-0.12988281,-13.1875,7.0625,-1.71875,0.0,0.0,0.0,282
283,1696168284242,-1.0761719,-0.37695312,-0.021484375,-33.9375,2.4375,-2.34375,0.0,0.0,0.0,283
284,1696168284282,-0.8671875,-0.17675781,-0.11621094,16.59375,-58.59375,4.3125,0.0,0.0,0.0,284
285,1696168284322,-1.1640625,-0.390625,-0.17773438,19.75,-1.34375,4.5625,0.0,0.0,0.0,285
286,1696168284362,-1.3242188,-0.18066406,-0.0068359375,11.875,-25.71875,5.21875,0.0,0.0,0.0,286
287,1696168284402,-1.2548828,-0.23339844,0.064453125,7.625,-27.96875,16.40625,0.0,0.0,0.0,287
288,1696168284442,-1.1972656,-0.34472656,0.17871094,-7.8125,-12.65625,-8.875,0.0,0.0,0.0,288
289,1696168284482,-1.1582031,-0.23339844,0.14941406,-24.75,-31.625,-37.1875,0.0,0.0,0.0,289
290,1696168284522,-1.2392578,-0.09277344,0.16503906,-43.96875,-33.875,-44.75,0.0,0.0,0.0,290
291,1696168284562,-1.0126953,-0.12109375,0.072265625,-23.75,-40.96875,-26.75,-49.8125,16.5625,-108.1875,291
292,1696168284602,-0.95410156,-0.23339844,0.13085938,-9.40625,-18.6875,-9.84375,0.0,0.0,0.0,292
293,1696168284642,-0.9160156,-0.32421875,0.09765625,-20.46875,-8.875,-17.53125,0.0,0.0,0.0,293
294,1696168284682,-0.8095703,-0.19824219,0.14550781,-10.40625,-21.9375,-30.34375,0.0,0.0,0.0,294
295,1696168284722,-0.81152344,-0.18359375,0.12597656,-17.40625,-4.21875,-22.28125,0.0,0.0,0.0,295
296,1696168284762,-0.7988281,-0.15332031,0.068359375,-27.3125,10.78125,-9.78125,0.0,0.0,0.0,296
297,1696168284802,-0.69433594,-0.21777344,0.125,-11.78125,12.875,10.1875,0.0,0.0,0.0,297
298,1696168284842,-0.7734375,-0.3076172,0.17089844,0.65625,7.375,31.59375,0.0,0.0,0.0,298
299,1696168284882,-0.8261719,-0.39746094,0.06347656,24.9375,20.96875,46.3125,0.0,0.0,0.0,299
300,1696168284922,-0.7734375,-0.3359375,0.203125,49.84375,6.15625,36.78125,0.0,0.0,0.0,300
301,1696168284962,-0.8720703,-0.1953125,0.091796875,50.78125,27.15625,14.5,0.0,0.0,0.0,301
302,1696168285002,-0.9355469,-0.22265625,0.009765625,23.84375,47.09375,25.4375,0.0,0.0,0.0,302
303,1696168285042,-1.1210938,-0.390625,0.21972656,-16.25,46.4375,15.625,0.0,0.0,0.0,303
304,1696168285082,-1.015625,-0.3623047,0.20703125,-24.0625,18.71875,-1.71875,-50.5625,18.8125,-110.625,304
305,1696168285122,-1.0029297,-0.19238281,0.087890625,-3.96875,10.65625,-3.875,0.0,0.0,0.0,305
306,1696168285162,-1.2431641,-0.35839844,-0.08105469,-11.5625,37.53125,10.59375,0.0,0.0,0.0,306
307,1696168285202,-1.3583984,0.08984375,-0.091796875,-12.90625,67.125,-4.46875,0.0,0.0,0.0,307
308,1696168285242,-0.9550781,-0.22167969,0.033203125,-19.3125,-10.4375,0.53125,0.0,0.0,0.0,308
309,1696168285282,-1.1689453,-0.15917969,-0.095703125,15.71875,9.5,-8.3125,0.0,0.0,0.0,309
310,1696168285322,-1.2089844,-0.076171875,-0.17285156,18.21875,17.75,6.5625,0.0,0.0,0.0,310
311,1696168285362,-1.0410156,-0.16015625,-0.12988281,-7.78125,-9.40625,7.6875,0.0,0.0,0.0,311
312,1696168285402,-0.99121094,-0.16992188,-0.12792969,-8.75,4.9375,12.5,0.0,0.0,0.0,312
313,1696168285442,-1.1210938,-0.20507812,-0.09863281,16.15625,31.1875,21.09375,0.0,0.0,0.0,313
314,1696168285482,-1.0410156,-0.10449219,-0.11328125,11.59375,13.96875,23.4375,0.0,0.0,0.0,314
315,1696168285522,-0.8769531,-0.16015625,-0.053710938,5.1875,-9.53125,17.4375,0.0,0.0,0.0,315
316,1696168285562,-0.7890625,-0.19238281,-0.045898438,-3.5625,-7.09375,-1.46875,-47.6875,22.6875,-115.875,316
317,1696168285602,-0.7998047,-0.13183594,0.032226562,-15.75,-9.40625,-18.6875,0.0,0.0,0.0,317
318,1696168285642,-0.9326172,-0.22363281,-0.11035156,-19.4375,-4.90625,-11.5,0.0,0.0,0.0,318
319,1696168285682,-0.8623047,-0.31640625,0.028320312,-5.6875,6.75,-9.78125,0.0,0.0,0.0,319
320,1696168285722,-0.71191406,-0.20410156,-0.11425781,1.15625,-32.375,-19.53125,0.0,0.0,0.0,320
321,1696168285762,-0.9189453,-0.3125,-0.12792969,5.0,14.875,-12.65625,0.0,0.0,0.0,321
322,1696168285802,-1.0068359,-0.23828125,-0.15332031,-3.0625,23.46875,-13.1875,0.0,0.0,0.0,322
323,1696168285842,-0.99121094,-0.16992188,-0.123046875,-9.21875,-16.1875,-3.3125,0.0,0.0,0.0,323
324,1696168285882,-0.95214844,-0.38476562,-0.10058594,7.0625,-25.84375,7.8125,0.0,0.0,0.0,324
325,1696168285922,-0.9892578,-0.49804688,-0.034179688,28.96875,-17.71875,13.15625,0.0,0.0,0.0,325
326,1696168285962,-1.3251953,-0.10449219,-0.057617188,6.28125,5.65625,-6.53125,0.0,0.0,0.0,326
327,1696168286002,-1.1953125,-0.07714844,0.036132812,25.875,-27.96875,13.03125,-47.875,20.3125,-113.625,327
328,1696168286042,-1.2441406,-0.27246094,0.111328125,-5.5,-23.4375,-6.78125,0.0,0.0,0.0,328
329,1696168286082,-1.1464844,-0.23144531,0.13769531,-27.96875,-30.21875,-39.625,0.0,0.0,0.0,329
330,1696168286122,-1.1210938,0.013671875,0.053710938,-11.5,-29.6875,-37.25,0.0,0.0,0.0,330
331,1696168286162,-1.1269531,-0.05859375,0.040039062,-10.40625,-32.0625,-14.53125,0.0,0.0,0.0,331
332,1696168286202,-1.0839844,-0.24121094,0.0234375,-38.21875,-24.96875,-22.34375,0.0,0.0,0.0,332
333,1696168286242,-0.93066406,-0.265625,0.07519531,-34.125,-11.84375,-25.65625,0.0,0.0,0.0,333
334,1696168286282,-0.8955078,-0.23535156,0.1015625,-7.78125,-3.90625,-21.0625,0.0,0.0,0.0,334
335,1696168286322,-0.8076172,-0.13085938,0.07324219,-5.25,3.28125,-8.3125,0.0,0.0,0.0,335
336,1696168286362,-0.60253906,-0.060546875,0.07128906,-1.96875,-2.15625,10.0625,0.0,0.0,0.0,336
337,1696168286402,-0.61816406,-0.0859375,0.115234375,5.34375,-7.78125,21.53125,0.0,0.0,0.0,337
338,1696168286442,-0.6357422,-0.2265625,0.07910156,23.3125,-8.6875,45.875,0.0,0.0,0.0,338
339,1696168286482,-0.8144531,-0.26367188,0.0703125,95.75,2.4375,52.28125,0.0,0.0,0.0,339
340,1696168286522,-1.0087891,-0.34765625,0.3125,48.5,10.375,50.28125,0.0,0.0,0.0,340
341,1696168286562,-0.8769531,-0.29589844,0.07421875,-40.65625,32.21875,1.21875,-48.625,19.25,-106.6875,341
342,1696168286602,-1.1601562,-0.29785156,0.13476562,-7.15625,43.0,3.09375,0.0,0.0,0.0,342
343,1696168286642,-1.0244141,-0.2861328,0.20507812,6.03125,31.34375,-10.03125,0.0,0.0,0.0,343
344,1696168286682,-1.0458984,-0.13964844,0.21972656,4.0625,25.875,-6.1875,0.0,0.0,0.0,344
345,1696168286722,-1.2587891,-0.0234375,-0.0048828125,-16.6875,47.21875,9.125,0.0,0.0,0.0,345
346,1696168286762,-1.2294922,0.0,-0.05078125,0.65625,33.75,4.6875,0.0,0.0,0.0,346
347,1696168286802,-1.2216797,-0.3984375,0.07128906,-6.71875,5.34375,-15.6875,0.0,0.0,0.0,347
348,1696168286842,-1.1025391,-0.15722656,-0.13476562,16.15625,8.84375,-21.0625,0.0,0.0,0.0,348
349,1696168286882,-1.0791016,-0.056640625,-0.22460938,1.625,4.9375,-14.53125,0.0,0.0,0.0,349
350,1696168286922,-1.1289062,-0.0107421875,-0.14257812,-3.5625,27.4375,3.03125,0.0,0.0,0.0,350
351,1696168286962,-1.0664062,-0.3515625,-0.13476562,23.78125,25.0625,16.21875,0.0,0.0,0.0,351
352,1696168287002,-1.0546875,-0.055664062,-0.12890625,11.59375,16.65625,7.6875,0.0,0.0,0.0,352
353,1696168287042,-0.9394531,-0.040039062,-0.07421875,25.125,11.03125,20.125,-46.8125,20.3125,-114.625,353
354,1696168287082,-0.796875,-0.22851562,-0.057617188,-3.8125,1.15625,5.0625,0.0,0.0,0.0,354
355,1696168287122,-0.9042969,-0.12988281,-0.08496094,-7.59375,5.71875,-2.03125,0.0,0.0,0.0,355
356,1696168287162,-0.9033203,-0.1953125,-0.07910156,21.78125,5.78125,3.21875,0.0,0.0,0.0,356
357,1696168287202,-0.7451172,-0.15527344,0.030273438,-12.46875,-36.09375,-14.65625,0.0,0.0,0.0,357
358,1696168287242,-0.75097656,-0.17480469,-0.030273438,-11.0,-14.71875,-9.65625,0.0,0.0,0.0,358
359,1696168287282,-0.7441406,-0.296875,-0.099609375,5.46875,12.625,-3.96875,0.0,0.0,0.0,359
360,1696168287322,-1.2041016,-0.40625,-0.041015625,-4.59375,8.96875,-13.75,0.0,0.0,0.0,360
361,1696168287362,-0.85839844,-0.22070312,-0.10253906,-4.15625,-31.8125,-27.3125,0.0,0.0,0.0,361
362,1696168287402,-0.8300781,-0.20703125,0.0126953125,11.875,-20.40625,0.53125,0.0,0.0,0.0,362
363,1696168287442,-1.0009766,-0.28125,-0.09277344,7.75,-9.65625,12.75,0.0,0.0,0.0,363
364,1696168287482,-1.2138672,-0.47753906,0.045898438,18.34375,-9.28125,5.21875,0.0,0.0,0.0,364
365,1696168287522,-1.3564453,-0.28222656,-0.01953125,8.53125,-6.53125,-11.78125,0.0,0.0,0.0,365
366,1696168287562,-1.1630859,-0.10546875,0.11035156,19.5625,-36.625,-13.1875,-47.375,19.5625,-112.5625,366
367,1696168287602,-1.3320312,-0.18066406,0.12597656,-5.03125,-34.75,-38.28125,0.0,0.0,0.0,367
368,1696168287642,-1.0517578,-0.08691406,0.07421875,-17.90625,-35.59375,-34.75,0.0,0.0,0.0,368
369,1696168287682,-0.99121094,-0.052734375,0.10449219,-6.53125,-26.03125,-20.875,0.0,0.0,0.0,369
370,1696168287722,-1.0068359,-0.18554688,0.0703125,-23.8125,-36.9375,-20.53125,0.0,0.0,0.0,370
371,1696168287762,-1.0986328,-0.31640625,0.09765625,-41.15625,-18.21875,-28.6875,0.0,0.0,0.0,371
372,1696168287802,-0.9638672,-0.30566406,0.076171875,-36.5,-27.71875,-35.0625,0.0,0.0,0.0,372
373,1696168287842,-0.77734375,-0.2841797,0.1171875,-18.8125,-12.28125,-34.125,0.0,0.0,0.0,373
374,1696168287882,-0.68652344,-0.19042969,0.115234375,-21.125,-4.46875,-11.6875,0.0,0.0,0.0,374
375,1696168287922,-0.7060547,-0.15332031,0.21972656,5.71875,-23.75,9.03125,0.0,0.0,0.0,375
376,1696168287962,-0.8027344,-0.13085938,0.17871094,11.53125,-19.3125,28.1875,0.0,0.0,0.0,376
377,1696168288002,-0.7558594,-0.32714844,0.045898438,15.3125,6.9375,39.34375,0.0,0.0,0.0,377
378,1696168288042,-0.75683594,-0.27148438,0.18847656,37.03125,6.9375,25.125,-49.9375,14.5625,-103.875,378
379,1696168288082,-0.9433594,-0.4921875,0.13769531,-5.09375,25.0625,17.4375,0.0,0.0,0.0,379
380,1696168288122,-0.81640625,-0.4404297,0.17578125,-6.5,20.5,7.0,0.0,0.0,0.0,380
381,1696168288162,-0.8769531,-0.29882812,0.22363281,53.28125,38.75,23.84375,0.0,0.0,0.0,381
382,1696168288202,-1.046875,-0.2685547,0.2626953,67.25,54.96875,24.59375,0.0,0.0,0.0,382
383,1696168288242,-0.9746094,-0.23535156,0.24316406,-11.3125,19.53125,0.90625,0.0,0.0,0.0,383
384,1696168288282,-0.97558594,-0.1796875,0.23535156,7.375,4.875,8.46875,0.0,0.0,0.0,384
385,1696168288322,-1.1376953,-0.24023438,0.3017578,-24.5625,9.3125,-14.1875,0.0,0.0,0.0,385
386,1696168288362,-1.3320312,-0.24023438,0.037109375,-2.46875,2.0625,0.78125,0.0,0.0,0.0,572
387,1696168288402,-1.2392578,-0.34375,0.02734375,-1.84375,-30.78125,-12.28125,0.0,0.0,0.0,573
388,1696168288442,-1.2685547,-0.34179688,0.06933594,22.3125,-26.4375,2.375,0.0,0.0,0.0,574
389,1696168288482,-1.1298828,-0.044921875,0.076171875,47.59375,-16.1875,12.625,0.0,0.0,0.0,575
390,1696168288522,-0.9042969,-0.16992188,0.1015625,12.5625,-25.96875,19.40625,0.0,0.0,0.0,576
391,1696168288562,-0.9716797,-0.32226562,0.1015625,-8.9375,-18.9375,9.5,0.0,0.0,0.0,577
392,1696168288602,-1.0117188,-0.23339844,0.119140625,-14.40625,-27.40625,-17.46875,-49.8125,18.3125,-111.0625,578
393,1696168288642,-1.0605469,-0.103515625,0.09765625,-38.03125,-27.1875,-36.09375,0.0,0.0,0.0,579
394,1696168288682,-0.9199219,-0.24316406,0.19335938,-28.8125,-28.28125,-35.78125,0.0,0.0,0.0,580
395,1696168288722,-0.9267578,-0.36132812,0.16894531,-14.1875,-35.71875,-40.40625,0.0,0.0,0.0,581
396,1696168288762,-1.1064453,-0.23828125,0.08886719,-11.96875,-32.71875,-42.4375,0.0,0.0,0.0,582
397,1696168288802,-0.97265625,-0.2685547,0.17480469,-16.75,-39.03125,-47.375,0.0,0.0,0.0,583
398,1696168288842,-0.75878906,-0.3076172,0.09863281,-35.0625,-14.71875,-36.46875,0.0,0.0,0.0,584
399,1696168288882,-0.7421875,-0.28320312,0.091796875,-41.40625,12.3125,-22.46875,0.0,0.0,0.0,585
400,1696168288922,-0.6748047,-0.20996094,0.15625,-42.0625,13.78125,-5.9375,0.0,0.0,0.0,586
401,1696168288962,-0.6308594,-0.32421875,0.12597656,-33.65625,16.71875,7.8125,0.0,0.0,0.0,587
402,1696168289002,-0.5673828,-0.4658203,0.20117188,10.1875,23.71875,26.28125,0.0,0.0,0.0,588
403,1696168289042,-0.8046875,-0.50683594,0.099609375,23.96875,18.21875,46.3125,0.0,0.0,0.0,589
404,1696168289082,-0.9091797,-0.38378906,0.11230469,81.21875,6.03125,36.25,0.0,0.0,0.0,590
405,1696168289122,-0.8769531,-0.021484375,0.23535156,52.53125,26.46875,38.3125,-51.625,14.75,-104.125,591
406,1696168289162,-1.2050781,-0.41210938,0.16308594,26.40625,35.25,29.03125,0.0,0.0,0.0,592
407,1696168289202,-0.79785156,-0.7089844,0.12597656,-6.71875,64.9375,-4.21875,0.0,0.0,0.0,593
408,1696168289242,-1.0722656,-0.2998047,0.5917969,14.09375,20.90625,-25.09375,0.0,0.0,0.0,594
409,1696168289282,-1.1484375,-0.0068359375,0.14941406,18.78125,28.0,-3.5625,0.0,0.0,0.0,595
410,1696168289322,-1.2490234,-0.2939453,-0.15625,-24.1875,24.59375,5.59375,0.0,0.0,0.0,596
411,1696168289362,-1.2480469,-0.17089844,0.08496094,-40.71875,15.78125,3.65625,0.0,0.0,0.0,597
412,1696168289402,-1.125,-0.37695312,-0.0048828125,5.46875,-8.75,10.71875,0.0,0.0,0.0,598
413,1696168289442,-1.0205078,-0.32128906,-0.16503906,3.40625,11.9375,1.75,0.0,0.0,0.0,599
414,1696168289482,-1.0195312,-0.12011719,-0.13769531,-12.21875,10.96875,3.09375,0.0,0.0,0.0,600
415,1696168289522,-1.0361328,-0.09375,-0.037109375,1.5,31.25,18.0625,0.0,0.0,0.0,601
416,1696168289562,-1.0722656,-0.25195312,-0.057617188,-8.6875,23.84375,28.375,0.0,0.0,0.0,602
417,1696168289602,-1.0019531,-0.2783203,-0.10839844,-13.03125,1.375,13.15625,-49.1875,16.375,-114.9375,603
418,1696168289642,-0.96191406,-0.26367188,-0.06640625,-8.0625,17.3125,12.625,0.0,0.0,0.0,604
419,1696168289682,-0.98046875,-0.26660156,-0.026367188,-14.78125,13.90625,12.75,0.0,0.0,0.0,605
420,1696168289722,-0.8935547,-0.29003906,-0.09277344,7.25,7.25,13.28125,0.0,0.0,0.0,606
421,1696168289762,-0.8935547,-0.29101562,-0.06640625,7.8125,1.5625,8.71875,0.0,0.0,0.0,607
422,1696168289802,-0.94433594,-0.2939453,-0.049804688,7.125,0.96875,2.90625,0.0,0.0,0.0,608
423,1696168289842,-0.9169922,-0.26464844,-0.076171875,13.59375,-0.9375,-2.8125,0.0,0.0,0.0,609
424,1696168289882,-0.859375,-0.20996094,-0.02734375,16.03125,-3.5625,-10.15625,0.0,0.0,0.0,610
425,1696168289922,-0.83496094,-0.20996094,0.056640625,-1.25,-8.625,-8.5,0.0,0.0,0.0,611
426,1696168289962,-0.87597656,-0.18945312,-0.06933594,7.96875,-7.15625,-7.59375,0.0,0.0,0.0,612
427,1696168290002,-0.9345703,-0.36328125,-0.0068359375,12.4375,-0.125,-1.34375,0.0,0.0,0.0,613
428,1696168290042,-0.96484375,-0.27539062,-0.09863281,-15.28125,-4.59375,-16.5625,0.0,0.0,0.0,614
429,1696168290082,-1.0126953,-0.20214844,-0.052734375,3.28125,-1.1875,-6.1875,0.0,0.0,0.0,615
430,1696168290122,-0.85839844,-0.1953125,-0.0703125,17.6875,-31.5,-0.1875,-49.0625,18.3125,-115.125,616
431,1696168290162,-0.93652344,-0.4638672,-0.064453125,4.25,-1.59375,6.46875,0.0,0.0,0.0,617
432,1696168290202,-0.9658203,-0.37695312,-0.032226562,2.84375,-5.6875,5.34375,0.0,0.0,0.0,618
433,1696168290242,-0.98046875,-0.35253906,-0.048828125,2.4375,-9.21875,3.71875,0.0,0.0,0.0,619
434,1696168290282,-1.2431641,-0.28222656,-0.0390625,18.0625,-8.5,-10.8125,0.0,0.0,0.0,620
435,1696168290322,-1.3339844,-0.099609375,-0.08300781,2.5,-4.09375,-9.53125,0.0,0.0,0.0,621
436,1696168290362,-1.4482422,-0.19140625,0.111328125,8.21875,-30.15625,-7.21875,0.0,0.0,0.0,622
437,1696168290402,-1.0732422,-0.38183594,0.07714844,-29.0,-27.90625,-18.5,0.0,0.0,0.0,623
438,1696168290442,-0.85546875,-0.35742188,0.13671875,0.0,-16.75,-24.90625,0.0,0.0,0.0,624
439,1696168290482,-1.0449219,-0.22363281,0.09667969,-29.8125,-13.0625,-30.21875,0.0,0.0,0.0,625
440,1696168290522,-1.0595703,-0.12792969,0.032226562,-18.03125,-22.15625,-32.4375,0.0,0.0,0.0,626
441,1696168290562,-0.93652344,-0.3017578,0.057617188,-1.46875,-28.9375,-32.96875,0.0,0.0,0.0,627
442,1696168290602,-0.9560547,-0.37695312,0.09472656,-29.9375,-14.53125,-48.125,-49.625,12.0625,-107.3125,628
443,1696168290642,-0.90722656,-0.36621094,0.09277344,-13.03125,-14.46875,-39.375,0.0,0.0,0.0,629
444,1696168290682,-0.7285156,-0.2919922,0.0859375,-2.40625,-14.0625,-32.3125,0.0,0.0,0.0,630
445,1696168290722,-0.78515625,-0.28808594,0.11328125,5.71875,-7.53125,-8.125,0.0,0.0,0.0,631
446,1696168290762,-0.8730469,-0.33496094,0.11328125,10.125,-8.1875,9.6875,0.0,0.0,0.0,632
447,1696168290802,-0.75390625,-0.22558594,0.14453125,9.4375,-13.375,22.25,0.0,0.0,0.0,633
448,1696168290842,-0.6845703,-0.21582031,0.125,8.84375,1.3125,48.875,0.0,0.0,0.0,634
449,1696168290882,-0.7871094,-0.25097656,0.14550781,41.1875,-4.40625,73.46875,0.0,0.0,0.0,635
450,1696168290922,-0.6621094,-0.53808594,0.09277344,73.40625,20.0,56.1875,0.0,0.0,0.0,636
451,1696168290962,-0.9296875,-0.46679688,0.19921875,22.5,33.0,6.8125,0.0,0.0,0.0,637
452,1696168291002,-0.9765625,-0.30859375,-0.0009765625,-3.375,63.9375,-10.4375,0.0,0.0,0.0,638
453,1696168291042,-1.1074219,-0.107421875,0.4111328,-12.34375,28.0625,-14.46875,0.0,0.0,0.0,639
454,1696168291082,-0.95214844,-0.11425781,0.19433594,-2.8125,-5.875,-2.46875,0.0,0.0,0.0,640
455,1696168291122,-1.3222656,-0.32910156,0.14746094,-7.875,34.65625,15.5,-49.1875,15.0625,-110.125,641
456,1696168291162,-1.3330078,-0.34375,-0.13085938,-55.5,62.1875,-13.375,0.0,0.0,0.0,642
457,1696168291202,-1.1035156,0.04296875,-0.044921875,-4.71875,-15.59375,9.5625,0.0,0.0,0.0,643
458,1696168291242,-1.0068359,-0.375,-0.056640625,5.46875,-2.53125,10.0625,0.0,0.0,0.0,644
459,1696168291282,-1.1025391,-0.0146484375,-0.06933594,-19.53125,40.8125,17.0625,0.0,0.0,0.0,645
460,1696168291322,-1.09375,-0.2783203,-0.052734375,-9.78125,25.1875,35.03125,0.0,0.0,0.0,646
461,1696168291362,-0.9746094,-0.18359375,-0.09277344,-29.9375,-7.03125,14.5,0.0,0.0,0.0,647
462,1696168291402,-0.9746094,-0.27148438,-0.1015625,-19.71875,14.3125,13.71875,0.0,0.0,0.0,648
463,1696168291442,-0.9814453,-0.32617188,-0.09375,-9.34375,14.875,11.15625,0.0,0.0,0.0,649
464,1696168291482,-0.9765625,-0.20996094,-0.072265625,-12.53125,10.53125,9.25,0.0,0.0,0.0,650
465,1696168291522,-0.9550781,-0.24511719,-0.043945312,-0.4375,5.28125,9.03125,0.0,0.0,0.0,651
466,1696168291562,-0.94921875,-0.29101562,-0.022460938,4.8125,11.9375,8.03125,0.0,0.0,0.0,652
467,1696168291602,-0.94140625,-0.2783203,-0.021484375,21.09375,4.0,3.46875,-45.625,21.3125,-115.6875,653
468,1696168291642,-0.9082031,-0.27734375,0.046875,5.40625,-11.71875,-6.71875,0.0,0.0,0.0,654
469,1696168291682,-0.78808594,-0.18945312,-0.017578125,2.4375,-30.15625,-16.5625,0.0,0.0,0.0,655
470,1696168291722,-0.69921875,-0.23828125,0.05078125,26.59375,-25.78125,-18.75,0.0,0.0,0.0,656
471,1696168291762,-0.9326172,-0.24316406,-0.16015625,7.84375,-6.5,-21.5625,0.0,0.0,0.0,657
472,1696168291802,-0.83984375,-0.18847656,-0.032226562,10.375,19.09375,-8.9375,0.0,0.0,0.0,658
473,1696168291842,-1.0166016,-0.26757812,-0.043945312,-6.0,-17.46875,-20.34375,0.0,0.0,0.0,659
474,1696168291882,-0.94628906,-0.25097656,0.026367188,-28.40625,-0.75,-13.9375,0.0,0.0,0.0,660
475,1696168291922,-0.9589844,-0.2626953,-0.16113281,12.0,-12.09375,-1.125,0.0,0.0,0.0,661
476,1696168291962,-0.9472656,-0.3701172,0.0234375,17.6875,-3.75,12.25,0.0,0.0,0.0,662
477,1696168292002,-1.2001953,-0.39257812,0.07324219,5.96875,-2.46875,-6.5,0.0,0.0,0.0,663
478,1696168292042,-1.1796875,-0.29296875,-0.05859375,12.1875,11.03125,-1.71875,0.0,0.0,0.0,664
479,1696168292082,-1.3037109,-0.17675781,0.030273438,26.28125,3.59375,-7.03125,0.0,0.0,0.0,665
480,1696168292122,-1.1152344,-0.21972656,0.11230469,24.8125,-29.3125,2.375,-48.625,17.875,-112.875,666
481,1696168292162,-1.1201172,-0.23339844,0.14550781,22.75,-15.8125,-4.34375,0.0,0.0,0.0,667
482,1696168292202,-1.0683594,-0.17578125,0.12597656,-8.1875,-26.625,-20.15625,0.0,0.0,0.0,668
483,1696168292242,-1.1025391,-0.16796875,0.078125,-29.9375,-37.125,-24.0,0.0,0.0,0.0,669
484,1696168292282,-1.0546875,-0.13671875,0.0390625,-27.53125,-39.75,-25.21875,0.0,0.0,0.0,670
485,1696168292322,-1.0273438,-0.24804688,0.12988281,-45.375,-29.5,-27.40625,0.0,0.0,0.0,671
486,1696168292362,-0.98339844,-0.3330078,0.083984375,-37.0,-11.3125,-29.875,0.0,0.0,0.0,672
487,1696168292402,-0.94433594,-0.29882812,0.09082031,-19.84375,-29.0625,-35.90625,0.0,0.0,0.0,673
488,1696168292442,-0.8623047,-0.23144531,0.095703125,-24.0625,0.21875,-34.4375,0.0,0.0,0.0,674
489,1696168292482,-0.6621094,-0.16113281,0.09472656,-2.28125,-8.0625,-13.9375,0.0,0.0,0.0,675
490,1696168292522,-0.70410156,-0.19824219,0.18261719,5.40625,-0.3125,8.71875,0.0,0.0,0.0,676
491,1696168292562,-0.6376953,-0.21875,0.10839844,9.1875,-7.34375,30.0625,0.0,0.0,0.0,677
492,1696168292602,-0.67578125,-0.17578125,0.09863281,7.375,3.21875,48.5625,-48.875,12.0625,-105.625,678
493,1696168292642,-0.8925781,-0.4033203,0.06738281,29.28125,8.46875,57.59375,0.0,0.0,0.0,679
494,1696168292682,-0.8378906,-0.34375,0.15917969,54.96875,1.15625,50.09375,0.0,0.0,0.0,680
495,1696168292722,-0.9560547,-0.3779297,0.16992188,9.8125,23.96875,27.8125,0.0,0.0,0.0,681
496,1696168292762,-1.1035156,-0.17285156,0.21484375,-4.53125,70.40625,18.84375,0.0,0.0,0.0,682
497,1696168292802,-1.0332031,-0.38183594,0.2626953,-5.8125,43.3125,13.84375,0.0,0.0,0.0,683
498,1696168292842,-1.1572266,-0.24902344,0.34375,-7.9375,28.625,3.03125,0.0,0.0,0.0,684
499,1696168292882,-1.2597656,-0.13769531,-0.11328125,-23.875,40.5625,-10.5,0.0,0.0,0.0,685
500,1696168292922,-1.1386719,0.2265625,0.13085938,-35.0,33.375,8.84375,0.0,0.0,0.0,686
501,1696168292962,-1.2138672,-0.44921875,-0.049804688,-25.53125,6.8125,8.15625,0.0,0.0,0.0,687
502,1696168293002,-1.1728516,-0.16699219,-0.052734375,0.90625,28.25,4.3125,0.0,0.0,0.0,688
503,1696168293042,-1.0761719,-0.20996094,-0.078125,13.96875,9.8125,17.5625,0.0,0.0,0.0,689
504,1696168293082,-0.97558594,-0.17480469,-0.13378906,6.03125,-3.96875,11.40625,0.0,0.0,0.0,690
505,1696168293122,-1.0830078,-0.22265625,-0.083984375,9.125,25.25,17.3125,-48.125,21.3125,-113.625,691
506,1696168293162,-0.9863281,-0.08886719,-0.07324219,-4.78125,10.78125,7.5,0.0,0.0,0.0,692
507,1696168293202,-0.9404297,-0.14648438,-0.022460938,-12.28125,10.96875,5.40625,0.0,0.0,0.0,693
508,1696168293242,-0.91308594,-0.16113281,-0.05859375,-14.71875,-0.0625,8.28125,0.0,0.0,0.0,694
509,1696168293282,-0.9013672,-0.24316406,-0.0625,-8.5625,-0.5625,3.40625,0.0,0.0,0.0,695
510,1696168293322,-0.88671875,-0.26171875,0.037109375,5.28125,-9.71875,-7.28125,0.0,0.0,0.0,696
511,1696168293362,-0.859375,-0.3095703,-0.03515625,-10.09375,-17.53125,-23.40625,0.0,0.0,0.0,697
512,1696168293402,-0.7324219,-0.15722656,0.025390625,4.875,-35.71875,-30.03125,0.0,0.0,0.0,698
513,1696168293442,-0.9970703,-0.3720703,-0.02734375,24.34375,1.875,-20.09375,0.0,0.0,0.0,699
514,1696168293482,-0.8671875,-0.2109375,-0.099609375,4.9375,1.5625,-25.96875,0.0,0.0,0.0,700
515,1696168293522,-1.0214844,-0.2265625,-0.05078125,7.1875,-10.09375,-8.25,0.0,0.0,0.0,701
516,1696168293562,-0.9824219,-0.31835938,-0.018554688,25.9375,-2.15625,-3.5625,0.0,0.0,0.0,702
517,1696168293602,-1.015625,-0.29882812,-0.0009765625,30.4375,-7.28125,-5.3125,-47.6875,18.8125,-112.6875,703
518,1696168293642,-0.98828125,-0.13671875,-0.06738281,26.28125,-17.53125,7.125,0.0,0.0,0.0,704
519,1696168293682,-0.9433594,-0.30859375,0.009765625,21.15625,-9.46875,18.65625,0.0,0.0,0.0,705
520,1696168293722,-1.0693359,-0.50683594,0.034179688,-4.09375,-14.90625,-6.59375,0.0,0.0,0.0,706
521,1696168293762,-1.2568359,-0.31835938,0.07910156,10.53125,-12.09375,-23.21875,0.0,0.0,0.0,707
522,1696168293802,-1.1855469,-0.31445312,0.0859375,18.90625,-41.59375,-32.96875,0.0,0.0,0.0,708
523,1696168293842,-1.2734375,-0.21386719,0.099609375,10.125,-20.65625,-44.5,0.0,0.0,0.0,709
524,1696168293882,-1.0390625,0.02734375,0.048828125,44.1875,-23.875,-23.4375,0.0,0.0,0.0,710
525,1696168293922,-1.1201172,-0.11328125,0.13671875,14.75,-16.6875,-12.28125,0.0,0.0,0.0,711
526,1696168293962,-0.9951172,-0.22949219,0.13769531,-39.1875,-10.5,-22.46875,0.0,0.0,0.0,712
527,1696168294002,-1.0742188,-0.1640625,0.13964844,-12.96875,-5.3125,-17.21875,0.0,0.0,0.0,713
528,1696168294042,-1.0107422,-0.29589844,0.038085938,-16.5,-15.15625,-26.5625,0.0,0.0,0.0,714
529,1696168294082,-0.8652344,-0.32910156,0.20410156,-15.40625,-31.4375,-33.46875,0.0,0.0,0.0,715
530,1696168294122,-0.90625,-0.2265625,0.13574219,-16.5,-12.21875,-23.40625,-51.4375,10.6875,-105.9375,716
531,1696168294162,-0.7949219,-0.16992188,0.09765625,-14.40625,3.65625,-14.59375,0.0,0.0,0.0,717
532,1696168294202,-0.67871094,-0.24121094,0.14257812,-8.1875,3.9375,2.375,0.0,0.0,0.0,718
533,1696168294242,-0.71191406,-0.2939453,0.17675781,7.84375,-5.5,18.84375,0.0,0.0,0.0,719
534,1696168294282,-0.7607422,-0.28320312,0.15917969,17.6875,9.125,40.75,0.0,0.0,0.0,720
535,1696168294322,-0.7626953,-0.43847656,0.0546875,31.125,16.9375,58.15625,0.0,0.0,0.0,721
536,1696168294362,-0.7949219,-0.27246094,0.2578125,71.75,12.625,40.03125,0.0,0.0,0.0,722
537,1696168294402,-1.0214844,-0.22265625,0.15332031,8.84375,42.65625,30.5,0.0,0.0,0.0,723
538,1696168294442,-0.9160156,-0.26367188,-0.009765625,2.84375,52.0,21.09375,0.0,0.0,0.0,724
539,1696168294482,-1.2060547,-0.28808594,0.296875,-5.625,55.78125,24.75,0.0,0.0,0.0,725
540,1696168294522,-1.0615234,-0.27246094,0.24316406,-33.28125,25.5625,7.625,0.0,0.0,0.0,726
541,1696168294562,-0.9482422,-0.15722656,0.15136719,-37.625,19.15625,7.125,0.0,0.0,0.0,727
542,1696168294602,-1.2929688,-0.13183594,-0.044921875,-24.1875,39.0625,22.375,-50.125,15.5,-112.125,728
543,1696168294642,-1.140625,-0.32910156,-0.072265625,-10.9375,27.15625,10.0625,0.0,0.0,0.0,729
544,1696168294682,-0.97753906,-0.32128906,-0.020507812,-29.25,15.90625,-9.0625,0.0,0.0,0.0,730
545,1696168294722,-1.0517578,0.0546875,-0.06933594,28.25,28.3125,-11.0,0.0,0.0,0.0,731
546,1696168294762,-1.2685547,0.13085938,-0.07519531,-5.6875,27.5,15.3125,0.0,0.0,0.0,732
547,1696168294802,-1.1083984,-0.16601562,-0.12890625,-27.40625,-14.90625,16.40625,0.0,0.0,0.0,733
548,1696168294842,-0.9121094,-0.32226562,-0.18457031,-12.21875,-14.71875,4.6875,0.0,0.0,0.0,734
549,1696168294882,-1.0458984,-0.2421875,-0.107421875,-14.96875,13.46875,-5.75,0.0,0.0,0.0,735
550,1696168294922,-1.0605469,-0.07421875,-0.109375,1.3125,14.21875,3.78125,0.0,0.0,0.0,736
551,1696168294962,-1.0234375,-0.15039062,-0.05078125,16.84375,5.90625,12.1875,0.0,0.0,0.0,737
552,1696168295002,-0.9267578,-0.26464844,-0.10253906,4.6875,6.28125,9.6875,0.0,0.0,0.0,738
553,1696168295042,-0.921875,-0.16015625,-0.032226562,22.125,9.9375,6.34375,0.0,0.0,0.0,739
554,1696168295082,-0.9091797,-0.26757812,-0.037109375,27.75,0.40625,-2.03125,0.0,0.0,0.0,740
555,1696168295122,-0.8144531,-0.20800781,-0.0087890625,10.65625,-12.46875,-15.28125,-49.1875,20.0,-116.3125,741
556,1696168295162,-0.8535156,-0.15820312,0.10253906,-0.1875,-17.40625,-25.65625,0.0,0.0,0.0,742
557,1696168295202,-0.8515625,-0.15722656,-0.16503906,-6.65625,-27.53125,-27.65625,0.0,0.0,0.0,743
558,1696168295242,-0.87402344,-0.31445312,-0.07519531,-18.15625,0.90625,-13.4375,0.0,0.0,0.0,744
559,1696168295282,-0.953125,-0.29785156,-0.0087890625,-19.65625,-5.375,-14.0,0.0,0.0,0.0,745
560,1696168295322,-1.1162109,-0.45214844,-0.06640625,17.6875,20.5625,-7.21875,0.0,0.0,0.0,746
561,1696168295362,-0.95214844,-0.23632812,-0.09082031,40.8125,-27.59375,-12.84375,0.0,0.0,0.0,747
562,1696168295402,-1.0117188,-0.1875,-0.060546875,16.9375,-9.96875,-0.8125,0.0,0.0,0.0,748
563,1696168295442,-1.015625,-0.27539062,0.005859375,11.75,-10.625,7.5625,0.0,0.0,0.0,749
564,1696168295482,-0.96777344,-0.42382812,-0.0859375,10.96875,-8.75,22.5,0.0,0.0,0.0,750
565,1696168295522,-1.3564453,-0.3955078,0.029296875,1.03125,4.75,-3.1875,0.0,0.0,0.0,751
566,1696168295562,-1.2460938,-0.24707031,-0.03515625,8.15625,-7.28125,-9.21875,-49.8125,15.5,-115.125,752
567,1696168295602,-1.3056641,0.0234375,0.23535156,20.25,-17.21875,-2.53125,0.0,0.0,0.0,753
568,1696168295642,-1.1152344,-0.1953125,0.0625,-7.65625,-19.84375,-6.84375,0.0,0.0,0.0,754
569,1696168295682,-0.8808594,-0.3251953,0.0859375,-12.40625,-29.125,-17.40625,0.0,0.0,0.0,755
570,1696168295722,-0.96972656,-0.20019531,0.034179688,4.0,-27.1875,-15.75,0.0,0.0,0.0,756
571,1696168295762,-1.0556641,-0.08886719,0.10253906,-10.875,-18.625,-23.8125,0.0,0.0,0.0,757
572,1696168295802,-1.109375,-0.034179688,0.059570312,-17.78125,-22.40625,-18.4375,0.0,0.0,0.0,758
573,1696168295842,-1.0449219,-0.421875,0.111328125,-21.875,-25.53125,-34.0,0.0,0.0,0.0,759
574,1696168295882,-0.93847656,-0.23144531,0.12890625,-32.78125,-25.71875,-41.34375,0.0,0.0,0.0,760
575,1696168295922,-0.8623047,-0.23632812,0.049804688,-13.03125,-18.9375,-24.84375,0.0,0.0,0.0,761
576,1696168295962,-0.7734375,-0.18164062,0.09667969,-22.59375,-13.3125,-16.25,0.0,0.0,0.0,762
577,1696168296002,-0.74609375,-0.12109375,0.056640625,-17.65625,-11.5,0.40625,0.0,0.0,0.0,763
578,1696168296042,-0.7734375,-0.21386719,0.15234375,13.09375,-9.84375,17.0625,0.0,0.0,0.0,764
579,1696168296082,-0.6279297,-0.30859375,0.076171875,18.78125,-1.65625,34.96875,0.0,0.0,0.0,765
580,1696168296122,-0.75878906,-0.37695312,0.11816406,12.25,20.8125,36.65625,-49.625,10.6875,-106.375,766
581,1696168296162,-0.9589844,-0.2841797,0.17578125,41.375,13.96875,33.5625,0.0,0.0,0.0,767
582,1696168296202,-0.8261719,-0.34179688,0.1328125,26.21875,23.78125,21.09375,0.0,0.0,0.0,768
583,1696168296242,-1.0283203,-0.24316406,0.17480469,14.15625,47.46875,18.0,0.0,0.0,0.0,769
584,1696168296282,-1.1220703,-0.27734375,0.17871094,16.65625,55.96875,18.0,0.0,0.0,0.0,770
585,1696168296322,-1.0410156,-0.29003906,0.25976562,-30.40625,22.125,0.46875,0.0,0.0,0.0,771
586,1696168296362,-1.3447266,-0.28222656,0.296875,4.4375,35.09375,14.375,0.0,0.0,0.0,772
587,1696168296402,-1.2724609,-0.27539062,-0.21191406,-56.71875,49.0625,-14.78125,0.0,0.0,0.0,773
588,1696168296442,-1.203125,0.015625,0.032226562,-35.78125,16.46875,2.65625,0.0,0.0,0.0,774
589,1696168296482,-0.95214844,-0.42285156,-0.032226562,-16.125,-2.40625,3.21875,0.0,0.0,0.0,775
590,1696168296522,-1.0351562,-0.17773438,-0.10839844,4.375,35.5,1.5625,0.0,0.0,0.0,776
591,1696168296562,-1.0869141,0.14355469,-0.12011719,11.9375,27.625,22.8125,0.0,0.0,0.0,777
592,1696168296602,-0.9951172,-0.18261719,-0.09667969,-4.15625,-14.96875,10.90625,-46.8125,16.6875,-116.3125,778
593,1696168296642,-1.0244141,-0.1875,-0.15820312,-11.84375,23.59375,12.9375,0.0,0.0,0.0,779
594,1696168296682,-1.0820312,-0.1171875,-0.099609375,-9.53125,22.5625,9.03125,0.0,0.0,0.0,780
595,1696168296722,-1.0244141,-0.08496094,-0.099609375,-22.0625,1.28125,7.8125,0.0,0.0,0.0,781
596,1696168296762,-0.921875,-0.25390625,-0.064453125,-7.78125,-11.375,10.46875,0.0,0.0,0.0,782
597,1696168296802,-0.8671875,-0.26464844,-0.064453125,-1.84375,4.875,0.03125,0.0,0.0,0.0,783
598,1696168296842,-0.9716797,-0.12890625,-0.07128906,7.25,9.6875,-0.8125,0.0,0.0,0.0,784
599,1696168296882,-0.875,-0.21191406,-0.053710938,3.28125,-7.8125,-3.25,0.0,0.0,0.0,785
600,1696168296922,-0.81640625,-0.20507812,0.045898438,-1.71875,-34.625,-18.375,0.0,0.0,0.0,786
601,1696168296962,-0.93652344,-0.3828125,-0.095703125,0.59375,-13.5625,-21.3125,0.0,0.0,0.0,787
602,1696168297002,-0.6582031,-0.052734375,-0.07910156,1.375,-32.25,-34.8125,0.0,0.0,0.0,788
603,1696168297042,-0.9189453,-0.044921875,0.00390625,-17.15625,-13.3125,-23.4375,0.0,0.0,0.0,789
604,1696168297082,-0.94433594,-0.36523438,-0.08691406,-43.03125,52.21875,-0.75,0.0,0.0,0.0,790
605,1696168297122,-1.046875,-0.45410156,-0.15039062,25.9375,-21.0,-2.28125,-47.875,16.375,-114.625,791
606,1696168297162,-1.1220703,-0.28710938,-0.083984375,-4.53125,-10.5,-9.34375,0.0,0.0,0.0,792
607,1696168297202,-0.94433594,-0.17285156,-0.10546875,28.0,-42.8125,-1.90625,0.0,0.0,0.0,793
608,1696168297242,-0.93066406,-0.35839844,-0.08300781,0.0,-17.28125,15.96875,0.0,0.0,0.0,794
609,1696168297282,-1.2900391,-0.39648438,0.0078125,6.5,-13.9375,4.1875,0.0,0.0,0.0,795
610,1696168297322,-1.1357422,-0.28027344,-0.029296875,1.9375,-26.1875,-6.0625,0.0,0.0,0.0,796
611,1696168297362,-1.2451172,-0.25585938,0.11230469,22.125,-21.5625,-3.25,0.0,0.0,0.0,797
612,1696168297402,-1.0917969,-0.14257812,0.10253906,6.28125,-26.6875,-3.8125,0.0,0.0,0.0,798
613,1696168297442,-1.0009766,-0.07421875,0.14160156,17.125,-33.59375,1.15625,0.0,0.0,0.0,799
614,1696168297482,-1.1660156,-0.12597656,0.12011719,-14.0625,-10.875,-6.84375,0.0,0.0,0.0,800
615,1696168297522,-1.0068359,-0.11230469,0.13671875,-30.96875,-29.5,-24.3125,0.0,0.0,0.0,801
616,1696168297562,-0.96875,-0.27148438,0.14160156,-30.59375,-24.625,-21.375,0.0,0.0,0.0,802
617,1696168297602,-1.0097656,-0.3076172,0.1171875,-33.65625,-10.40625,-26.4375,-49.625,14.3125,-108.8125,803
618,1696168297642,-1.0283203,-0.15722656,0.1328125,-2.28125,-21.25,-32.84375,0.0,0.0,0.0,804
619,1696168297682,-0.9042969,-0.23828125,0.068359375,-32.125,-15.53125,-35.71875,0.0,0.0,0.0,805
620,1696168297722,-0.8046875,-0.21484375,0.09277344,-33.21875,-11.3125,-26.5625,0.0,0.0,0.0,806
621,1696168297762,-0.765625,-0.1875,0.17089844,-4.65625,-5.21875,-9.65625,0.0,0.0,0.0,807
622,1696168297802,-0.7294922,-0.19628906,0.083984375,-1.46875,-3.5625,6.9375,0.0,0.0,0.0,808
623,1696168297842,-0.72558594,-0.2265625,0.11425781,-12.28125,7.3125,19.6875,0.0,0.0,0.0,809
624,1696168297882,-0.6376953,-0.32128906,0.13476562,3.71875,4.0625,42.78125,0.0,0.0,0.0,810
625,1696168297922,-0.921875,-0.234375,0.21386719,41.84375,13.15625,37.75,0.0,0.0,0.0,811
626,1696168297962,-1.0371094,-0.36914062,0.15625,42.34375,5.53125,42.78125,0.0,0.0,0.0,812
627,1696168298002,-0.70410156,-0.3955078,0.0146484375,7.375,38.0625,15.3125,0.0,0.0,0.0,813
628,1696168298042,-1.2099609,-0.43066406,0.29296875,24.21875,51.8125,22.3125,0.0,0.0,0.0,814
629,1696168298082,-1.0966797,-0.3388672,0.2939453,-7.8125,30.4375,-9.59375,0.0,0.0,0.0,815
630,1696168298122,-0.8964844,-0.16015625,0.19238281,-16.96875,23.1875,-8.25,-47.875,16.375,-108.0625,816
631,1696168298162,-1.2675781,-0.3388672,0.21875,11.59375,24.15625,28.96875,0.0,0.0,0.0,817
632,1696168298202,-1.2148438,-0.15820312,-0.14941406,-10.75,53.34375,0.90625,0.0,0.0,0.0,818
633,1696168298242,-0.9609375,-0.22949219,-0.053710938,-4.59375,-3.75,4.375,0.0,0.0,0.0,819
634,1696168298282,-0.9433594,-0.29882812,-0.14746094,15.1875,30.6875,-1.84375,0.0,0.0,0.0,820
635,1696168298322,-1.3691406,-0.23828125,0.11621094,16.9375,47.53125,-24.78125,0.0,0.0,0.0,821
636,1696168298362,-1.1201172,-0.026367188,-0.22070312,-19.96875,-12.59375,-16.6875,0.0,0.0,0.0,822
637,1696168298402,-1.0126953,-0.09277344,-0.15917969,31.28125,-3.6875,8.21875,0.0,0.0,0.0,823
638,1696168298442,-0.95214844,-0.22558594,-0.13964844,-2.625,15.625,7.8125,0.0,0.0,0.0,824
639,1696168298482,-1.2041016,-0.26660156,-0.025390625,-20.34375,36.0,4.375,0.0,0.0,0.0,825
640,1696168298522,-0.99609375,-0.25195312,-0.11328125,34.78125,7.90625,15.84375,0.0,0.0,0.0,826
641,1696168298562,-0.9794922,-0.15332031,-0.07910156,18.46875,-0.8125,15.3125,0.0,0.0,0.0,827
642,1696168298602,-0.8623047,-0.064453125,-0.10058594,13.09375,-0.9375,8.34375,-47.375,17.125,-117.0625,828
643,1696168298642,-0.8203125,-0.13769531,0.08203125,-5.21875,-8.3125,-2.59375,0.0,0.0,0.0,829
644,1696168298682,-0.82421875,-0.17578125,-0.032226562,-24.625,-11.0,-4.59375,0.0,0.0,0.0,830
645,1696168298722,-0.69628906,-0.23828125,-0.11230469,7.96875,-20.65625,-4.78125,0.0,0.0,0.0,831
646,1696168298762,-1.0419922,-0.45898438,0.14550781,2.90625,2.96875,-9.0625,0.0,0.0,0.0,832
647,1696168298802,-1.0019531,-0.14941406,-0.16210938,3.34375,-6.84375,-16.9375,0.0,0.0,0.0,833
648,1696168298842,-0.9111328,-0.18847656,0.028320312,-15.625,-33.65625,2.0,0.0,0.0,0.0,834
649,1696168298882,-0.9765625,-0.4326172,-0.12402344,-16.75,-10.34375,-0.5625,0.0,0.0,0.0,835
650,1696168298922,-0.8955078,-0.40820312,-0.05078125,8.84375,-19.0,-5.5625,0.0,0.0,0.0,836
651,1696168298962,-0.90527344,-0.23730469,-0.08203125,19.875,-20.65625,4.0,0.0,0.0,0.0,837
652,1696168299002,-1.3300781,-0.17480469,0.022460938,15.96875,16.21875,-0.5625,0.0,0.0,0.0,838
653,1696168299042,-1.2587891,-0.06738281,0.0048828125,-1.71875,-9.21875,-4.46875,0.0,0.0,0.0,839
654,1696168299082,-1.2412109,-0.21679688,0.08105469,32.75,-34.0,13.15625,0.0,0.0,0.0,840
655,1696168299122,-1.15625,-0.265625,0.1484375,-9.34375,-20.59375,-4.78125,-47.6875,16.25,-113.125,841
656,1696168299162,-1.109375,-0.14257812,0.16992188,-11.84375,-29.1875,-16.5,0.0,0.0,0.0,842
657,1696168299202,-1.0517578,-0.17675781,0.12890625,-29.75,-32.71875,-18.03125,0.0,0.0,0.0,843
658,1696168299242,-0.97753906,-0.23046875,0.12109375,-24.125,-29.8125,-24.625,0.0,0.0,0.0,844
659,1696168299282,-1.0527344,-0.20507812,0.06347656,-9.78125,-10.5,-23.40625,0.0,0.0,0.0,845
660,1696168299322,-0.9238281,-0.2783203,0.08105469,-5.875,-5.09375,-26.5,0.0,0.0,0.0,846
661,1696168299362,-0.8671875,-0.31933594,0.13574219,-30.84375,-0.8125,-29.5625,0.0,0.0,0.0,847
662,1696168299402,-0.8964844,-0.26367188,0.055664062,-26.625,13.34375,-23.9375,0.0,0.0,0.0,848
663,1696168299442,-0.8886719,-0.18066406,0.12011719,-21.1875,14.28125,-21.6875,0.0,0.0,0.0,849
664,1696168299482,-0.7988281,-0.21191406,0.07324219,-4.90625,4.5,-8.5625,0.0,0.0,0.0,850
665,1696168299522,-0.67871094,-0.22949219,0.115234375,13.59375,-8.5,7.90625,0.0,0.0,0.0,851
666,1696168299562,-0.6279297,-0.234375,0.03515625,29.21875,-8.125,38.0625,0.0,0.0,0.0,852
667,1696168299602,-0.8203125,-0.24511719,0.13183594,54.0625,-4.59375,45.15625,-46.9375,12.3125,-105.8125,853
668,1696168299642,-0.7988281,-0.15527344,0.20117188,32.5625,7.5,30.4375,0.0,0.0,0.0,854
669,1696168299682,-0.92089844,-0.20703125,0.005859375,-3.5625,40.75,20.96875,0.0,0.0,0.0,855
670,1696168299722,-1.1259766,-0.50097656,0.043945312,-22.34375,66.09375,20.96875,0.0,0.0,0.0,856
671,1696168299762,-1.0703125,-0.50097656,0.2421875,-23.28125,38.1875,-11.5,0.0,0.0,0.0,857
672,1696168299802,-1.0771484,-0.2861328,0.28320312,-11.71875,8.78125,-5.4375,0.0,0.0,0.0,858
673,1696168299842,-1.0537109,-0.16015625,-0.03515625,-1.78125,2.84375,8.21875,0.0,0.0,0.0,859
674,1696168299882,-1.2353516,-0.30664062,-0.12792969,2.5,49.4375,10.59375,0.0,0.0,0.0,860
675,1696168299922,-1.0478516,-0.18847656,0.0146484375,-17.78125,10.78125,0.65625,0.0,0.0,0.0,861
676,1696168299962,-1.3164062,-0.25195312,-0.12792969,19.46875,36.84375,-6.5,0.0,0.0,0.0,862
677,1696168300002,-1.1503906,0.005859375,0.087890625,9.3125,-6.125,-3.90625,0.0,0.0,0.0,863
678,1696168300042,-0.9921875,0.0625,-0.19921875,-18.5625,1.03125,15.5,0.0,0.0,0.0,864
679,1696168300082,-1.0644531,-0.22363281,-0.05078125,5.34375,15.96875,35.5,0.0,0.0,0.0,865
680,1696168300122,-1.0195312,-0.328125,-0.12402344,-17.09375,11.46875,9.125,-48.0,17.0,-115.5625,866
681,1696168300162,-1.0302734,-0.11425781,-0.049804688,0.28125,9.8125,6.03125,0.0,0.0,0.0,867
682,1696168300202,-0.9824219,-0.13964844,-0.051757812,16.84375,8.71875,13.40625,0.0,0.0,0.0,868
683,1696168300242,-0.96972656,-0.21289062,-0.08886719,6.21875,3.21875,13.15625,0.0,0.0,0.0,869
684,1696168300282,-0.92089844,-0.23144531,-0.020507812,10.125,-3.3125,3.34375,0.0,0.0,0.0,870
685,1696168300322,-0.87109375,-0.2421875,0.005859375,5.46875,-6.71875,-2.9375,0.0,0.0,0.0,871
686,1696168300362,-0.8408203,-0.27929688,0.030273438,-1.78125,-15.6875,-12.71875,0.0,0.0,0.0,872
687,1696168300402,-0.86035156,-0.28710938,-0.059570312,32.625,-16.4375,-13.625,0.0,0.0,0.0,873
688,1696168300442,-0.64746094,-0.15625,-0.02734375,13.59375,-30.15625,-24.84375,0.0,0.0,0.0,874
689,1696168300482,-1.0664062,-0.12402344,-0.028320312,-4.96875,-13.25,-13.8125,0.0,0.0,0.0,875
690,1696168300522,-0.8232422,-0.20019531,-0.078125,-37.375,-7.40625,3.78125,0.0,0.0,0.0,876
691,1696168300562,-1.1835938,-0.50683594,-0.049804688,-28.53125,4.75,-2.15625,0.0,0.0,0.0,877
692,1696168300602,-0.8359375,-0.47265625,-0.009765625,18.125,-20.03125,-10.625,-46.8125,18.1875,-115.25,878
693,1696168300642,-0.97265625,-0.23046875,-0.036132812,28.78125,-7.28125,-9.0,0.0,0.0,0.0,879
694,1696168300682,-0.82128906,-0.13476562,0.0126953125,4.6875,-20.28125,7.125,0.0,0.0,0.0,880
695,1696168300722,-1.4414062,-0.22851562,-0.045898438,20.3125,10.375,10.71875,0.0,0.0,0.0,881
696,1696168300762,-1.3339844,-0.3076172,-0.026367188,31.84375,-12.28125,38.875,0.0,0.0,0.0,882
697,1696168300802,-1.4365234,-0.22851562,0.24511719,28.65625,-23.6875,20.3125,0.0,0.0,0.0,883
698,1696168300842,-1.2607422,-0.015625,0.31152344,11.53125,-24.0,-32.5,0.0,0.0,0.0,884
699,1696168300882,-1.0419922,-0.034179688,0.14160156,-13.1875,-47.0625,-41.6875,0.0,0.0,0.0,885
700,1696168300922,-0.9658203,0.0625,0.18066406,-28.03125,-45.96875,-27.0625,0.0,0.0,0.0,886
701,1696168300962,-1.0371094,-0.1328125,0.11816406,-31.03125,-34.125,-23.03125,0.0,0.0,0.0,887
702,1696168301002,-1.0214844,-0.28222656,0.20117188,-45.0,-29.5625,-37.0625,0.0,0.0,0.0,888
703,1696168301042,-0.8935547,-0.31347656,0.16210938,-32.1875,-38.65625,-32.0625,0.0,0.0,0.0,889
704,1696168301082,-0.79785156,-0.17382812,0.13671875,-12.15625,-17.03125,-27.1875,0.0,0.0,0.0,890
705,1696168301122,-0.75878906,-0.033203125,0.13183594,-15.75,7.0625,-12.65625,-48.75,11.125,-105.0625,891
706,1696168301162,-0.75683594,-0.10839844,0.08203125,-14.25,12.8125,7.6875,0.0,0.0,0.0,892
707,1696168301202,-0.64160156,-0.19921875,0.12597656,-9.84375,15.5625,16.15625,0.0,0.0,0.0,893
708,1696168301242,-0.7675781,-0.23339844,0.18261719,31.46875,14.9375,34.09375,0.0,0.0,0.0,894
709,1696168301282,-0.7910156,-0.42773438,0.13378906,20.6875,28.65625,44.34375,0.0,0.0,0.0,895
710,1696168301322,-0.72265625,-0.29296875,0.13183594,12.0625,24.65625,20.90625,0.0,0.0,0.0,896
711,1696168301362,-0.9199219,-0.32128906,0.19140625,1.75,51.125,20.0,0.0,0.0,0.0,897
712,1696168301402,-0.9921875,-0.22070312,0.034179688,12.9375,51.9375,10.46875,0.0,0.0,0.0,898
713,1696168301442,-1.2568359,-0.29296875,0.40820312,15.4375,45.03125,10.46875,0.0,0.0,0.0,899
714,1696168301482,-1.0898438,-0.29003906,0.25878906,-24.375,14.875,-0.4375,0.0,0.0,0.0,900
715,1696168301522,-1.2929688,-0.14355469,0.047851562,-26.4375,17.375,9.9375,0.0,0.0,0.0,901
716,1696168301562,-1.1328125,-0.17675781,-0.23242188,-19.59375,28.25,9.25,0.0,0.0,0.0,902
717,1696168301602,-1.0507812,-0.24511719,0.109375,-16.25,17.0,13.96875,-48.125,18.1875,-114.625,903
718,1696168301642,-1.2626953,-0.25097656,-0.091796875,-5.6875,40.4375,-0.125,0.0,0.0,0.0,904
719,1696168301682,-1.0869141,-0.0703125,-0.018554688,12.3125,-0.75,-2.53125,0.0,0.0,0.0,905
720,1696168301722,-1.0185547,-0.053710938,-0.18066406,8.96875,-0.5,10.84375,0.0,0.0,0.0,906
721,1696168301762,-1.2099609,-0.18457031,-0.08300781,16.65625,45.46875,19.8125,0.0,0.0,0.0,907
722,1696168301802,-0.9980469,-0.2265625,-0.09863281,-1.0,15.125,14.9375,0.0,0.0,0.0,908
723,1696168301842,-0.9580078,-0.09375,-0.049804688,10.1875,6.875,13.65625,0.0,0.0,0.0,909
724,1696168301882,-0.8876953,-0.21191406,-0.055664062,10.71875,1.09375,12.875,0.0,0.0,0.0,910
725,1696168301922,-0.87109375,-0.026367188,-0.068359375,-8.4375,-5.375,5.21875,0.0,0.0,0.0,911
726,1696168301962,-0.8144531,-0.18066406,-0.07128906,-16.9375,-9.96875,0.03125,0.0,0.0,0.0,912
727,1696168302002,-0.79785156,-0.234375,0.09765625,-37.78125,-15.9375,-18.03125,0.0,0.0,0.0,913
728,1696168302042,-0.7294922,-0.17382812,-0.036132812,-22.40625,-24.25,-27.25,0.0,0.0,0.0,914
729,1696168302082,-0.82421875,-0.26171875,-0.043945312,-35.84375,-7.53125,-34.1875,0.0,0.0,0.0,915
730,1696168302122,-1.1308594,-0.33691406,-0.078125,-21.8125,42.15625,-9.21875,-46.5,18.8125,-114.5,916
731,1696168302162,-0.9980469,-0.13671875,-0.14941406,12.875,-32.0625,-4.46875,0.0,0.0,0.0,917
732,1696168302202,-1.0400391,-0.33007812,-0.14257812,21.78125,-8.9375,5.53125,0.0,0.0,0.0,918
733,1696168302242,-0.90625,-0.4248047,-0.0390625,-22.71875,-12.78125,-7.21875,0.0,0.0,0.0,919
734,1696168302282,-1.0712891,-0.22949219,-0.234375,-0.25,-9.65625,-0.6875,0.0,0.0,0.0,920
735,1696168302322,-1.109375,-0.21289062,0.015625,52.59375,-11.1875,11.59375,0.0,0.0,0.0,921
736,1696168302362,-1.4443359,-0.23632812,-0.0068359375,3.90625,14.625,-3.0,0.0,0.0,0.0,922
737,1696168302402,-0.94921875,-0.18066406,0.057617188,35.5,-27.25,7.125,0.0,0.0,0.0,923
738,1696168302442,-1.1933594,-0.32617188,0.13671875,0.03125,-17.46875,-11.3125,0.0,0.0,0.0,924
739,1696168302482,-1.1621094,-0.14355469,0.13964844,-34.5,-2.875,-36.15625,0.0,0.0,0.0,925
740,1696168302522,-0.9560547,-0.07714844,0.040039062,-4.96875,-30.40625,-31.21875,0.0,0.0,0.0,926
741,1696168302562,-1.1425781,-0.13671875,0.16601562,2.0625,-30.53125,-18.8125,0.0,0.0,0.0,927
742,1696168302602,-1.1396484,-0.3388672,0.17285156,-37.75,-7.53125,-30.15625,-47.6875,16.25,-109.25,928
743,1696168302642,-1.0458984,-0.15332031,0.07324219,-10.75,-13.5,-30.46875,0.0,0.0,0.0,929
744,1696168302682,-0.95410156,-0.22851562,0.04296875,-6.71875,-8.75,-27.65625,0.0,0.0,0.0,930
745,1696168302722,-0.88964844,-0.21679688,0.119140625,-10.03125,-9.90625,-34.3125,0.0,0.0,0.0,931
746,1696168302762,-0.78027344,-0.10546875,0.123046875,7.96875,-22.53125,-17.59375,0.0,0.0,0.0,932
747,1696168302802,-0.7402344,-0.08691406,0.09082031,-14.96875,-2.625,-3.8125,0.0,0.0,0.0,933
748,1696168302842,-0.6328125,-0.14257812,0.07421875,-14.0,-3.0,15.3125,0.0,0.0,0.0,934
749,1696168302882,-0.69140625,-0.18261719,0.15625,10.65625,-7.53125,33.25,0.0,0.0,0.0,935
750,1696168302922,-0.6513672,-0.3173828,0.0234375,42.34375,-0.1875,54.71875,0.0,0.0,0.0,936
751,1696168302962,-0.9277344,-0.32910156,0.21289062,45.28125,-0.75,24.15625,0.0,0.0,0.0,937
752,1696168303002,-0.86621094,-0.40234375,0.047851562,-29.6875,34.53125,-5.8125,0.0,0.0,0.0,938
753,1696168303042,-0.99609375,-0.3515625,0.09667969,-11.6875,57.84375,2.0,0.0,0.0,0.0,939
754,1696168303082,-1.2685547,-0.49609375,0.39160156,9.375,37.34375,15.625,0.0,0.0,0.0,940
755,1696168303122,-1.0146484,-0.3388672,0.35546875,2.125,4.6875,7.5,-48.3125,16.25,-112.125,941
756,1696168303162,-1.2148438,-0.29882812,-0.02734375,41.5,28.1875,16.65625,0.0,0.0,0.0,942
757,1696168303202,-1.2871094,-0.12597656,-0.23730469,0.34375,52.78125,0.09375,0.0,0.0,0.0,943
758,1696168303242,-1.0439453,-0.17871094,0.06542969,14.5,11.8125,10.1875,0.0,0.0,0.0,944
759,1696168303282,-1.1826172,-0.3642578,0.022460938,-8.0625,37.21875,-17.46875,0.0,0.0,0.0,945
