,timestamp,accel_x,accel_y,accel_z,gyro_x,gyro_y,gyro_z,mag_x,mag_y,mag_z
0,1695809891759,0.4404297,0.8339844,-0.0029296875,-31.625,38.375,-15.28125,0.0,0.0,0.0
1,1695809891817,0.42773438,0.84277344,-0.026367188,-30.9375,36.78125,-21.5625,0.0,0.0,0.0
2,1695809891847,0.5,0.8613281,-0.03125,-27.78125,37.21875,-25.65625,0.0,0.0,0.0
3,1695809891878,0.40039062,0.93359375,0.10449219,-39.0625,24.5,-25.03125,0.0,0.0,0.0
4,1695809891937,0.3203125,0.9814453,0.08984375,-29.0625,34.53125,-10.9375,0.0,0.0,0.0
5,1695809891967,0.3359375,0.9863281,-0.1015625,-13.375,52.40625,-6.0625,0.0,0.0,0.0
6,1695809891997,0.6582031,0.79589844,0.022460938,3.0625,59.375,-9.53125,0.0,0.0,0.0
7,1695809892057,0.63378906,1.0517578,0.13378906,28.1875,19.9375,-3.5,0.0,0.0,0.0
8,1695809892087,0.55371094,1.2050781,0.31152344,47.78125,-27.3125,11.21875,0.0,0.0,0.0
9,1695809892116,0.27539062,1.1142578,0.1171875,72.625,-80.21875,25.5,0.0,0.0,0.0
10,1695809892178,0.3486328,1.2363281,-0.053710938,102.28125,-74.5625,7.25,0.0,0.0,0.0
11,1695809892207,0.23144531,1.140625,-0.06542969,107.1875,-39.03125,10.78125,-17.375,39.3125,-144.625
12,1695809892237,0.3046875,0.9794922,-0.0126953125,120.125,-35.78125,11.8125,0.0,0.0,0.0
13,1695809892297,0.38378906,0.8232422,-0.15820312,92.53125,-61.1875,4.375,0.0,0.0,0.0
14,1695809892327,0.29492188,0.875,-0.20410156,58.71875,-77.40625,13.03125,0.0,0.0,0.0
15,1695809892358,0.24902344,0.7324219,-0.2421875,46.75,-63.3125,19.625,0.0,0.0,0.0
16,1695809892419,0.20605469,0.6738281,-0.21679688,11.21875,-50.6875,19.6875,0.0,0.0,0.0
17,1695809892450,0.14355469,0.5957031,-0.2109375,-24.71875,-42.1875,3.65625,0.0,0.0,0.0
18,1695809892480,0.15625,0.58496094,-0.2734375,-30.03125,-13.09375,-9.0625,0.0,0.0,0.0
19,1695809892539,0.22949219,0.5546875,-0.38085938,-53.59375,32.25,-9.53125,0.0,0.0,0.0
20,1695809892569,0.40039062,0.83203125,-0.5136719,-69.03125,30.75,-6.90625,0.0,0.0,0.0
21,1695809892597,0.50683594,1.2578125,-0.5097656,-19.84375,-17.65625,6.09375,0.0,0.0,0.0
22,1695809892658,0.5214844,0.9707031,-0.6279297,6.40625,-32.75,4.3125,0.0,0.0,0.0
23,1695809892688,0.22851562,0.7939453,-0.4951172,-7.875,-32.875,31.65625,0.0,0.0,0.0
24,1695809892718,0.123046875,1.6396484,-0.3310547,-33.25,-24.6875,-2.84375,-19.8125,37.5625,-151.25
25,1695809892808,0.16015625,1.1591797,-0.17382812,8.125,7.25,-10.75,0.0,0.0,0.0
26,1695809892810,-0.01171875,0.60058594,0.0859375,-3.25,44.84375,14.6875,0.0,0.0,0.0
27,1695809892838,0.3720703,0.93066406,-0.044921875,-13.25,12.78125,-12.15625,0.0,0.0,0.0
28,1695809892898,0.546875,1.1308594,-0.025390625,-19.90625,77.1875,14.5625,0.0,0.0,0.0
29,1695809892928,0.22167969,0.9238281,-0.09667969,-32.28125,71.09375,16.6875,0.0,0.0,0.0
30,1695809892958,0.38378906,0.8486328,-0.0703125,-18.25,65.09375,14.8125,0.0,0.0,0.0
31,1695809893017,0.3095703,0.8515625,0.07421875,-25.34375,64.625,7.71875,0.0,0.0,0.0
32,1695809893046,0.41503906,0.8623047,-0.09472656,-35.9375,55.6875,1.5625,0.0,0.0,0.0
33,1695809893076,0.42578125,0.76660156,-0.041992188,-34.4375,55.6875,-5.5,0.0,0.0,0.0
34,1695809893169,0.4609375,0.7890625,-0.0078125,-38.03125,38.96875,-17.0625,0.0,0.0,0.0
35,1695809893172,0.46875,0.8339844,-0.013671875,-34.0,25.375,-25.53125,0.0,0.0,0.0
36,1695809893198,0.4658203,0.8701172,-0.076171875,-27.03125,22.6875,-26.4375,-14.25,38.0,-145.25
37,1695809893257,0.5214844,0.90722656,-0.02734375,-26.71875,19.3125,-30.125,0.0,0.0,0.0
38,1695809893286,0.3486328,0.9501953,0.013671875,-35.46875,19.6875,-18.21875,0.0,0.0,0.0
39,1695809893317,0.44921875,0.86328125,0.0087890625,-26.375,20.78125,-8.8125,0.0,0.0,0.0
40,1695809893377,0.5625,0.86035156,-0.029296875,-24.90625,23.90625,-13.15625,0.0,0.0,0.0
41,1695809893407,0.6816406,1.0273438,0.17675781,0.96875,6.1875,-16.0,0.0,0.0,0.0
42,1695809893437,0.4189453,1.2246094,0.16015625,24.0625,-23.21875,1.625,0.0,0.0,0.0
43,1695809893496,0.2763672,1.1132812,0.17578125,62.1875,-63.0625,19.8125,0.0,0.0,0.0
44,1695809893526,0.32714844,1.0859375,-0.015625,96.125,-85.28125,13.96875,0.0,0.0,0.0
45,1695809893557,0.24511719,1.2363281,-0.026367188,100.65625,-59.90625,16.8125,0.0,0.0,0.0
46,1695809893616,0.26660156,1.0673828,-0.080078125,113.09375,-43.65625,20.125,0.0,0.0,0.0
47,1695809893646,0.34960938,0.9472656,-0.125,98.15625,-57.46875,16.59375,0.0,0.0,0.0
48,1695809893676,0.33496094,0.83203125,-0.13183594,63.84375,-106.96875,14.03125,0.0,0.0,0.0
49,1695809893736,0.28515625,0.82910156,-0.23242188,42.84375,-114.78125,25.96875,-18.75,36.0625,-155.125
50,1695809893768,0.22265625,0.7441406,-0.22265625,22.09375,-79.125,34.28125,0.0,0.0,0.0
51,1695809893796,0.15234375,0.5917969,-0.23828125,-12.9375,-68.125,30.75,0.0,0.0,0.0
52,1695809893857,0.11425781,0.5957031,-0.1640625,-10.625,-51.46875,20.5625,0.0,0.0,0.0
53,1695809893886,0.15917969,0.5136719,-0.16894531,-29.3125,-26.28125,14.5625,0.0,0.0,0.0
54,1695809893916,0.22949219,0.74121094,-0.46191406,-64.40625,-11.0,10.0,0.0,0.0,0.0
55,1695809894008,0.3779297,1.0761719,-0.54296875,-24.46875,-31.9375,22.25,0.0,0.0,0.0
56,1695809894010,0.515625,0.9042969,-0.62597656,6.59375,-67.09375,34.71875,0.0,0.0,0.0
57,1695809894036,0.3955078,0.5419922,-0.3515625,33.03125,-80.03125,56.3125,0.0,0.0,0.0
58,1695809894096,0.22558594,1.1435547,-0.21191406,26.25,-80.96875,83.40625,0.0,0.0,0.0
59,1695809894126,0.5019531,1.2294922,-0.45898438,23.6875,-100.3125,45.09375,0.0,0.0,0.0
60,1695809894157,0.076171875,0.33007812,-0.4736328,43.09375,-183.25,-6.84375,0.0,0.0,0.0
61,1695809894216,0.3828125,1.0058594,-0.19921875,41.6875,-52.5625,61.4375,-21.625,33.1875,-158.625
62,1695809894265,0.22363281,1.015625,-0.39453125,24.40625,-37.375,27.125,0.0,0.0,0.0
63,1695809894282,0.5175781,0.7949219,-0.4736328,8.0,-14.3125,33.1875,0.0,0.0,0.0
64,1695809894336,0.23828125,0.7236328,-0.47460938,-3.0,-20.09375,34.84375,0.0,0.0,0.0
65,1695809894367,0.45898438,0.8066406,-0.6064453,0.65625,-25.09375,38.75,0.0,0.0,0.0
66,1695809894396,0.39648438,0.6142578,-0.6464844,-16.0625,-28.53125,50.5625,0.0,0.0,0.0
67,1695809894457,0.35839844,0.6777344,-0.6074219,11.96875,-42.5625,44.21875,0.0,0.0,0.0
68,1695809894486,0.24316406,0.578125,-0.59375,7.375,-7.28125,28.71875,0.0,0.0,0.0
69,1695809894516,0.48339844,0.5,-0.5058594,16.28125,8.21875,14.75,0.0,0.0,0.0
70,1695809894576,0.34960938,0.3876953,-0.48046875,19.65625,-1.4375,6.625,0.0,0.0,0.0
71,1695809894607,0.390625,0.49414062,-0.5683594,40.84375,0.71875,1.0625,0.0,0.0,0.0
72,1695809894637,0.51171875,0.48535156,-0.5625,36.0625,6.4375,6.21875,0.0,0.0,0.0
73,1695809894696,0.38671875,0.4326172,-0.6357422,34.84375,-7.96875,14.375,0.0,0.0,0.0
74,1695809894726,0.4013672,0.5576172,-0.6503906,39.625,0.84375,18.78125,-16.5,28.375,-161.75
75,1695809894757,0.35546875,0.58203125,-0.7451172,34.5,-9.4375,15.96875,0.0,0.0,0.0
76,1695809894816,0.4814453,0.5410156,-0.8017578,35.53125,2.78125,18.40625,0.0,0.0,0.0
77,1695809894846,0.41015625,0.5839844,-0.8515625,26.3125,-13.15625,14.3125,0.0,0.0,0.0
78,1695809894876,0.43652344,0.56347656,-0.8515625,28.125,-10.46875,10.84375,0.0,0.0,0.0
79,1695809894936,0.4482422,0.5234375,-0.85839844,23.125,-10.9375,10.46875,0.0,0.0,0.0
80,1695809894967,0.4423828,0.5966797,-0.8876953,27.46875,-18.625,9.9375,0.0,0.0,0.0
81,1695809894996,0.4482422,0.55371094,-0.92285156,22.71875,-15.53125,7.96875,0.0,0.0,0.0
82,1695809895056,0.4560547,0.53808594,-0.9121094,12.625,-12.46875,9.6875,0.0,0.0,0.0
83,1695809895085,0.35253906,0.63183594,-1.0107422,10.6875,-8.875,10.71875,0.0,0.0,0.0
84,1695809895117,0.4267578,0.5097656,-0.9316406,13.4375,-1.0,9.5,0.0,0.0,0.0
85,1695809895175,0.41015625,0.4970703,-0.9316406,2.5625,-3.25,6.375,0.0,0.0,0.0
86,1695809895206,0.38964844,0.5214844,-0.9199219,-4.75,-4.84375,3.8125,-20.6875,21.1875,-166.25
87,1695809895236,0.4140625,0.50097656,-0.93066406,-12.21875,0.53125,1.5,0.0,0.0,0.0
88,1695809895296,0.42871094,0.4658203,-0.97265625,-16.0,0.40625,0.40625,0.0,0.0,0.0
89,1695809895326,0.41308594,0.49316406,-0.9511719,-23.25,-0.6875,0.71875,0.0,0.0,0.0
90,1695809895356,0.42382812,0.48242188,-0.96191406,-26.4375,0.78125,1.9375,0.0,0.0,0.0
91,1695809895416,0.4169922,0.47851562,-0.8720703,-34.78125,2.53125,-1.25,0.0,0.0,0.0
92,1695809895446,0.40039062,0.5234375,-0.8613281,-34.84375,4.0625,-3.625,0.0,0.0,0.0
93,1695809895476,0.4189453,0.57128906,-0.85253906,-35.21875,-1.4375,-6.75,0.0,0.0,0.0
94,1695809895536,0.39746094,0.56933594,-0.77734375,-48.34375,3.09375,-10.59375,0.0,0.0,0.0
95,1695809895566,0.42285156,0.6035156,-0.78515625,-43.9375,0.28125,-12.34375,0.0,0.0,0.0
96,1695809895596,0.43066406,0.5878906,-0.80859375,-46.875,2.65625,-13.3125,0.0,0.0,0.0
97,1695809895656,0.4404297,0.53125,-0.7470703,-47.25,7.71875,-9.0625,0.0,0.0,0.0
98,1695809895686,0.42578125,0.6015625,-0.7734375,-51.875,2.1875,-4.0625,0.0,0.0,0.0
99,1695809895716,0.4033203,0.66308594,-0.70996094,-60.90625,4.1875,0.59375,-21.3125,31.0625,-159.9375
100,1695809895778,0.4638672,0.64160156,-0.72558594,-66.96875,2.90625,5.71875,0.0,0.0,0.0
101,1695809895806,0.41015625,0.76464844,-0.70703125,-68.125,0.15625,13.03125,0.0,0.0,0.0
102,1695809895837,0.4580078,0.64453125,-0.5761719,-67.5,-15.46875,13.21875,0.0,0.0,0.0
103,1695809895896,0.3642578,0.6347656,-0.5253906,-76.34375,-19.75,13.53125,0.0,0.0,0.0
104,1695809895926,0.375,0.71484375,-0.50097656,-73.71875,-19.625,14.6875,0.0,0.0,0.0
105,1695809895956,0.4921875,0.75097656,-0.51953125,-71.21875,-28.59375,8.9375,0.0,0.0,0.0
106,1695809896016,0.38964844,0.74609375,-0.46484375,-73.84375,-29.6875,4.5,0.0,0.0,0.0
107,1695809896049,0.4326172,0.7470703,-0.50390625,-71.65625,-26.34375,-0.03125,0.0,0.0,0.0
108,1695809896076,0.5048828,0.72265625,-0.35253906,-82.09375,-20.53125,-12.84375,0.0,0.0,0.0
109,1695809896137,0.37304688,0.8935547,-0.3515625,-77.875,-44.21875,-14.3125,0.0,0.0,0.0
110,1695809896167,0.50878906,0.8964844,-0.34375,-55.78125,-42.375,-4.96875,0.0,0.0,0.0
111,1695809896199,0.45996094,0.8466797,-0.26367188,-39.0,-77.21875,-3.5,-20.6875,39.8125,-140.4375
112,1695809896286,0.22753906,0.8300781,-0.17675781,-36.25,-113.625,-3.1875,0.0,0.0,0.0
113,1695809896287,0.21777344,0.98339844,-0.2265625,-25.28125,-112.4375,-2.46875,0.0,0.0,0.0
114,1695809896316,0.38183594,0.89160156,-0.19921875,0.625,-80.21875,10.40625,0.0,0.0,0.0
115,1695809896376,0.30371094,0.8701172,-0.22753906,7.375,-80.78125,23.1875,0.0,0.0,0.0
116,1695809896408,0.2685547,0.87890625,-0.21777344,14.71875,-78.28125,32.15625,0.0,0.0,0.0
117,1695809896436,0.29882812,0.87597656,-0.2734375,10.625,-81.03125,33.0625,0.0,0.0,0.0
118,1695809896497,0.2861328,0.7636719,-0.1953125,11.65625,-82.3125,38.375,0.0,0.0,0.0
119,1695809896526,0.19335938,0.7451172,-0.20996094,-10.625,-85.34375,38.75,0.0,0.0,0.0
120,1695809896557,0.23339844,0.7890625,-0.22851562,-22.15625,-70.6875,44.46875,0.0,0.0,0.0
121,1695809896617,0.17871094,0.72265625,-0.17480469,-26.0,-71.75,39.21875,0.0,0.0,0.0
122,1695809896647,0.06347656,0.7060547,-0.20703125,-29.71875,-42.0,35.375,0.0,0.0,0.0
123,1695809896676,0.16113281,0.6855469,-0.24804688,-42.0625,-27.375,14.9375,0.0,0.0,0.0
124,1695809896736,0.17578125,0.8359375,-0.4892578,-46.875,-9.90625,6.8125,-9.4375,41.0,-138.8125
125,1695809896768,0.5263672,0.9199219,-0.48632812,-35.15625,-5.5625,13.84375,0.0,0.0,0.0
126,1695809896796,0.4169922,0.96484375,-0.44140625,10.5,-22.96875,24.625,0.0,0.0,0.0
127,1695809896857,0.3798828,0.7871094,-0.49902344,20.8125,-14.25,29.46875,0.0,0.0,0.0
128,1695809896886,0.30371094,0.6933594,-0.34765625,-3.90625,-36.21875,29.03125,0.0,0.0,0.0
129,1695809896917,0.20507812,1.2949219,-0.5029297,-49.5,-37.125,17.375,0.0,0.0,0.0
130,1695809896977,0.4501953,1.4033203,-0.37304688,-0.78125,-6.25,-0.21875,0.0,0.0,0.0
131,1695809897006,0.111328125,0.6845703,-0.25878906,-1.28125,-8.625,7.59375,0.0,0.0,0.0
132,1695809897036,0.13476562,0.8310547,-0.29882812,16.40625,-14.375,-11.3125,0.0,0.0,0.0
133,1695809897096,0.53515625,1.0195312,0.111328125,9.28125,42.28125,18.53125,0.0,0.0,0.0
134,1695809897127,0.25585938,0.9873047,-0.140625,-28.1875,4.5,19.21875,0.0,0.0,0.0
135,1695809897157,0.27246094,0.9794922,-0.1640625,-11.96875,-23.59375,-1.5625,0.0,0.0,0.0
136,1695809897217,0.22949219,0.96875,-0.140625,-2.1875,18.59375,6.09375,-5.6875,39.0625,-133.125
137,1695809897246,0.43652344,0.9316406,-0.021484375,-7.75,45.4375,9.1875,0.0,0.0,0.0
138,1695809897276,0.44433594,0.91015625,-0.13964844,-18.90625,26.78125,12.78125,0.0,0.0,0.0
139,1695809897336,0.3466797,0.9423828,-0.064453125,-13.96875,28.3125,7.375,0.0,0.0,0.0
140,1695809897366,0.26660156,0.92871094,-0.0546875,2.5,39.96875,-10.53125,0.0,0.0,0.0
141,1695809897396,0.38476562,0.8798828,-0.12597656,13.5,48.875,-17.0,0.0,0.0,0.0
142,1695809897456,0.50390625,0.80078125,-0.13671875,14.96875,53.6875,-15.65625,0.0,0.0,0.0
143,1695809897486,0.5810547,0.8486328,-0.00390625,21.4375,62.46875,-12.78125,0.0,0.0,0.0
144,1695809897516,0.39941406,0.73046875,0.0009765625,39.5625,63.5,-6.96875,0.0,0.0,0.0
145,1695809897576,0.33007812,0.6875,-0.05078125,73.1875,77.4375,-11.6875,0.0,0.0,0.0
146,1695809897606,0.24804688,1.0419922,-0.036132812,70.6875,68.40625,8.09375,0.0,0.0,0.0
147,1695809897636,1.03125,0.7910156,-0.13574219,68.125,43.0,8.28125,0.0,0.0,0.0
148,1695809897696,0.4765625,0.8544922,-0.34960938,43.03125,-14.84375,-9.84375,0.0,0.0,0.0
149,1695809897728,0.24804688,0.96875,-0.4638672,22.53125,-2.46875,-17.34375,-8.5625,38.75,-135.5
150,1695809897756,0.4091797,1.0283203,-0.4921875,16.1875,-3.6875,-22.125,0.0,0.0,0.0
151,1695809897816,0.14160156,0.81640625,-0.31347656,23.8125,1.125,-17.1875,0.0,0.0,0.0
152,1695809897846,0.2939453,0.9404297,-0.41796875,-22.03125,16.40625,-29.375,0.0,0.0,0.0
153,1695809897876,0.38671875,0.9873047,-0.44433594,-4.40625,1.9375,-23.75,0.0,0.0,0.0
154,1695809897935,0.19628906,0.8964844,-0.3125,2.0,2.71875,-17.125,0.0,0.0,0.0
155,1695809897966,0.20507812,0.9980469,-0.37695312,-10.4375,26.96875,-16.5625,0.0,0.0,0.0
156,1695809897996,0.28710938,0.94628906,-0.5126953,4.21875,22.3125,-20.21875,0.0,0.0,0.0
157,1695809898055,0.32910156,0.80371094,-0.44140625,26.78125,10.0625,-16.875,0.0,0.0,0.0
158,1695809898086,0.26464844,0.74121094,-0.33203125,21.0,-7.03125,-7.96875,0.0,0.0,0.0
159,1695809898248,0.203125,0.9238281,-0.37695312,1.71875,-2.09375,-1.84375,0.0,0.0,0.0
160,1695809898250,0.26367188,0.95996094,-0.4453125,13.625,-6.0,-3.3125,0.0,0.0,0.0
161,1695809898258,0.34765625,0.8095703,-0.44726562,8.78125,1.125,5.21875,-15.125,41.75,-138.5
162,1695809898259,0.35546875,0.7861328,-0.40527344,-0.65625,-2.84375,12.75,0.0,0.0,0.0
163,1695809898296,0.3388672,0.8769531,-0.42285156,-1.46875,-6.625,17.3125,0.0,0.0,0.0
164,1695809898326,0.31640625,0.93359375,-0.43847656,2.5,-3.25,12.0625,0.0,0.0,0.0
165,1695809898356,0.29003906,0.9277344,-0.46972656,3.28125,12.3125,9.5625,0.0,0.0,0.0
166,1695809898416,0.3564453,0.88964844,-0.4326172,-2.3125,27.0,4.8125,0.0,0.0,0.0
167,1695809898446,0.3154297,0.87597656,-0.4345703,-4.5625,32.09375,3.03125,0.0,0.0,0.0
168,1695809898476,0.35546875,0.8183594,-0.41503906,-6.59375,33.5,1.375,0.0,0.0,0.0
169,1695809898566,0.3564453,0.82421875,-0.4248047,-7.375,37.8125,1.5625,0.0,0.0,0.0
170,1695809898567,0.34472656,0.83496094,-0.3515625,-6.46875,41.1875,4.5,0.0,0.0,0.0
171,1695809898597,0.31445312,0.8222656,-0.37695312,-6.03125,45.625,4.75,0.0,0.0,0.0
172,1695809898656,0.3642578,0.8017578,-0.3564453,-2.0,52.34375,4.375,0.0,0.0,0.0
173,1695809898687,0.4169922,0.9794922,-0.34375,1.84375,62.78125,8.34375,0.0,0.0,0.0
174,1695809898717,0.4169922,0.7626953,-0.19921875,-0.625,67.0,-4.53125,-12.4375,40.5625,-135.1875
175,1695809898780,0.4404297,0.84472656,-0.23632812,-3.84375,53.4375,-13.5,0.0,0.0,0.0
176,1695809898820,0.6142578,0.84765625,-0.16601562,-14.09375,69.75,-6.6875,0.0,0.0,0.0
177,1695809898838,0.48632812,0.8417969,-0.14453125,-11.21875,64.5,-5.5625,0.0,0.0,0.0
178,1695809898898,0.4609375,0.9628906,-0.07519531,-8.0,73.28125,-12.90625,0.0,0.0,0.0
179,1695809898926,0.3876953,0.92089844,-0.14746094,3.34375,95.625,-7.84375,0.0,0.0,0.0
180,1695809898956,0.5361328,0.76953125,-0.07714844,18.4375,125.21875,-10.875,0.0,0.0,0.0
181,1695809899016,0.64941406,0.79785156,-0.03125,6.84375,118.5,-1.4375,0.0,0.0,0.0
182,1695809899046,0.4716797,0.8417969,-0.024414062,-5.875,87.75,-3.0,0.0,0.0,0.0
183,1695809899076,0.33007812,0.9716797,-0.07714844,-3.59375,90.25,-14.375,0.0,0.0,0.0
184,1695809899137,0.4013672,0.8408203,0.041015625,14.46875,96.15625,-25.96875,0.0,0.0,0.0
185,1695809899166,0.43945312,0.75683594,-0.01171875,14.03125,86.46875,-16.5625,0.0,0.0,0.0
186,1695809899196,0.5517578,0.7792969,0.0009765625,17.34375,91.71875,-8.5,-18.4375,41.75,-132.1875
187,1695809899257,0.4404297,0.81347656,-0.09765625,16.1875,80.78125,-7.03125,0.0,0.0,0.0
188,1695809899288,0.46289062,0.7949219,-0.18066406,-1.90625,72.5625,-13.875,0.0,0.0,0.0
189,1695809899318,0.5361328,0.8222656,-0.12988281,-15.8125,59.375,-24.4375,0.0,0.0,0.0
190,1695809899377,0.609375,0.8691406,0.19628906,-4.21875,41.71875,-26.5625,0.0,0.0,0.0
191,1695809899407,0.42871094,1.3652344,0.2421875,19.71875,21.53125,1.3125,0.0,0.0,0.0
192,1695809899437,0.22949219,1.1601562,0.24316406,55.0625,13.53125,25.1875,0.0,0.0,0.0
193,1695809899498,0.53515625,1.0009766,0.009765625,100.34375,5.46875,17.3125,0.0,0.0,0.0
194,1695809899529,0.4580078,1.1386719,-0.026367188,108.9375,-17.53125,8.875,0.0,0.0,0.0
195,1695809899561,0.36132812,1.0146484,-0.05078125,115.1875,-44.21875,-0.3125,0.0,0.0,0.0
196,1695809899620,0.45996094,0.8886719,-0.047851562,104.96875,-48.3125,-11.5625,0.0,0.0,0.0
197,1695809899650,0.4453125,0.8955078,-0.17089844,72.03125,-66.96875,-23.15625,0.0,0.0,0.0
198,1695809899680,0.22460938,0.8730469,-0.203125,62.4375,-66.5,-21.125,0.0,0.0,0.0
199,1695809899740,0.2734375,0.7421875,-0.24414062,50.15625,-46.09375,-7.21875,-23.375,39.3125,-152.3125
200,1695809899770,0.35253906,0.6142578,-0.27148438,13.625,-36.40625,-2.53125,0.0,0.0,0.0
201,1695809899800,0.2626953,0.6171875,-0.2529297,-26.4375,-28.34375,-3.5,0.0,0.0,0.0
202,1695809899861,0.17480469,0.59375,-0.29296875,-52.75,-17.28125,-8.375,0.0,0.0,0.0
203,1695809899887,0.23046875,0.6933594,-0.4404297,-78.625,-3.75,-7.96875,0.0,0.0,0.0
204,1695809899918,0.33203125,0.88964844,-0.5126953,-58.53125,-25.96875,0.21875,0.0,0.0,0.0
205,1695809899977,0.3388672,1.125,-0.4951172,-28.5625,-53.84375,8.59375,0.0,0.0,0.0
206,1695809900011,0.40429688,0.8310547,-0.57128906,-37.53125,-84.1875,17.75,0.0,0.0,0.0
207,1695809900040,0.20898438,1.0537109,-0.36914062,-38.28125,-84.75,28.84375,0.0,0.0,0.0
208,1695809900101,0.33984375,1.8828125,0.095703125,-29.59375,-76.25,19.15625,0.0,0.0,0.0
209,1695809900130,0.03125,0.828125,-0.171875,-39.25,-62.9375,-27.0625,0.0,0.0,0.0
210,1695809900159,0.07324219,0.5957031,-0.041015625,3.46875,-19.125,6.75,0.0,0.0,0.0
211,1695809900220,0.5859375,0.7919922,0.119140625,1.03125,35.1875,31.28125,-26.6875,42.5,-135.625
212,1695809900251,0.52441406,0.9873047,-0.043945312,-20.8125,62.46875,43.625,0.0,0.0,0.0
213,1695809900279,0.27148438,0.8095703,-0.02734375,-19.09375,20.375,25.5,0.0,0.0,0.0
214,1695809900338,0.38183594,0.8339844,0.053710938,-12.09375,42.46875,24.5,0.0,0.0,0.0
215,1695809900367,0.5205078,0.9169922,0.020507812,-28.375,33.4375,16.65625,0.0,0.0,0.0
216,1695809900400,0.5058594,0.8984375,0.024414062,-29.90625,16.9375,12.6875,0.0,0.0,0.0
217,1695809900460,0.40039062,0.8857422,-0.0029296875,-35.03125,11.21875,5.46875,0.0,0.0,0.0
218,1695809900487,0.3544922,0.90527344,-0.009765625,-27.84375,28.3125,-1.84375,0.0,0.0,0.0
219,1695809900517,0.34765625,0.8232422,0.046875,-20.625,35.5625,-8.4375,0.0,0.0,0.0
220,1695809900577,0.31152344,0.9042969,-0.06347656,-11.28125,37.5625,-12.78125,0.0,0.0,0.0
221,1695809900608,0.46191406,0.89746094,-0.057617188,-6.59375,56.1875,-25.34375,0.0,0.0,0.0
222,1695809900638,0.4814453,0.8105469,0.0390625,-11.0,64.4375,-26.4375,0.0,0.0,0.0
223,1695809900696,0.47558594,0.8730469,-0.028320312,-29.25,51.75,-25.65625,0.0,0.0,0.0
224,1695809900726,0.40234375,0.92871094,0.06640625,-22.40625,57.90625,-17.0,-21.125,41.5625,-132.8125
225,1695809900758,0.57421875,1.0390625,0.28027344,11.0625,60.9375,-26.03125,0.0,0.0,0.0
226,1695809900846,0.20605469,1.6308594,0.38671875,33.75,35.4375,-9.90625,0.0,0.0,0.0
227,1695809900847,0.29492188,1.1064453,0.23730469,65.78125,35.375,13.65625,0.0,0.0,0.0
228,1695809900877,0.34960938,0.98828125,-0.01171875,59.9375,6.03125,2.78125,0.0,0.0,0.0
229,1695809900937,0.13671875,0.8925781,0.15234375,49.5625,-4.96875,-13.15625,0.0,0.0,0.0
230,1695809900967,-0.015625,1.0273438,0.15917969,49.0,-1.5625,-14.3125,0.0,0.0,0.0
231,1695809901000,0.12402344,1.0048828,0.125,51.875,10.40625,-8.875,0.0,0.0,0.0
232,1695809901058,0.20605469,0.90527344,-0.01171875,57.6875,13.59375,-11.75,0.0,0.0,0.0
233,1695809901089,0.14550781,0.9091797,-0.11035156,69.59375,29.21875,-6.5625,0.0,0.0,0.0
234,1695809901119,0.19433594,0.87402344,-0.20800781,76.34375,47.84375,3.15625,0.0,0.0,0.0
235,1695809901178,0.34765625,0.8388672,-0.22949219,69.15625,45.4375,5.84375,0.0,0.0,0.0
236,1695809901208,0.37304688,0.78222656,-0.25683594,46.875,26.40625,8.21875,-22.9375,40.5625,-150.375
237,1695809901236,0.30078125,0.8222656,-0.2705078,28.3125,8.875,8.53125,0.0,0.0,0.0
238,1695809901299,0.25097656,0.92578125,-0.38476562,19.59375,-9.71875,14.6875,0.0,0.0,0.0
239,1695809901330,0.3251953,0.75878906,-0.35253906,36.1875,-17.0,18.46875,0.0,0.0,0.0
240,1695809901358,0.24511719,0.7607422,-0.32910156,33.3125,-3.0,32.9375,0.0,0.0,0.0
241,1695809901420,0.3828125,0.8330078,-0.4970703,8.1875,-26.375,35.25,0.0,0.0,0.0
242,1695809901449,0.50390625,0.70214844,-0.39746094,4.875,-29.4375,32.625,0.0,0.0,0.0
243,1695809901481,0.4189453,0.6591797,-0.35351562,-20.09375,-23.78125,41.65625,0.0,0.0,0.0
244,1695809901539,0.38183594,0.7597656,-0.4326172,-46.15625,-38.21875,34.84375,0.0,0.0,0.0
245,1695809901569,0.33691406,0.9082031,-0.4423828,-38.6875,-62.03125,29.75,0.0,0.0,0.0
246,1695809901598,0.6640625,1.5136719,-0.06347656,-42.96875,-111.84375,6.875,0.0,0.0,0.0
247,1695809901660,-0.0859375,0.6542969,-0.2265625,11.15625,-108.96875,12.90625,0.0,0.0,0.0
248,1695809901689,0.087890625,0.5361328,-0.28808594,10.3125,-97.8125,13.59375,0.0,0.0,0.0
249,1695809901718,0.40625,0.98828125,-0.21972656,-3.0,-68.03125,38.625,-23.375,40.375,-153.0625
250,1695809901781,0.24511719,0.92578125,-0.23144531,-3.84375,-62.34375,32.625,0.0,0.0,0.0
251,1695809901810,0.3642578,0.8564453,-0.28710938,-1.28125,-76.25,32.03125,0.0,0.0,0.0
252,1695809901840,0.21484375,0.8828125,-0.234375,11.21875,-73.625,37.9375,0.0,0.0,0.0
253,1695809901901,0.27148438,0.8339844,-0.4423828,11.78125,-53.5625,35.5625,0.0,0.0,0.0
254,1695809901927,0.36914062,0.9501953,-0.6376953,10.375,-58.9375,34.40625,0.0,0.0,0.0
255,1695809901960,0.5527344,0.8515625,-0.56347656,-0.1875,-51.0625,23.96875,0.0,0.0,0.0
256,1695809902018,0.4873047,0.9003906,-0.5498047,-16.90625,-50.625,23.46875,0.0,0.0,0.0
257,1695809902051,0.5214844,0.95703125,-0.5722656,-15.875,-56.0625,26.09375,0.0,0.0,0.0
258,1695809902080,0.45410156,0.8544922,-0.56933594,-24.0625,-40.5,17.25,0.0,0.0,0.0
259,1695809902145,0.45996094,0.8808594,-0.52734375,-31.0,-31.875,18.15625,0.0,0.0,0.0
260,1695809902168,0.46289062,0.8730469,-0.5283203,-31.875,-30.71875,18.71875,0.0,0.0,0.0
261,1695809902229,0.46289062,0.8388672,-0.5136719,-46.03125,-31.40625,25.4375,-20.25,41.0,-149.625
262,1695809902261,0.5527344,0.828125,-0.4013672,-53.65625,-46.78125,24.8125,0.0,0.0,0.0
263,1695809902291,0.45507812,0.8017578,-0.3701172,-56.6875,-56.0,33.4375,0.0,0.0,0.0
264,1695809902320,0.4345703,0.8027344,-0.42871094,-68.78125,-43.71875,38.6875,0.0,0.0,0.0
265,1695809902379,0.52441406,0.7451172,-0.30859375,-71.28125,-39.9375,40.1875,0.0,0.0,0.0
266,1695809902410,0.40039062,0.7685547,-0.26757812,-76.28125,-50.0625,24.21875,0.0,0.0,0.0
267,1695809902440,0.3125,0.8232422,-0.31933594,-68.46875,-35.59375,8.21875,0.0,0.0,0.0
268,1695809902498,0.40820312,0.70410156,-0.35058594,-53.96875,-21.25,-6.78125,0.0,0.0,0.0
269,1695809902529,0.39160156,0.7207031,-0.29296875,-46.8125,-20.71875,-18.8125,0.0,0.0,0.0
270,1695809902557,0.27441406,0.80859375,-0.3154297,-36.3125,-4.125,-14.4375,0.0,0.0,0.0
271,1695809902620,0.36523438,0.93652344,-0.26757812,-37.21875,20.5,-0.75,0.0,0.0,0.0
272,1695809902650,0.65722656,1.0478516,-0.15136719,-44.1875,-5.15625,-9.84375,0.0,0.0,0.0
273,1695809902680,0.38671875,1.0751953,-0.08300781,-58.15625,-26.28125,-11.8125,0.0,0.0,0.0
274,1695809902740,0.21386719,1.2128906,0.06347656,-57.1875,-30.71875,-12.46875,-15.875,39.9375,-126.8125
275,1695809902770,0.21582031,1.1269531,0.052734375,-30.40625,-22.96875,-21.5,0.0,0.0,0.0
276,1695809902800,0.17675781,1.0175781,-0.029296875,-19.28125,-23.34375,-22.3125,0.0,0.0,0.0
277,1695809902862,0.21484375,0.875,0.0029296875,-9.59375,-49.8125,-22.375,0.0,0.0,0.0
278,1695809902890,0.22851562,0.8027344,-0.018554688,0.5,-75.78125,-18.5625,0.0,0.0,0.0
279,1695809902921,0.19238281,0.8886719,-0.10253906,16.34375,-80.21875,-6.6875,0.0,0.0,0.0
280,1695809902977,0.28125,0.8095703,-0.037109375,23.25,-69.78125,5.21875,0.0,0.0,0.0
281,1695809903009,0.26171875,0.83203125,0.00390625,18.0,-77.84375,12.375,0.0,0.0,0.0
282,1695809903040,0.29003906,0.9121094,-0.103515625,15.625,-87.71875,20.1875,0.0,0.0,0.0
283,1695809903133,0.33007812,0.81347656,-0.10644531,9.71875,-83.53125,24.625,0.0,0.0,0.0
284,1695809903135,0.18164062,0.8935547,-0.1640625,4.625,-71.4375,38.0,0.0,0.0,0.0
285,1695809903161,0.22363281,0.95214844,-0.1484375,4.15625,-69.78125,37.15625,0.0,0.0,0.0
286,1695809903219,0.23632812,0.92871094,-0.20996094,10.625,-46.65625,31.21875,-10.625,41.875,-131.75
287,1695809903252,0.19726562,0.88964844,-0.23339844,13.0,-33.34375,26.21875,0.0,0.0,0.0
288,1695809903288,0.23632812,0.83691406,-0.39453125,29.53125,-31.875,22.75,0.0,0.0,0.0
289,1695809903340,0.45410156,0.9033203,-0.5097656,63.125,-29.625,27.3125,0.0,0.0,0.0
290,1695809903376,0.6015625,0.51660156,-0.25390625,55.65625,42.03125,80.59375,0.0,0.0,0.0
291,1695809903400,-0.10449219,0.94140625,0.1640625,-112.71875,10.0,43.375,0.0,0.0,0.0
292,1695809903460,0.96191406,1.3486328,-0.038085938,-40.59375,-164.21875,-59.96875,0.0,0.0,0.0
293,1695809903490,-0.15234375,1.2392578,-0.076171875,-33.375,-41.53125,-9.46875,0.0,0.0,0.0
294,1695809903520,0.5810547,0.9873047,-0.29003906,-9.53125,-4.34375,-17.59375,0.0,0.0,0.0
295,1695809903580,0.5136719,0.81933594,0.052734375,-31.25,13.46875,13.71875,0.0,0.0,0.0
296,1695809903610,0.46777344,0.8457031,-0.0859375,-67.0625,-22.0625,9.6875,0.0,0.0,0.0
297,1695809903646,0.3046875,0.7324219,-0.15820312,-39.6875,-4.34375,-11.6875,0.0,0.0,0.0
298,1695809903701,0.375,0.6044922,-0.2607422,-10.375,31.21875,-22.84375,0.0,0.0,0.0
299,1695809903730,0.10839844,0.6074219,-0.22265625,10.875,36.78125,-29.3125,-6.875,37.5625,-129.1875
300,1695809903761,1.0214844,1.6748047,-0.12402344,-10.6875,26.46875,9.5625,0.0,0.0,0.0
301,1695809903821,0.060546875,1.2314453,-0.34277344,5.6875,-33.53125,14.8125,0.0,0.0,0.0
302,1695809903851,0.16210938,1.5498047,-0.4951172,-16.28125,-21.09375,5.65625,0.0,0.0,0.0
303,1695809903880,0.09765625,1.0839844,-0.35058594,13.78125,-45.625,4.125,0.0,0.0,0.0
304,1695809903943,0.13867188,1.0400391,-0.16015625,21.0,-49.8125,2.1875,0.0,0.0,0.0
305,1695809903978,0.08984375,0.90722656,-0.17089844,2.5,-35.1875,-2.34375,0.0,0.0,0.0
306,1695809904000,0.11328125,0.69433594,-0.09863281,-9.21875,-32.5625,-7.40625,0.0,0.0,0.0
307,1695809904059,-0.055664062,0.69140625,-0.23046875,8.0,-17.53125,-4.0625,0.0,0.0,0.0
308,1695809904088,0.030273438,0.8310547,-0.20800781,20.1875,2.25,1.9375,0.0,0.0,0.0
309,1695809904118,0.25976562,0.8925781,-0.21386719,20.9375,7.0,-3.3125,0.0,0.0,0.0
310,1695809904176,0.19628906,0.8730469,-0.2685547,19.96875,15.1875,-2.59375,0.0,0.0,0.0
311,1695809904207,0.296875,0.8144531,-0.4169922,-8.65625,11.34375,-11.5625,-6.0,39.5,-133.375
312,1695809904237,0.14941406,0.82714844,-0.41015625,-17.625,6.3125,-14.84375,0.0,0.0,0.0
313,1695809904297,0.09472656,0.8457031,-0.34765625,-22.40625,-10.21875,-17.53125,0.0,0.0,0.0
314,1695809904327,0.15039062,0.83984375,-0.25,-27.71875,-22.1875,-20.71875,0.0,0.0,0.0
315,1695809904356,0.10644531,0.8359375,-0.2734375,-33.625,-24.875,-15.9375,0.0,0.0,0.0
316,1695809904417,0.015625,0.8964844,-0.43164062,-22.34375,-12.78125,-1.5,0.0,0.0,0.0
317,1695809904446,0.28222656,0.93066406,-0.37109375,-16.59375,-19.8125,13.15625,0.0,0.0,0.0
318,1695809904476,0.14648438,0.87597656,-0.40527344,-7.9375,-29.75,32.03125,0.0,0.0,0.0
319,1695809904536,0.11425781,0.89941406,-0.5214844,-21.84375,-25.78125,38.6875,0.0,0.0,0.0
320,1695809904566,0.17578125,1.2597656,-0.3046875,-22.28125,-32.75,39.03125,0.0,0.0,0.0
321,1695809904596,0.08300781,1.5664062,-0.061523438,-32.78125,-26.6875,4.25,0.0,0.0,0.0
322,1695809904656,0.022460938,1.1777344,-0.16796875,2.8125,-21.375,-26.3125,0.0,0.0,0.0
323,1695809904686,0.109375,0.57714844,0.04296875,26.5,27.5,6.75,0.0,0.0,0.0
324,1695809904746,0.5625,0.89160156,0.1171875,30.34375,78.71875,33.96875,-6.875,39.625,-126.375
325,1695809904776,0.50683594,1.1201172,-0.049804688,-10.625,74.0,21.875,0.0,0.0,0.0
326,1695809904806,0.2939453,0.8408203,-0.0126953125,-21.65625,61.875,17.875,0.0,0.0,0.0
327,1695809904896,0.34179688,0.8359375,0.029296875,-25.21875,63.8125,18.78125,0.0,0.0,0.0
328,1695809904896,0.37109375,0.9091797,-0.02734375,-21.125,53.25,16.59375,0.0,0.0,0.0
329,1695809904926,0.38183594,0.92285156,-0.10644531,-1.71875,50.4375,14.0625,0.0,0.0,0.0
330,1695809904956,0.43554688,0.8222656,-0.12402344,-3.28125,47.40625,10.15625,0.0,0.0,0.0
331,1695809905016,0.4326172,0.7402344,0.001953125,-15.0,49.78125,1.8125,0.0,0.0,0.0
332,1695809905046,0.4580078,0.8310547,-0.07128906,-38.6875,43.4375,-12.78125,0.0,0.0,0.0
333,1695809905076,0.44433594,0.9042969,-0.04296875,-35.09375,43.25,-26.03125,0.0,0.0,0.0
334,1695809905137,0.32617188,0.96484375,0.0107421875,-27.21875,47.15625,-29.5625,0.0,0.0,0.0
335,1695809905169,0.42578125,0.9296875,0.03125,-18.125,45.03125,-17.78125,0.0,0.0,0.0
336,1695809905229,0.50390625,0.921875,-0.091796875,-6.90625,35.625,4.5625,-7.625,34.25,-118.125
337,1695809905261,0.7441406,0.9902344,0.11328125,19.40625,20.90625,4.75,0.0,0.0,0.0
338,1695809905291,0.5722656,1.1992188,0.21386719,48.8125,-29.9375,12.0,0.0,0.0,0.0
339,1695809905319,0.22949219,1.1162109,0.07714844,88.3125,-70.875,15.3125,0.0,0.0,0.0
340,1695809905412,0.41601562,1.0605469,-0.016601562,118.15625,-72.46875,1.375,0.0,0.0,0.0
341,1695809905416,0.39746094,1.0839844,-0.053710938,99.90625,-71.25,11.03125,0.0,0.0,0.0
342,1695809905442,0.24804688,1.1552734,-0.09765625,99.84375,-75.21875,10.0,0.0,0.0,0.0
343,1695809905497,0.35351562,0.97265625,-0.14941406,80.3125,-67.21875,-2.65625,0.0,0.0,0.0
344,1695809905529,0.35253906,0.86621094,-0.27539062,56.46875,-75.21875,7.125,0.0,0.0,0.0
345,1695809905562,0.24804688,0.7578125,-0.20507812,35.40625,-79.25,21.875,0.0,0.0,0.0
346,1695809905617,0.16699219,0.5722656,-0.11328125,-3.84375,-72.90625,28.46875,0.0,0.0,0.0
347,1695809905682,0.099609375,0.50683594,-0.13769531,-58.09375,-64.59375,23.59375,0.0,0.0,0.0
348,1695809905708,0.15917969,0.58496094,-0.26367188,-73.1875,-48.53125,18.40625,0.0,0.0,0.0
349,1695809905737,0.22949219,0.9394531,-0.4326172,-67.125,-31.53125,35.8125,-2.25,37.5625,-139.875
350,1695809905766,0.43847656,0.93359375,-0.35546875,-19.78125,-72.59375,41.0,0.0,0.0,0.0
351,1695809905827,0.3203125,1.4199219,-0.4345703,44.0625,-91.03125,60.9375,0.0,0.0,0.0
352,1695809905857,0.06640625,1.1132812,-0.21972656,61.46875,-48.5,50.875,0.0,0.0,0.0
353,1695809905886,0.12402344,0.75390625,-0.22753906,-6.59375,-103.0625,4.125,0.0,0.0,0.0
354,1695809905947,0.33203125,0.72558594,-0.2421875,20.625,-71.4375,32.03125,0.0,0.0,0.0
355,1695809905977,0.29492188,0.9941406,-0.4013672,13.5625,-39.09375,46.84375,0.0,0.0,0.0
356,1695809906011,0.50683594,0.75390625,-0.40820312,21.125,-36.53125,47.71875,0.0,0.0,0.0
357,1695809906068,0.3017578,0.5517578,-0.23925781,32.34375,-30.59375,37.8125,0.0,0.0,0.0
358,1695809906099,0.24609375,0.57714844,-0.34570312,41.4375,-41.59375,19.21875,0.0,0.0,0.0
359,1695809906128,0.3154297,0.4951172,-0.3466797,56.03125,-40.84375,6.21875,0.0,0.0,0.0
360,1695809906190,0.2861328,0.47070312,-0.46484375,46.375,-17.90625,15.0625,0.0,0.0,0.0
361,1695809906220,0.30273438,0.64160156,-0.53222656,80.5,-5.09375,13.21875,3.0,26.5625,-154.875
362,1695809906249,0.35546875,0.5966797,-0.546875,81.71875,8.09375,5.21875,0.0,0.0,0.0
363,1695809906310,0.3857422,0.44726562,-0.64941406,73.5625,-1.5,5.40625,0.0,0.0,0.0
364,1695809906341,0.47265625,0.48535156,-0.9111328,71.90625,-20.84375,9.9375,0.0,0.0,0.0
365,1695809906370,0.3095703,0.48339844,-0.73046875,71.96875,-19.125,8.40625,0.0,0.0,0.0
366,1695809906429,0.34179688,0.5205078,-0.8652344,65.25,-11.625,6.5625,0.0,0.0,0.0
367,1695809906458,0.32421875,0.51660156,-0.9267578,62.5625,-12.15625,7.0625,0.0,0.0,0.0
368,1695809906486,0.3955078,0.3828125,-0.9394531,61.03125,-3.3125,8.40625,0.0,0.0,0.0
369,1695809906546,0.37402344,0.5205078,-1.1533203,60.375,-5.28125,6.5625,0.0,0.0,0.0
370,1695809906576,0.34960938,0.4296875,-1.0800781,50.28125,5.09375,7.96875,0.0,0.0,0.0
371,1695809906606,0.4423828,0.43945312,-1.1035156,35.9375,-5.625,1.5,0.0,0.0,0.0
372,1695809906666,0.34570312,0.5361328,-1.2802734,25.5625,-15.21875,-5.09375,0.0,0.0,0.0
373,1695809906697,0.42578125,0.5214844,-1.3955078,7.5,-12.40625,-7.46875,0.0,0.0,0.0
374,1695809906728,0.5019531,0.50878906,-1.4033203,-8.25,-1.0,-11.5,-0.3125,9.8125,-167.0
375,1695809906788,0.38964844,0.53515625,-1.3623047,-27.09375,-3.1875,-13.5,0.0,0.0,0.0
376,1695809906819,0.4140625,0.43066406,-1.2744141,-43.15625,9.125,-15.34375,0.0,0.0,0.0
377,1695809906848,0.3408203,0.41503906,-1.0966797,-56.65625,11.5,-15.28125,0.0,0.0,0.0
378,1695809906909,0.2998047,0.4423828,-1.0351562,-69.6875,21.34375,-15.71875,0.0,0.0,0.0
379,1695809906939,0.35351562,0.4326172,-0.9296875,-78.0625,28.40625,-15.28125,0.0,0.0,0.0
380,1695809906970,0.32128906,0.5234375,-0.88378906,-76.59375,23.65625,-12.53125,0.0,0.0,0.0
381,1695809907028,0.3359375,0.5605469,-0.8466797,-85.03125,25.625,-13.6875,0.0,0.0,0.0
382,1695809907057,0.3388672,0.5732422,-0.765625,-85.4375,29.40625,-16.125,0.0,0.0,0.0
383,1695809907088,0.3466797,0.60546875,-0.7597656,-86.125,31.53125,-18.15625,0.0,0.0,0.0
384,1695809907146,0.34472656,0.625,-0.6308594,-87.21875,34.59375,-19.90625,0.0,0.0,0.0
385,1695809907176,0.359375,0.6923828,-0.578125,-90.625,35.5625,-23.03125,0.0,0.0,0.0
386,1695809907208,0.27246094,0.6425781,-0.44726562,-91.6875,49.40625,-25.65625,2.25,29.75,-151.125
387,1695809907267,0.2783203,0.546875,-0.38867188,-98.75,47.53125,-31.6875,0.0,0.0,0.0
388,1695809907296,0.23535156,0.5361328,-0.3017578,-99.78125,53.03125,-31.625,0.0,0.0,0.0
389,1695809907329,0.3310547,0.57128906,-0.36816406,-90.6875,49.71875,-26.09375,0.0,0.0,0.0
390,1695809907389,0.33007812,0.53027344,-0.12695312,-82.53125,39.40625,-23.21875,0.0,0.0,0.0
391,1695809907420,0.15429688,0.64941406,-0.13183594,-76.71875,37.875,-18.28125,0.0,0.0,0.0
392,1695809907451,0.14746094,0.6503906,-0.16601562,-66.53125,9.1875,-29.6875,0.0,0.0,0.0
393,1695809907540,0.25976562,0.8496094,0.08496094,-40.28125,-4.90625,-23.8125,0.0,0.0,0.0
394,1695809907542,0.29003906,1.1025391,0.018554688,-36.0,-15.21875,-8.875,0.0,0.0,0.0
395,1695809907569,0.24023438,1.0673828,-0.015625,-1.65625,-3.0,7.90625,0.0,0.0,0.0
396,1695809907629,0.19433594,0.99609375,-0.0029296875,28.375,-1.5,10.71875,0.0,0.0,0.0
397,1695809907689,0.3310547,0.90527344,-0.10058594,33.8125,-8.9375,9.3125,0.0,0.0,0.0
398,1695809907691,0.34277344,0.83984375,-0.095703125,38.75,-9.90625,16.09375,0.3125,35.3125,-132.1875
399,1695809907749,0.29785156,0.9013672,-0.15136719,12.09375,-15.84375,14.03125,0.0,0.0,0.0
400,1695809907780,0.28027344,0.89746094,-0.18457031,22.40625,-23.78125,9.3125,0.0,0.0,0.0
401,1695809907810,0.20507812,0.8144531,-0.31347656,29.25,-10.9375,13.84375,0.0,0.0,0.0
402,1695809907900,0.43554688,0.8544922,-0.19042969,34.0625,-32.6875,9.375,0.0,0.0,0.0
403,1695809907904,0.20214844,0.6953125,-0.15722656,54.6875,-19.90625,20.59375,0.0,0.0,0.0
404,1695809907930,0.2626953,0.7402344,-0.33691406,47.125,-32.5,13.09375,0.0,0.0,0.0
405,1695809907987,0.25878906,0.72558594,-0.3515625,60.1875,-21.625,21.84375,0.0,0.0,0.0
406,1695809908017,0.3955078,0.8144531,-0.31347656,43.6875,-27.125,14.9375,0.0,0.0,0.0
407,1695809908046,0.37402344,0.78222656,-0.41503906,63.59375,-19.5,18.53125,0.0,0.0,0.0
408,1695809908107,0.41015625,0.7080078,-0.4501953,45.40625,-29.5625,10.90625,0.0,0.0,0.0
409,1695809908138,0.40527344,0.6777344,-0.45898438,70.0625,-42.0,11.6875,0.0,0.0,0.0
410,1695809908166,0.2705078,0.71777344,-0.64941406,62.5,-38.65625,10.15625,0.0,0.0,0.0
411,1695809908227,0.25683594,0.60546875,-0.49804688,57.8125,-9.0625,14.6875,1.8125,27.9375,-150.8125
412,1695809908260,0.37109375,0.58984375,-0.5966797,61.59375,-1.5625,13.53125,0.0,0.0,0.0
413,1695809908290,0.40429688,0.5576172,-0.6972656,59.5625,-14.25,13.71875,0.0,0.0,0.0
414,1695809908350,0.296875,0.546875,-0.68066406,55.1875,-19.25,14.8125,0.0,0.0,0.0
415,1695809908380,0.37109375,0.59277344,-0.6816406,60.25,-20.65625,11.09375,0.0,0.0,0.0
416,1695809908413,0.31640625,0.49902344,-0.7470703,55.96875,-16.5,9.4375,0.0,0.0,0.0
417,1695809908472,0.3330078,0.51953125,-0.82128906,55.96875,-13.03125,7.0625,0.0,0.0,0.0
418,1695809908500,0.38671875,0.5292969,-0.8574219,50.28125,-16.1875,9.8125,0.0,0.0,0.0
419,1695809908533,0.38964844,0.5830078,-0.8652344,40.90625,-11.4375,10.53125,0.0,0.0,0.0
420,1695809908591,0.37695312,0.5839844,-0.9550781,39.3125,-13.5,4.75,0.0,0.0,0.0
421,1695809908619,0.39453125,0.56152344,-1.0185547,33.875,-5.875,7.71875,0.0,0.0,0.0
422,1695809908647,0.4482422,0.55078125,-1.0810547,29.1875,-7.84375,5.96875,0.0,0.0,0.0
423,1695809908711,0.40625,0.62890625,-1.1826172,14.09375,-10.21875,0.84375,1.1875,15.8125,-162.5
424,1695809908739,0.48632812,0.6152344,-1.2402344,-3.40625,2.125,1.375,0.0,0.0,0.0
425,1695809908769,0.53808594,0.6826172,-1.2402344,-17.875,0.53125,-2.46875,0.0,0.0,0.0
426,1695809908830,0.40722656,0.63183594,-1.2109375,-35.09375,2.59375,-4.46875,0.0,0.0,0.0
427,1695809908860,0.5,0.4873047,-1.0878906,-54.5625,12.5625,-4.28125,0.0,0.0,0.0
428,1695809908887,0.4169922,0.6064453,-0.9824219,-60.0625,4.3125,-0.3125,0.0,0.0,0.0
429,1695809908950,0.3701172,0.6015625,-0.9345703,-64.46875,6.875,-1.96875,0.0,0.0,0.0
430,1695809908977,0.3955078,0.5654297,-0.8027344,-73.4375,9.25,-3.1875,0.0,0.0,0.0
431,1695809909008,0.4111328,0.65722656,-0.75878906,-82.59375,6.09375,-6.84375,0.0,0.0,0.0
432,1695809909066,0.36914062,0.6328125,-0.7109375,-85.6875,4.125,-10.40625,0.0,0.0,0.0
433,1695809909097,0.36523438,0.6796875,-0.66796875,-83.0625,8.09375,-12.03125,0.0,0.0,0.0
434,1695809909126,0.37304688,0.6298828,-0.5546875,-94.78125,15.25,-16.8125,0.0,0.0,0.0
435,1695809909186,0.30859375,0.6982422,-0.48828125,-88.1875,17.75,-18.6875,0.0,0.0,0.0
436,1695809909216,0.328125,0.69921875,-0.3876953,-92.46875,15.84375,-25.46875,0.3125,30.3125,-149.625
437,1695809909247,0.30371094,0.55078125,-0.38964844,-90.46875,15.25,-24.25,0.0,0.0,0.0
438,1695809909307,0.2734375,0.53515625,-0.2939453,-89.28125,12.0625,-23.15625,0.0,0.0,0.0
439,1695809909336,0.30078125,0.7158203,-0.22265625,-84.09375,3.9375,-14.71875,0.0,0.0,0.0
440,1695809909366,0.30664062,0.69628906,-0.38183594,-79.59375,9.4375,-15.84375,0.0,0.0,0.0
441,1695809909426,0.27734375,0.6533203,-0.15136719,-65.96875,10.71875,-10.9375,0.0,0.0,0.0
442,1695809909458,0.4140625,0.86328125,-0.29003906,-55.59375,-5.09375,-3.375,0.0,0.0,0.0
443,1695809909486,0.33203125,0.7919922,-0.16601562,-29.1875,-25.40625,-3.9375,0.0,0.0,0.0
444,1695809909547,0.3017578,0.94140625,-0.26660156,3.34375,-59.21875,2.0,0.0,0.0,0.0
445,1695809909576,0.38671875,0.82714844,-0.29882812,33.6875,-81.875,6.875,0.0,0.0,0.0
446,1695809909607,0.2998047,0.93359375,-0.18847656,52.375,-114.40625,25.1875,0.0,0.0,0.0
447,1695809909668,0.16015625,0.9199219,-0.20605469,26.90625,-120.4375,17.0625,0.0,0.0,0.0
448,1695809909696,0.3564453,1.078125,-0.3486328,34.125,-69.25,30.5,-0.625,33.8125,-143.875
449,1695809909726,0.3017578,0.89746094,-0.328125,23.1875,-79.78125,26.40625,0.0,0.0,0.0
450,1695809909786,0.15332031,0.7597656,-0.35058594,7.8125,-48.5,31.84375,0.0,0.0,0.0
451,1695809909816,0.18457031,0.6503906,-0.25878906,-12.9375,-18.75,35.3125,0.0,0.0,0.0
452,1695809909846,0.07421875,0.62597656,-0.20800781,-50.71875,-21.25,22.4375,0.0,0.0,0.0
453,1695809909907,0.13085938,0.6435547,-0.31152344,-45.96875,-16.6875,5.21875,0.0,0.0,0.0
454,1695809909967,0.21875,0.8886719,-0.49804688,-38.9375,25.0625,10.34375,0.0,0.0,0.0
455,1695809909969,0.6347656,1.1904297,-0.5019531,-12.75,1.125,6.15625,0.0,0.0,0.0
456,1695809910027,0.49609375,0.95996094,-0.6298828,11.90625,-23.8125,20.375,0.0,0.0,0.0
457,1695809910062,0.38378906,0.6826172,-0.48242188,-1.03125,-62.40625,26.53125,0.0,0.0,0.0
458,1695809910087,0.23535156,1.0263672,-0.5078125,-31.25,-31.53125,24.28125,0.0,0.0,0.0
459,1695809910146,0.45410156,1.6357422,-0.359375,-8.0,-26.5625,11.625,0.0,0.0,0.0
460,1695809910176,-0.043945312,0.79785156,-0.31054688,4.6875,11.625,7.5625,0.0,0.0,0.0
461,1695809910206,0.0029296875,0.61328125,-0.125,-0.625,37.03125,19.03125,4.5,28.5625,-145.125
462,1695809910266,0.4638672,1.0634766,-0.0126953125,-0.5625,17.8125,1.3125,0.0,0.0,0.0
463,1695809910296,0.33398438,1.0673828,-0.06933594,-27.46875,60.09375,21.84375,0.0,0.0,0.0
464,1695809910327,0.2109375,0.8886719,-0.22949219,-30.625,49.84375,10.90625,0.0,0.0,0.0
465,1695809910386,0.4169922,0.9140625,-0.001953125,-10.25,67.125,5.46875,0.0,0.0,0.0
466,1695809910416,0.50878906,0.94433594,0.038085938,-30.40625,81.59375,9.375,0.0,0.0,0.0
467,1695809910446,0.41796875,0.8095703,-0.047851562,-44.875,53.375,11.5,0.0,0.0,0.0
468,1695809910509,0.3642578,0.8388672,-0.00390625,-31.125,61.125,2.0,0.0,0.0,0.0
469,1695809910538,0.30566406,0.8886719,0.001953125,-35.40625,69.6875,-10.875,0.0,0.0,0.0
470,1695809910568,0.37597656,0.81640625,-0.08496094,-31.5625,65.78125,-19.84375,0.0,0.0,0.0
471,1695809910628,0.5214844,0.79589844,-0.07324219,-13.1875,63.9375,-21.875,0.0,0.0,0.0
472,1695809910658,0.6357422,0.84765625,-0.072265625,-18.1875,53.375,-15.875,0.0,0.0,0.0
473,1695809910687,0.47460938,0.9316406,-0.013671875,-31.25,37.5,-9.125,6.875,28.375,-128.3125
474,1695809910746,0.3388672,0.9160156,0.041015625,-10.6875,41.96875,-6.6875,0.0,0.0,0.0
475,1695809910776,0.3564453,0.9482422,0.045898438,-19.78125,43.96875,-10.9375,0.0,0.0,0.0
476,1695809910807,0.52734375,0.8251953,0.032226562,-16.96875,58.21875,-14.5625,0.0,0.0,0.0
477,1695809910867,0.7011719,0.9121094,0.16601562,-24.40625,31.34375,-10.34375,0.0,0.0,0.0
478,1695809910897,0.4716797,1.0253906,0.0625,-29.96875,-2.40625,8.71875,0.0,0.0,0.0
479,1695809910926,0.40429688,0.79296875,0.043945312,-12.875,-16.0,8.65625,0.0,0.0,0.0
480,1695809910990,0.44335938,0.62890625,0.17578125,20.09375,-40.375,0.78125,0.0,0.0,0.0
481,1695809911021,0.24804688,0.7421875,0.23828125,49.75,-73.09375,13.71875,0.0,0.0,0.0
482,1695809911049,0.29492188,0.9296875,0.6142578,89.0,-73.5625,25.1875,0.0,0.0,0.0
483,1695809911110,0.4560547,1.15625,-0.05078125,105.65625,-66.0,16.875,0.0,0.0,0.0
484,1695809911140,0.5029297,1.2216797,-0.21777344,101.4375,-67.03125,10.15625,0.0,0.0,0.0
485,1695809911170,0.51953125,1.1982422,-0.28222656,102.40625,-89.625,4.8125,0.0,0.0,0.0
486,1695809911228,0.6074219,1.2402344,-0.5830078,86.3125,-110.1875,0.96875,6.4375,28.6875,-137.625
487,1695809911258,0.7138672,1.4863281,-0.65722656,70.5625,-144.25,-1.4375,0.0,0.0,0.0
488,1695809911290,0.34570312,1.2636719,-0.7451172,27.90625,-114.78125,-2.78125,0.0,0.0,0.0
489,1695809911346,0.3310547,0.6972656,-0.59765625,-60.1875,-32.90625,-21.9375,0.0,0.0,0.0
490,1695809911376,0.20117188,0.65722656,-0.5126953,-93.25,21.59375,-37.5625,0.0,0.0,0.0
491,1695809911406,-0.030273438,0.1328125,-0.18457031,-85.21875,60.21875,-30.28125,0.0,0.0,0.0
492,1695809911467,0.17089844,-0.12792969,-0.08984375,-41.1875,-8.4375,-21.03125,0.0,0.0,0.0
493,1695809911497,0.17480469,0.10644531,-0.20214844,-25.875,-24.3125,27.125,0.0,0.0,0.0
494,1695809911526,0.034179688,-0.029296875,-0.42382812,32.53125,-9.90625,53.375,0.0,0.0,0.0
495,1695809911588,-0.83691406,1.9755859,0.5888672,116.46875,-27.5625,58.6875,0.0,0.0,0.0
496,1695809911617,-0.296875,0.19726562,-0.2548828,118.59375,94.875,6.8125,0.0,0.0,0.0
497,1695809911652,0.4169922,0.75683594,-0.28125,80.3125,99.59375,26.65625,0.0,0.0,0.0
498,1695809911711,0.7167969,1.8447266,-0.2685547,36.0,144.15625,-5.75,7.8125,26.4375,-149.125
499,1695809911738,0.6542969,1.2675781,-0.54589844,-8.1875,160.0,-30.28125,0.0,0.0,0.0
500,1695809911771,0.7919922,0.921875,-0.29492188,-41.6875,150.1875,-29.8125,0.0,0.0,0.0
501,1695809911829,0.6777344,0.9316406,-0.23339844,-95.65625,116.0,-28.34375,0.0,0.0,0.0
502,1695809911859,0.46679688,0.8095703,-0.25585938,-82.59375,109.71875,-23.65625,0.0,0.0,0.0
503,1695809911888,0.5185547,0.45703125,-0.21875,-55.34375,87.6875,-33.28125,0.0,0.0,0.0
504,1695809911946,0.18652344,0.19238281,-0.18847656,-18.875,59.3125,-46.34375,0.0,0.0,0.0
505,1695809911978,0.19433594,0.3955078,-0.064453125,5.90625,32.625,-47.8125,0.0,0.0,0.0
506,1695809912006,0.16992188,0.3466797,0.056640625,17.09375,10.53125,-31.21875,0.0,0.0,0.0
507,1695809912066,-0.046875,0.37109375,0.10546875,49.0625,-25.21875,-17.28125,0.0,0.0,0.0
508,1695809912096,0.63183594,2.0136719,0.13183594,79.71875,-45.75,7.25,0.0,0.0,0.0
509,1695809912127,0.52441406,1.4902344,0.07324219,106.5,-44.28125,29.21875,0.0,0.0,0.0
510,1695809912187,0.7480469,1.6269531,-0.19824219,133.59375,-21.375,15.0,0.0,0.0,0.0
511,1695809912247,0.5439453,1.1757812,-0.25976562,110.59375,-72.46875,30.0,5.25,30.625,-136.125
512,1695809912249,0.3125,1.2197266,-0.35253906,95.09375,-62.46875,19.6875,0.0,0.0,0.0
513,1695809912309,0.26367188,0.9550781,-0.2890625,64.6875,-50.75,-3.625,0.0,0.0,0.0
514,1695809912337,0.4892578,0.5722656,-0.22949219,17.875,-29.25,14.375,0.0,0.0,0.0
515,1695809912368,0.2890625,0.4169922,-0.28222656,-19.15625,-43.125,32.875,0.0,0.0,0.0
516,1695809912427,0.18457031,0.44726562,-0.3642578,-47.5,-43.84375,46.1875,0.0,0.0,0.0
517,1695809912457,0.21582031,0.4921875,-0.31054688,-50.71875,-61.59375,44.34375,0.0,0.0,0.0
518,1695809912486,0.25390625,0.734375,-0.171875,-39.0,-62.28125,35.6875,0.0,0.0,0.0
519,1695809912548,0.25878906,0.7919922,-0.22949219,-43.875,-41.84375,20.90625,0.0,0.0,0.0
520,1695809912578,0.29296875,0.74316406,-0.3330078,-45.78125,-19.375,8.65625,0.0,0.0,0.0
521,1695809912609,0.34277344,0.8066406,-0.42871094,-36.9375,3.34375,9.4375,0.0,0.0,0.0
522,1695809912666,0.50097656,0.8964844,-0.41503906,-41.875,10.65625,10.84375,0.0,0.0,0.0
523,1695809912697,0.5703125,0.70996094,-0.36914062,-51.875,-3.4375,10.15625,8.5625,27.1875,-143.3125
524,1695809912727,0.57910156,0.8095703,-0.36035156,-42.84375,-4.65625,13.28125,0.0,0.0,0.0
525,1695809912787,0.4951172,0.7832031,-0.37695312,-47.90625,-25.0,14.6875,0.0,0.0,0.0
526,1695809912819,0.45703125,0.8105469,-0.48535156,-41.4375,-48.0,5.65625,0.0,0.0,0.0
527,1695809912847,0.44726562,1.1826172,-0.42285156,-42.65625,-32.0,8.03125,0.0,0.0,0.0
528,1695809912910,0.40722656,1.4111328,-0.19726562,-45.28125,-4.96875,19.4375,0.0,0.0,0.0
529,1695809912939,0.20703125,0.7861328,-0.19042969,-16.125,-17.78125,13.90625,0.0,0.0,0.0
530,1695809912970,0.05078125,0.7294922,-0.19824219,-25.40625,-19.5,12.1875,0.0,0.0,0.0
531,1695809913031,0.29785156,1.1357422,-0.12988281,-21.53125,-22.0,1.5,0.0,0.0,0.0
532,1695809913060,0.24121094,1.09375,-0.11035156,-27.84375,73.9375,15.25,0.0,0.0,0.0
533,1695809913089,0.23828125,0.9316406,-0.09082031,-16.0625,99.28125,12.0625,0.0,0.0,0.0
534,1695809913152,0.43945312,0.8769531,0.025390625,0.0625,116.96875,9.5625,0.0,0.0,0.0
535,1695809913180,0.54003906,0.8232422,0.044921875,-9.40625,107.15625,3.65625,0.0,0.0,0.0
536,1695809913211,0.5654297,0.7871094,0.046875,-0.1875,86.40625,-0.03125,12.3125,26.3125,-129.9375
537,1695809913269,0.4580078,0.8779297,-0.028320312,8.46875,80.78125,0.53125,0.0,0.0,0.0
538,1695809913297,0.6015625,0.78808594,-0.048828125,11.0,84.625,-3.1875,0.0,0.0,0.0
539,1695809913328,0.6123047,0.7939453,-0.036132812,-3.59375,62.71875,-7.46875,0.0,0.0,0.0
540,1695809913389,0.5654297,0.7626953,-0.076171875,-21.65625,38.84375,-18.03125,0.0,0.0,0.0
541,1695809913420,0.5517578,0.8798828,-0.08203125,-18.375,33.125,-22.46875,0.0,0.0,0.0
542,1695809913448,0.3544922,0.9355469,-0.0625,-15.1875,40.9375,-16.375,0.0,0.0,0.0
543,1695809913511,0.30273438,0.85839844,-0.13085938,3.28125,54.25,-9.78125,0.0,0.0,0.0
544,1695809913541,0.3095703,0.7705078,0.0107421875,26.90625,71.625,-13.3125,0.0,0.0,0.0
545,1695809913570,0.60546875,0.96875,0.19824219,49.625,70.34375,-18.40625,0.0,0.0,0.0
546,1695809913630,0.66796875,1.2304688,0.2421875,74.09375,7.4375,-5.15625,0.0,0.0,0.0
547,1695809913658,0.28808594,1.3369141,0.22558594,61.21875,-16.875,18.34375,0.0,0.0,0.0
548,1695809913689,0.37695312,1.0390625,0.02734375,76.0625,-3.875,-6.3125,4.625,30.1875,-120.625
549,1695809913750,0.25878906,1.0908203,-0.015625,84.84375,1.3125,-11.375,0.0,0.0,0.0
550,1695809913779,0.23242188,1.0800781,-0.08105469,103.9375,6.03125,-12.21875,0.0,0.0,0.0
551,1695809913810,0.3359375,1.0205078,-0.055664062,111.5,14.6875,-20.65625,0.0,0.0,0.0
552,1695809913871,0.46972656,0.89160156,-0.07324219,90.8125,1.9375,-29.75,0.0,0.0,0.0
553,1695809913902,0.296875,0.8388672,-0.22265625,66.84375,-12.78125,-30.0625,0.0,0.0,0.0
554,1695809913929,0.21777344,0.82128906,-0.26464844,53.21875,-12.09375,-30.46875,0.0,0.0,0.0
555,1695809913991,0.18359375,0.70214844,-0.24609375,40.71875,5.46875,-27.125,0.0,0.0,0.0
556,1695809914020,0.19238281,0.68066406,-0.22363281,17.5625,19.25,-27.125,0.0,0.0,0.0
557,1695809914054,0.19628906,0.64453125,-0.28808594,-4.75,42.46875,-19.0625,0.0,0.0,0.0
558,1695809914110,0.22949219,0.6201172,-0.36816406,-11.46875,60.03125,-15.21875,0.0,0.0,0.0
559,1695809914143,0.2861328,0.6455078,-0.43066406,-24.59375,82.0625,-10.8125,0.0,0.0,0.0
560,1695809914170,0.41796875,0.7685547,-0.5371094,-31.1875,74.0,-3.1875,0.0,0.0,0.0
561,1695809914227,0.59375,0.9765625,-0.48632812,-9.40625,33.125,2.125,-2.375,37.6875,-132.0625
562,1695809914261,0.5839844,1.0039062,-0.6357422,-0.65625,-8.25,14.75,0.0,0.0,0.0
563,1695809914290,0.45410156,0.6425781,-0.5498047,-10.4375,-67.09375,19.5,0.0,0.0,0.0
564,1695809914348,0.171875,1.4619141,-0.46679688,-40.28125,-56.53125,20.3125,0.0,0.0,0.0
565,1695809914381,0.15625,1.3857422,-0.18261719,-9.65625,-15.90625,-4.34375,0.0,0.0,0.0
566,1695809914409,0.20605469,0.6425781,-0.05859375,18.25,-4.59375,9.9375,0.0,0.0,0.0
567,1695809914470,0.10839844,0.5986328,0.0703125,-6.21875,11.9375,12.75,0.0,0.0,0.0
568,1695809914533,0.56347656,1.2294922,-0.0625,-7.5625,26.65625,4.5625,0.0,0.0,0.0
569,1695809914536,0.3935547,1.0615234,-0.14355469,-5.0,82.6875,20.90625,0.0,0.0,0.0
570,1695809914590,0.36328125,0.81152344,-0.08496094,-13.3125,61.5,14.875,0.0,0.0,0.0
571,1695809914620,0.46679688,0.8642578,-0.0234375,-8.375,59.4375,10.65625,0.0,0.0,0.0
572,1695809914651,0.48632812,0.859375,-0.055664062,-15.375,44.21875,-0.25,0.0,0.0,0.0
573,1695809914709,0.45410156,0.8027344,-0.1171875,-14.40625,41.1875,3.875,1.5,35.5625,-124.5625
574,1695809914742,0.49316406,0.7998047,-0.103515625,-26.90625,31.15625,0.15625,0.0,0.0,0.0
575,1695809914768,0.49121094,0.8125,-0.09082031,-32.40625,12.71875,-7.28125,0.0,0.0,0.0
576,1695809914827,0.4404297,0.84765625,-0.14160156,-31.75,5.78125,-8.3125,0.0,0.0,0.0
577,1695809914860,0.5,0.87597656,-0.14746094,-31.4375,12.5,-15.09375,0.0,0.0,0.0
578,1695809914890,0.46777344,0.8486328,-0.103515625,-29.78125,17.3125,-21.875,0.0,0.0,0.0
579,1695809914950,0.42382812,0.86328125,-0.080078125,-33.03125,25.71875,-21.625,0.0,0.0,0.0
580,1695809914979,0.4326172,0.8652344,0.025390625,-31.375,41.40625,-13.9375,0.0,0.0,0.0
581,1695809915011,0.4892578,0.8642578,0.041992188,-21.71875,23.59375,-13.4375,0.0,0.0,0.0
582,1695809915068,0.53222656,0.9580078,0.01171875,-13.625,27.5,-8.0625,0.0,0.0,0.0
583,1695809915099,0.7441406,1.1279297,0.20019531,8.4375,8.9375,6.9375,0.0,0.0,0.0
584,1695809915130,0.5126953,1.3017578,0.103515625,29.90625,-40.96875,21.53125,0.0,0.0,0.0
585,1695809915192,0.29101562,1.0400391,0.061523438,85.09375,-55.9375,4.6875,0.0,0.0,0.0
586,1695809915221,0.29003906,0.9375,-0.13769531,104.84375,-46.84375,-6.6875,-1.375,36.1875,-118.25
587,1695809915252,0.43945312,0.9765625,-0.15039062,97.96875,-47.4375,5.21875,0.0,0.0,0.0
588,1695809915309,0.40429688,0.9550781,-0.15527344,82.46875,-80.78125,5.78125,0.0,0.0,0.0
589,1695809915340,0.2626953,0.92578125,-0.22851562,42.59375,-79.90625,-1.125,0.0,0.0,0.0
590,1695809915370,0.2421875,0.89453125,-0.2763672,31.5625,-69.71875,1.0625,0.0,0.0,0.0
591,1695809915429,0.27441406,0.8544922,-0.265625,31.125,-58.125,5.59375,0.0,0.0,0.0
592,1695809915461,0.29589844,0.78027344,-0.15527344,22.03125,-56.25,4.375,0.0,0.0,0.0
593,1695809915491,0.14160156,0.74902344,-0.22070312,-21.53125,-56.25,-6.375,0.0,0.0,0.0
594,1695809915551,0.15722656,0.78515625,-0.3564453,-37.53125,-24.4375,-9.25,0.0,0.0,0.0
595,1695809915584,0.18554688,0.75390625,-0.34472656,-28.125,4.125,-10.03125,0.0,0.0,0.0
596,1695809915611,0.16992188,0.7314453,-0.38964844,-29.90625,20.4375,-7.40625,0.0,0.0,0.0
597,1695809915671,0.31054688,0.7792969,-0.37109375,-47.125,24.03125,-0.8125,0.0,0.0,0.0
598,1695809915699,0.33691406,0.9609375,-0.44140625,-41.3125,7.46875,-7.84375,-1.375,39.0625,-134.4375
599,1695809915728,0.31835938,1.0625,-0.42382812,-5.1875,-15.90625,-3.0,0.0,0.0,0.0
600,1695809915791,0.265625,0.88964844,-0.4970703,-7.5625,-23.71875,7.125,0.0,0.0,0.0
601,1695809915820,0.15429688,0.6972656,-0.39746094,-10.75,-21.15625,19.8125,0.0,0.0,0.0
602,1695809915849,0.099609375,1.1503906,-0.3671875,-15.8125,-34.625,21.40625,0.0,0.0,0.0
603,1695809915912,0.19433594,1.4462891,-0.2705078,-9.53125,-3.875,20.78125,0.0,0.0,0.0
604,1695809915941,0.36035156,1.2177734,-0.3857422,26.0,-34.09375,-7.96875,0.0,0.0,0.0
605,1695809915969,-0.0107421875,0.46484375,0.078125,7.625,23.90625,12.4375,0.0,0.0,0.0
606,1695809916030,0.38378906,0.9589844,0.029296875,3.84375,37.15625,4.8125,0.0,0.0,0.0
607,1695809916061,0.5595703,1.0947266,0.028320312,7.9375,74.875,4.8125,0.0,0.0,0.0
608,1695809916090,0.3798828,1.0068359,-0.078125,2.5625,66.6875,2.96875,0.0,0.0,0.0
609,1695809916150,0.3876953,0.80859375,-0.11328125,-8.1875,58.25,6.4375,0.0,0.0,0.0
610,1695809916181,0.484375,0.8701172,-0.14746094,-21.25,60.78125,4.1875,0.0,0.0,0.0
611,1695809916220,0.5371094,0.80859375,-0.057617188,-27.21875,37.15625,-0.25,-0.4375,37.5625,-128.4375
612,1695809916270,0.47558594,0.74902344,-0.10644531,-31.90625,15.78125,10.40625,0.0,0.0,0.0
613,1695809916301,0.37402344,0.91308594,-0.18652344,-31.96875,10.0,9.5,0.0,0.0,0.0
614,1695809916329,0.39453125,0.8183594,-0.21679688,-23.4375,8.53125,-2.40625,0.0,0.0,0.0
615,1695809916388,0.48632812,0.8574219,-0.12988281,-20.4375,7.78125,-6.25,0.0,0.0,0.0
616,1695809916418,0.421875,0.9003906,-0.20507812,-9.03125,3.625,-5.9375,0.0,0.0,0.0
617,1695809916449,0.39160156,0.9736328,-0.19042969,20.3125,34.34375,16.6875,0.0,0.0,0.0
618,1695809916511,0.3076172,0.78125,-0.15234375,11.0625,4.90625,14.625,0.0,0.0,0.0
619,1695809916541,0.35742188,0.875,0.061523438,12.09375,-6.5625,10.96875,0.0,0.0,0.0
620,1695809916571,0.4970703,1.2519531,0.07421875,13.84375,-10.03125,23.59375,0.0,0.0,0.0
621,1695809916630,0.6035156,1.0341797,-0.08105469,58.96875,-52.875,2.25,0.0,0.0,0.0
622,1695809916660,0.46289062,0.8408203,-0.25878906,90.6875,-109.8125,-23.75,0.0,0.0,0.0
623,1695809916690,0.40722656,0.78808594,-0.12792969,40.90625,-128.6875,-19.84375,1.5,38.4375,-129.9375
624,1695809916752,0.5136719,1.0820312,-0.25585938,47.53125,-115.375,2.1875,0.0,0.0,0.0
625,1695809916810,0.32226562,0.9423828,-0.33007812,22.15625,-111.78125,8.21875,0.0,0.0,0.0
626,1695809916815,0.080078125,0.8544922,-0.35058594,-2.3125,-95.40625,12.125,0.0,0.0,0.0
627,1695809916868,0.27539062,0.7109375,-0.34472656,-18.90625,-70.75,21.46875,0.0,0.0,0.0
628,1695809916900,0.19433594,0.63183594,-0.3017578,-37.59375,-64.78125,35.1875,0.0,0.0,0.0
629,1695809916929,0.11328125,0.67578125,-0.4501953,-48.21875,-69.65625,40.25,0.0,0.0,0.0
630,1695809916990,0.2109375,0.82128906,-0.48828125,-25.6875,-86.28125,46.5625,0.0,0.0,0.0
631,1695809917020,0.31640625,0.70410156,-0.2998047,4.09375,-98.34375,59.78125,0.0,0.0,0.0
632,1695809917051,0.10253906,0.72558594,-0.35351562,-14.84375,-70.8125,65.40625,0.0,0.0,0.0
633,1695809917109,0.10253906,1.0351562,-0.35546875,-33.25,-26.03125,64.6875,0.0,0.0,0.0
634,1695809917138,0.5136719,1.1894531,-0.42382812,46.25,-93.90625,26.40625,0.0,0.0,0.0
635,1695809917169,0.17675781,0.66015625,-0.4609375,38.40625,-60.25,40.4375,0.0,0.0,0.0
636,1695809917231,0.4873047,0.8466797,-0.43945312,41.0,-49.65625,44.65625,7.0625,29.3125,-149.125
637,1695809917261,0.2734375,0.5830078,-0.4580078,28.625,-43.96875,41.78125,0.0,0.0,0.0
638,1695809917300,0.49804688,0.5595703,-0.6152344,30.625,-50.125,44.84375,0.0,0.0,0.0
639,1695809917348,0.2734375,0.59765625,-0.5546875,41.25,-47.8125,49.1875,0.0,0.0,0.0
640,1695809917380,0.44335938,0.5566406,-0.57421875,55.78125,-39.5,51.4375,0.0,0.0,0.0
641,1695809917411,0.3671875,0.5546875,-0.65527344,47.0,-30.78125,47.59375,0.0,0.0,0.0
642,1695809917468,0.4296875,0.5332031,-0.6464844,52.6875,-35.96875,42.53125,0.0,0.0,0.0
643,1695809917500,0.41992188,0.5810547,-0.68652344,59.375,-38.15625,41.0625,0.0,0.0,0.0
644,1695809917530,0.40820312,0.4970703,-0.75097656,56.625,-29.8125,39.84375,0.0,0.0,0.0
645,1695809917590,0.43945312,0.53222656,-0.7998047,56.15625,-28.59375,38.96875,0.0,0.0,0.0
646,1695809917620,0.3642578,0.4873047,-0.8623047,51.28125,-16.8125,33.0625,0.0,0.0,0.0
647,1695809917651,0.47558594,0.63964844,-0.8857422,63.84375,-3.3125,24.6875,0.0,0.0,0.0
648,1695809917710,0.6230469,0.44140625,-0.93652344,59.5,13.84375,17.1875,9.625,6.0625,-166.5625
649,1695809917740,0.6953125,0.20117188,-1.0458984,40.40625,-2.46875,15.40625,0.0,0.0,0.0
650,1695809917767,0.5683594,0.12988281,-1.0791016,30.28125,-10.8125,12.125,0.0,0.0,0.0
651,1695809917830,0.46289062,0.15234375,-1.0527344,16.0625,-26.75,8.59375,0.0,0.0,0.0
652,1695809917862,0.34570312,0.2265625,-0.9980469,6.40625,-13.5,8.59375,0.0,0.0,0.0
653,1695809917890,0.2705078,0.24804688,-0.9609375,6.84375,-11.75,8.21875,0.0,0.0,0.0
654,1695809917951,0.27929688,0.26660156,-0.9169922,14.84375,-10.03125,6.9375,0.0,0.0,0.0
655,1695809917980,0.31933594,0.21972656,-0.77734375,22.59375,-5.625,5.90625,0.0,0.0,0.0
656,1695809918010,0.39453125,0.24902344,-1.0039062,11.53125,-6.125,4.96875,0.0,0.0,0.0
657,1695809918071,0.3310547,0.17578125,-0.8544922,21.84375,-11.9375,5.15625,0.0,0.0,0.0
658,1695809918101,0.3623047,0.18261719,-1.0205078,1.40625,-1.375,2.125,0.0,0.0,0.0
659,1695809918132,0.41015625,0.15625,-0.84277344,13.90625,-8.625,0.15625,0.0,0.0,0.0
660,1695809918190,0.32128906,0.14746094,-1.0068359,-8.59375,-4.0625,-4.59375,0.0,0.0,0.0
661,1695809918226,0.30859375,0.20117188,-0.8798828,2.875,-11.375,-6.0,7.9375,-0.5625,-172.875
662,1695809918251,0.25878906,0.18261719,-0.9453125,-11.0625,-3.25,-4.40625,0.0,0.0,0.0
663,1695809918310,0.35351562,0.23144531,-0.93847656,-6.28125,-7.03125,-5.6875,0.0,0.0,0.0
664,1695809918343,0.2998047,0.18652344,-0.9033203,-9.40625,-4.90625,-4.46875,0.0,0.0,0.0
665,1695809918376,0.3564453,0.26757812,-0.93652344,-4.03125,-9.96875,-4.21875,0.0,0.0,0.0
666,1695809918430,0.29101562,0.16308594,-0.92285156,-2.0625,-20.21875,-12.59375,0.0,0.0,0.0
667,1695809918459,0.30664062,0.22167969,-0.99121094,-6.84375,-8.4375,-4.96875,0.0,0.0,0.0
668,1695809918490,0.20117188,0.24023438,-0.875,-10.1875,-11.0,-4.0625,0.0,0.0,0.0
669,1695809918550,0.22265625,0.24121094,-0.98046875,-13.375,-8.03125,-5.46875,0.0,0.0,0.0
670,1695809918582,0.25097656,0.22460938,-0.91796875,-8.90625,0.65625,-5.46875,0.0,0.0,0.0
671,1695809918610,0.26464844,0.20996094,-0.9433594,-14.59375,4.6875,-4.59375,0.0,0.0,0.0
672,1695809918671,0.23144531,0.26171875,-0.9042969,-22.46875,7.53125,-5.8125,0.0,0.0,0.0
673,1695809918700,0.25976562,0.31054688,-0.90234375,-23.4375,9.875,-7.21875,7.0625,5.3125,-174.8125
674,1695809918730,0.3076172,0.35839844,-0.91796875,-18.96875,6.5625,-8.375,0.0,0.0,0.0
675,1695809918789,0.30566406,0.37597656,-0.88671875,-18.75,-0.03125,-10.46875,0.0,0.0,0.0
676,1695809918819,0.25097656,0.3828125,-0.8701172,-14.03125,-4.46875,-9.59375,0.0,0.0,0.0
677,1695809918850,0.22851562,0.3251953,-0.86328125,-21.0,-11.1875,-10.8125,0.0,0.0,0.0
678,1695809918908,0.2548828,0.42773438,-0.9707031,-15.875,-3.75,-9.0,0.0,0.0,0.0
679,1695809918941,0.2109375,0.33007812,-0.90722656,-9.34375,-2.46875,-8.5625,0.0,0.0,0.0
680,1695809918970,0.234375,0.375,-0.9121094,-5.75,0.65625,-9.59375,0.0,0.0,0.0
681,1695809919030,0.23242188,0.37402344,-0.90527344,-2.5,0.78125,-11.0625,0.0,0.0,0.0
682,1695809919091,0.23925781,0.3095703,-0.8798828,2.5625,-1.96875,-8.25,0.0,0.0,0.0
683,1695809919096,0.28027344,0.3154297,-1.0849609,-4.28125,-0.03125,-7.46875,0.0,0.0,0.0
684,1695809919153,0.34277344,0.3701172,-1.1132812,-0.0625,-10.53125,-7.34375,0.0,0.0,0.0
685,1695809919178,0.3544922,0.28320312,-1.1396484,-20.625,-0.9375,-5.40625,0.0,0.0,0.0
686,1695809919241,0.25,0.45898438,-1.0625,-39.71875,2.125,-4.53125,3.875,8.875,-173.0
687,1695809919272,0.2734375,0.39453125,-1.0068359,-29.71875,15.71875,-1.90625,0.0,0.0,0.0
688,1695809919300,0.390625,0.43164062,-1.0263672,-41.25,18.96875,-2.59375,0.0,0.0,0.0
689,1695809919332,0.2841797,0.48046875,-0.9638672,-52.78125,20.0625,-3.9375,0.0,0.0,0.0
690,1695809919387,0.3173828,0.6152344,-0.9355469,-65.96875,24.6875,-5.8125,0.0,0.0,0.0
691,1695809919422,0.28710938,0.64941406,-0.86035156,-83.1875,33.4375,-5.5,0.0,0.0,0.0
692,1695809919451,0.22167969,0.6484375,-0.890625,-82.875,45.15625,2.40625,0.0,0.0,0.0
693,1695809919508,0.2939453,0.67871094,-0.7392578,-97.59375,60.84375,3.40625,0.0,0.0,0.0
694,1695809919540,0.27441406,0.6845703,-0.6699219,-101.75,67.96875,-2.21875,0.0,0.0,0.0
695,1695809919571,0.29101562,0.6152344,-0.5576172,-101.6875,69.5,-11.8125,0.0,0.0,0.0
696,1695809919633,0.29589844,0.59375,-0.49121094,-93.09375,53.3125,-13.09375,0.0,0.0,0.0
697,1695809919661,0.2861328,0.6435547,-0.484375,-74.09375,47.53125,-15.84375,0.0,0.0,0.0
698,1695809919720,0.3017578,0.71191406,-0.3466797,-64.625,36.53125,-9.40625,11.375,27.5,-149.625
699,1695809919750,0.2841797,0.60546875,-0.28125,-62.8125,36.21875,-13.28125,0.0,0.0,0.0
700,1695809919782,0.34472656,0.70214844,-0.140625,-56.875,63.28125,-13.3125,0.0,0.0,0.0
701,1695809919810,0.2919922,0.6669922,-0.05859375,-60.125,60.03125,-18.34375,0.0,0.0,0.0
702,1695809919871,0.3828125,0.83496094,0.083984375,-52.75,47.03125,-14.4375,0.0,0.0,0.0
703,1695809919900,0.42089844,0.85546875,0.068359375,-58.71875,22.6875,-5.875,0.0,0.0,0.0
704,1695809919930,0.5800781,0.81347656,0.07910156,-47.25,10.09375,-2.03125,0.0,0.0,0.0
705,1695809919991,0.5410156,0.8671875,-0.07714844,-50.71875,-15.34375,-6.25,0.0,0.0,0.0
706,1695809920018,0.46875,0.8652344,0.044921875,-40.59375,-12.09375,-3.8125,0.0,0.0,0.0
707,1695809920050,0.5488281,0.8642578,-0.0390625,-50.0625,-16.1875,-12.65625,0.0,0.0,0.0
708,1695809920110,0.42871094,0.7861328,0.0107421875,-51.15625,-20.09375,-13.625,0.0,0.0,0.0
709,1695809920142,0.31640625,0.8564453,-0.052734375,-50.28125,-9.375,-13.375,0.0,0.0,0.0
710,1695809920169,0.3486328,0.9580078,0.02734375,-23.1875,12.84375,-23.53125,0.0,0.0,0.0
711,1695809920231,0.29492188,0.9863281,-0.03515625,-15.625,25.84375,-30.78125,11.875,31.5625,-128.625
712,1695809920260,0.4716797,0.8642578,0.025390625,-0.78125,37.28125,-26.4375,0.0,0.0,0.0
713,1695809920291,0.6669922,0.8046875,-0.024414062,-13.90625,18.53125,-21.8125,0.0,0.0,0.0
714,1695809920351,0.6533203,0.91503906,0.12597656,-10.625,5.34375,-11.0625,0.0,0.0,0.0
715,1695809920380,0.49414062,1.1660156,0.21191406,-8.0625,-8.625,-1.5625,0.0,0.0,0.0
716,1695809920441,0.49902344,1.2480469,0.09277344,8.78125,-11.25,3.28125,0.0,0.0,0.0
717,1695809920470,0.43945312,1.0107422,0.0625,47.71875,-31.8125,-17.65625,0.0,0.0,0.0
718,1695809920501,0.22167969,0.9189453,0.0048828125,68.25,-53.96875,-11.9375,0.0,0.0,0.0
719,1695809920558,0.2685547,1.0273438,-0.026367188,94.84375,-50.875,3.46875,0.0,0.0,0.0
720,1695809920588,0.40429688,0.9794922,-0.029296875,97.53125,-53.96875,10.15625,0.0,0.0,0.0
721,1695809920617,0.36035156,0.9794922,-0.16308594,82.34375,-67.40625,12.84375,0.0,0.0,0.0
722,1695809920677,0.33203125,0.9355469,-0.18261719,73.65625,-70.875,12.96875,0.0,0.0,0.0
723,1695809920707,0.27441406,0.89160156,-0.22167969,52.0,-74.25,22.5,8.5625,34.25,-144.375
724,1695809920736,0.30273438,0.81933594,-0.22265625,31.90625,-77.21875,27.1875,0.0,0.0,0.0
725,1695809920796,0.22753906,0.7949219,-0.22363281,11.53125,-86.9375,34.09375,0.0,0.0,0.0
726,1695809920827,0.20507812,0.8222656,-0.23730469,-8.84375,-86.875,35.0625,0.0,0.0,0.0
727,1695809920857,0.21289062,0.7763672,-0.29101562,-12.375,-62.03125,33.5625,0.0,0.0,0.0
728,1695809920916,0.31054688,0.7216797,-0.29785156,-16.53125,-53.0625,29.28125,0.0,0.0,0.0
729,1695809920947,0.25976562,0.7392578,-0.36523438,-31.6875,-52.40625,20.1875,0.0,0.0,0.0
730,1695809920978,0.2578125,0.7841797,-0.5205078,-37.90625,-65.875,9.1875,0.0,0.0,0.0
731,1695809921045,0.36523438,0.81640625,-0.5205078,-38.28125,-63.75,9.625,0.0,0.0,0.0
732,1695809921072,0.34960938,0.7597656,-0.4189453,-44.125,-69.125,25.90625,0.0,0.0,0.0
733,1695809921100,0.34765625,0.6972656,-0.49609375,-44.25,-94.875,33.78125,0.0,0.0,0.0
734,1695809921162,0.17773438,0.88964844,-0.50390625,-49.625,-68.8125,51.25,0.0,0.0,0.0
735,1695809921190,0.5595703,2.0136719,-0.25,-60.5,-43.65625,33.90625,0.0,0.0,0.0
736,1695809921221,0.328125,0.9794922,-0.2685547,-1.15625,-72.78125,-9.0,5.125,30.5,-152.875
737,1695809921280,0.09765625,0.42382812,-0.09472656,-9.09375,-56.40625,19.9375,0.0,0.0,0.0
738,1695809921311,0.4453125,0.6767578,0.10449219,0.0625,-3.625,37.875,0.0,0.0,0.0
739,1695809921369,0.7402344,1.2285156,0.0390625,-30.28125,11.09375,30.9375,0.0,0.0,0.0
740,1695809921402,0.18554688,0.9345703,-0.24609375,-36.0,-62.59375,12.78125,0.0,0.0,0.0
741,1695809921427,0.24414062,0.7734375,-0.24902344,-34.5,-8.6875,29.875,0.0,0.0,0.0
742,1695809921462,0.71777344,0.93066406,-0.053710938,-51.28125,16.46875,19.4375,0.0,0.0,0.0
743,1695809921520,0.54003906,0.81640625,-0.068359375,-75.25,-22.90625,11.40625,0.0,0.0,0.0
744,1695809921549,0.3857422,0.859375,0.0107421875,-81.25,-36.40625,10.34375,0.0,0.0,0.0
745,1695809921580,0.29492188,0.8574219,-0.07714844,-75.9375,-11.3125,6.21875,0.0,0.0,0.0
746,1695809921639,0.30078125,0.8173828,-0.061523438,-52.5625,11.9375,-3.5,0.0,0.0,0.0
747,1695809921670,0.40234375,0.77246094,-0.028320312,-43.59375,5.34375,-20.28125,0.0,0.0,0.0
748,1695809921698,0.42285156,0.859375,-0.099609375,-38.15625,10.71875,-23.65625,8.875,33.5,-147.1875
749,1695809921760,0.39746094,0.9423828,-0.053710938,-33.6875,38.625,-21.09375,0.0,0.0,0.0
750,1695809921792,0.43945312,0.9404297,0.021484375,-28.3125,42.28125,-18.15625,0.0,0.0,0.0
751,1695809921817,0.56933594,0.82128906,0.036132812,-23.75,5.15625,-16.0,0.0,0.0,0.0
752,1695809921879,0.71191406,1.0615234,0.09375,-17.59375,-0.5625,-0.75,0.0,0.0,0.0
753,1695809921910,0.765625,1.0996094,0.10058594,-1.46875,-36.34375,13.34375,0.0,0.0,0.0
754,1695809921940,0.4970703,1.0263672,0.11621094,43.34375,-74.78125,7.65625,0.0,0.0,0.0
755,1695809922000,0.20898438,0.9404297,-0.03515625,84.40625,-103.21875,0.96875,0.0,0.0,0.0
756,1695809922030,0.43066406,1.1835938,-0.046875,97.90625,-82.0,11.625,0.0,0.0,0.0
757,1695809922062,0.39941406,0.95703125,-0.038085938,91.625,-85.03125,24.6875,0.0,0.0,0.0
758,1695809922120,0.37109375,1.0380859,-0.17089844,78.1875,-95.125,17.6875,0.0,0.0,0.0
759,1695809922150,0.41015625,0.93652344,-0.25195312,64.34375,-89.8125,7.1875,0.0,0.0,0.0
760,1695809922181,0.30273438,0.8671875,-0.26757812,52.5,-88.28125,18.65625,0.0,0.0,0.0
761,1695809922240,0.3515625,0.7138672,-0.20214844,28.5625,-75.78125,39.46875,3.125,28.5625,-168.1875
762,1695809922269,0.23242188,0.6201172,-0.21679688,-23.5625,-88.21875,36.40625,0.0,0.0,0.0
763,1695809922301,0.14648438,0.6699219,-0.26464844,-49.8125,-60.25,23.71875,0.0,0.0,0.0
764,1695809922362,0.2529297,0.55078125,-0.27441406,-69.09375,-53.625,11.8125,0.0,0.0,0.0
765,1695809922390,0.3173828,0.6816406,-0.43652344,-89.78125,-42.8125,1.125,0.0,0.0,0.0
766,1695809922424,0.421875,1.0019531,-0.46484375,-62.625,-42.5,16.09375,0.0,0.0,0.0
767,1695809922512,0.20019531,1.1621094,-0.5751953,-8.59375,-50.375,34.46875,0.0,0.0,0.0
768,1695809922517,0.38867188,0.57128906,-0.35742188,20.6875,-51.65625,24.34375,0.0,0.0,0.0
769,1695809922541,0.48535156,1.4804688,-0.18847656,-41.5,-26.5,24.75,0.0,0.0,0.0
770,1695809922600,0.41210938,1.2158203,-0.36914062,-25.5625,-48.4375,9.4375,0.0,0.0,0.0
771,1695809922628,0.3828125,0.74902344,0.030273438,-45.90625,-27.625,14.8125,0.0,0.0,0.0
772,1695809922658,0.46972656,0.8847656,0.0703125,-46.8125,-38.34375,12.5625,0.0,0.0,0.0
773,1695809922720,0.47558594,1.0878906,-0.07421875,-62.9375,-20.65625,27.1875,-6.625,31.0625,-164.75
774,1695809922751,0.36132812,0.9003906,-0.13671875,-58.53125,-14.5625,24.40625,0.0,0.0,0.0
775,1695809922778,0.3779297,0.77734375,-0.1171875,-44.125,-4.46875,17.96875,0.0,0.0,0.0
776,1695809922838,0.48828125,0.8232422,-0.0234375,-37.40625,-4.125,10.90625,0.0,0.0,0.0
777,1695809922869,0.41308594,0.90527344,-0.02734375,-48.71875,-3.125,8.53125,0.0,0.0,0.0
778,1695809922898,0.3642578,0.8955078,-0.10058594,-50.78125,8.59375,-0.4375,0.0,0.0,0.0
779,1695809922959,0.32714844,0.8544922,-0.064453125,-39.1875,17.25,-13.5,0.0,0.0,0.0
780,1695809922988,0.35351562,0.8261719,-0.12109375,-33.4375,13.65625,-24.0625,0.0,0.0,0.0
781,1695809923020,0.24511719,0.9042969,-0.17382812,-29.40625,25.90625,-23.53125,0.0,0.0,0.0
782,1695809923079,0.3466797,0.9111328,-0.22558594,-16.78125,32.3125,-19.0,0.0,0.0,0.0
783,1695809923114,0.36523438,0.90625,-0.12695312,2.3125,47.15625,-10.15625,0.0,0.0,0.0
784,1695809923139,0.63183594,0.8828125,0.203125,28.375,28.1875,-28.28125,0.0,0.0,0.0
785,1695809923202,0.51171875,1.5136719,0.31835938,-12.375,-5.625,-14.0625,0.0,0.0,0.0
786,1695809923230,0.33203125,1.1816406,0.30273438,1.53125,13.09375,-3.25,-6.875,37.0625,-154.125
787,1695809923262,0.4970703,0.8964844,0.14648438,18.5,8.9375,-14.84375,0.0,0.0,0.0
788,1695809923321,0.31347656,0.8515625,0.024414062,26.5625,-44.46875,-11.0625,0.0,0.0,0.0
789,1695809923354,0.17480469,0.86328125,0.0390625,57.3125,-61.5,3.09375,0.0,0.0,0.0
790,1695809923380,0.29296875,0.90722656,0.037109375,66.84375,-60.75,6.4375,0.0,0.0,0.0
791,1695809923443,0.3779297,0.9658203,-0.0546875,64.625,-76.5625,4.8125,0.0,0.0,0.0
792,1695809923471,0.30859375,1.0117188,-0.16796875,66.15625,-81.8125,17.8125,0.0,0.0,0.0
793,1695809923502,0.3955078,0.85253906,-0.19335938,54.8125,-75.34375,31.71875,0.0,0.0,0.0
794,1695809923563,0.34765625,0.8515625,-0.26367188,26.125,-81.8125,46.125,0.0,0.0,0.0
795,1695809923588,0.32714844,0.8232422,-0.27734375,8.59375,-85.21875,39.28125,0.0,0.0,0.0
796,1695809923648,0.2685547,0.7421875,-0.19726562,-11.0,-73.25,31.96875,0.0,0.0,0.0
797,1695809923680,0.18847656,0.6464844,-0.23242188,-28.1875,-67.78125,14.625,0.0,0.0,0.0
798,1695809923708,0.15625,0.6328125,-0.3779297,-44.96875,-45.25,1.5,-13.8125,32.4375,-166.125
799,1695809923738,0.42285156,0.7519531,-0.4794922,-45.09375,-37.625,7.84375,0.0,0.0,0.0
800,1695809923799,0.45410156,0.9345703,-0.33984375,10.25,-52.03125,40.5,0.0,0.0,0.0
801,1695809923828,0.3359375,0.8017578,-0.4814453,-1.84375,-60.09375,53.5625,0.0,0.0,0.0
802,1695809923860,0.23144531,1.0371094,-0.4501953,-42.40625,-43.0625,65.21875,0.0,0.0,0.0
803,1695809923918,0.5986328,1.75,0.19238281,-35.40625,-65.15625,39.84375,0.0,0.0,0.0
804,1695809923950,0.4404297,1.0068359,-0.21777344,1.21875,-87.78125,10.59375,0.0,0.0,0.0
805,1695809923980,0.13183594,0.90722656,-0.11035156,17.9375,28.65625,34.59375,0.0,0.0,0.0
806,1695809924038,0.41601562,1.0009766,-0.109375,-13.84375,36.21875,29.875,0.0,0.0,0.0
807,1695809924068,0.42382812,0.8925781,-0.025390625,-28.8125,52.21875,12.4375,0.0,0.0,0.0
808,1695809924098,0.37597656,0.81640625,-0.0546875,-48.09375,-0.875,-5.5625,0.0,0.0,0.0
809,1695809924160,0.43652344,0.8388672,-0.091796875,-55.78125,-14.0625,1.6875,0.0,0.0,0.0
810,1695809924192,0.4482422,0.8925781,-0.05859375,-32.59375,-3.8125,6.6875,0.0,0.0,0.0
811,1695809924220,0.45898438,0.8955078,-0.08984375,-18.25,-8.75,4.6875,-12.3125,33.5,-159.5
812,1695809924280,0.48046875,0.86816406,-0.044921875,-13.0625,-8.15625,-0.9375,0.0,0.0,0.0
813,1695809924310,0.35253906,0.87597656,-0.15234375,-29.96875,2.25,-6.5,0.0,0.0,0.0
814,1695809924342,0.39160156,0.9892578,-0.10449219,-21.3125,31.84375,-8.6875,0.0,0.0,0.0
815,1695809924400,0.35546875,1.0341797,-0.037109375,-9.40625,46.0625,-19.4375,0.0,0.0,0.0
816,1695809924430,0.4169922,0.84375,0.0029296875,19.46875,59.4375,-20.53125,0.0,0.0,0.0
817,1695809924460,0.41308594,0.8544922,-0.056640625,14.96875,57.21875,-12.28125,0.0,0.0,0.0
818,1695809924520,0.50097656,0.8886719,0.026367188,9.46875,50.28125,-7.09375,0.0,0.0,0.0
819,1695809924550,0.43847656,0.9765625,0.036132812,-0.1875,33.90625,-13.28125,0.0,0.0,0.0
820,1695809924579,0.33984375,0.9091797,0.07519531,-3.125,28.78125,-19.90625,0.0,0.0,0.0
821,1695809924640,0.27539062,0.90234375,0.07519531,-1.71875,19.03125,-22.84375,0.0,0.0,0.0
822,1695809924670,0.25878906,0.97265625,0.0009765625,12.375,20.375,-17.40625,0.0,0.0,0.0
823,1695809924697,0.3466797,1.0654297,-0.041992188,24.0625,30.5625,-11.6875,-12.625,34.6875,-156.5
824,1695809924759,0.34570312,0.9326172,0.009765625,30.625,35.4375,-11.1875,0.0,0.0,0.0
825,1695809924790,0.39453125,0.9189453,-0.08886719,22.65625,19.5,-17.125,0.0,0.0,0.0
826,1695809924821,0.34375,0.9511719,-0.107421875,17.9375,16.40625,-18.15625,0.0,0.0,0.0
827,1695809924879,0.2861328,0.9189453,-0.15527344,22.34375,31.15625,-13.5,0.0,0.0,0.0
828,1695809924913,0.31835938,0.93359375,-0.14453125,28.125,36.90625,-8.875,0.0,0.0,0.0
829,1695809924939,0.3330078,0.9394531,-0.14648438,33.5,27.0,-6.25,0.0,0.0,0.0
830,1695809924999,0.36914062,0.95214844,-0.15820312,39.5,16.28125,-3.5625,0.0,0.0,0.0
831,1695809925028,0.33203125,0.8798828,-0.24902344,31.375,3.03125,-5.75,0.0,0.0,0.0
832,1695809925058,0.2861328,0.9501953,-0.25683594,14.65625,-7.53125,-1.25,0.0,0.0,0.0
833,1695809925118,0.21875,0.93847656,-0.22753906,29.1875,-22.125,7.96875,0.0,0.0,0.0
834,1695809925149,0.2109375,0.87597656,-0.1640625,35.71875,-30.0625,11.8125,0.0,0.0,0.0
835,1695809925178,0.20214844,0.77246094,-0.16796875,35.53125,-27.625,14.1875,0.0,0.0,0.0
836,1695809925238,0.32617188,0.90722656,-0.3076172,8.78125,-27.71875,9.625,-12.3125,31.0625,-164.0
837,1695809925269,0.21582031,0.796875,-0.25976562,31.90625,-21.3125,11.15625,0.0,0.0,0.0
838,1695809925298,0.23730469,0.7216797,-0.33496094,20.5625,-19.6875,12.75,0.0,0.0,0.0
839,1695809925357,0.21582031,0.93847656,-0.25976562,44.125,-21.375,18.84375,0.0,0.0,0.0
840,1695809925388,0.25585938,0.5625,-0.31054688,30.28125,-31.9375,10.96875,0.0,0.0,0.0
841,1695809925419,0.19921875,0.70703125,-0.45507812,47.375,-18.875,15.90625,0.0,0.0,0.0
842,1695809925483,0.23632812,0.56640625,-0.36328125,73.375,-15.78125,23.1875,0.0,0.0,0.0
843,1695809925512,0.23339844,0.78125,-0.5878906,78.6875,-35.78125,22.625,0.0,0.0,0.0
844,1695809925542,0.390625,0.48242188,-0.4091797,56.40625,-26.75,18.65625,0.0,0.0,0.0
845,1695809925600,0.31152344,0.6826172,-0.6855469,80.375,-45.875,17.0,0.0,0.0,0.0
846,1695809925630,0.27929688,0.6357422,-0.57910156,81.0,-37.5625,19.875,0.0,0.0,0.0
847,1695809925660,0.24023438,0.65722656,-0.7558594,79.84375,-24.6875,14.6875,0.0,0.0,0.0
848,1695809925720,0.37402344,0.53125,-0.8173828,72.9375,-9.375,14.25,-18.0,13.5625,-177.9375
849,1695809925751,0.3408203,0.5371094,-0.7421875,72.5,-20.84375,11.28125,0.0,0.0,0.0
850,1695809925777,0.33789062,0.48632812,-0.8691406,75.25,-15.84375,7.96875,0.0,0.0,0.0
851,1695809925838,0.34277344,0.50097656,-0.9042969,64.28125,-10.46875,12.375,0.0,0.0,0.0
852,1695809925868,0.36523438,0.48046875,-0.9423828,56.875,-7.59375,9.75,0.0,0.0,0.0
853,1695809925928,0.4013672,0.5029297,-1.0029297,52.90625,-5.09375,10.40625,0.0,0.0,0.0
854,1695809925960,0.39160156,0.4248047,-1.0332031,46.21875,-7.46875,11.15625,0.0,0.0,0.0
855,1695809925987,0.40625,0.3935547,-0.9951172,42.84375,-4.65625,13.71875,0.0,0.0,0.0
856,1695809926018,0.39648438,0.41601562,-0.9892578,39.1875,1.4375,7.71875,0.0,0.0,0.0
857,1695809926082,0.40039062,0.36816406,-1.0761719,33.25,10.59375,6.75,0.0,0.0,0.0
858,1695809926108,0.43945312,0.3779297,-1.0966797,29.28125,-0.9375,3.21875,0.0,0.0,0.0
859,1695809926138,0.43652344,0.33398438,-1.1035156,21.90625,0.34375,0.03125,0.0,0.0,0.0
860,1695809926198,0.45117188,0.32421875,-1.1181641,3.96875,2.96875,-4.0,0.0,0.0,0.0
861,1695809926228,0.43066406,0.31640625,-1.1513672,-7.5625,3.625,-6.375,-20.375,-7.75,-177.625
862,1695809926259,0.42382812,0.31933594,-1.1494141,-20.5,5.65625,-6.5625,0.0,0.0,0.0
863,1695809926318,0.45214844,0.30273438,-1.0751953,-33.03125,8.28125,-6.78125,0.0,0.0,0.0
864,1695809926348,0.38085938,0.38183594,-1.0205078,-40.46875,13.34375,-8.625,0.0,0.0,0.0
865,1695809926378,0.4248047,0.34277344,-1.015625,-46.625,18.53125,-10.53125,0.0,0.0,0.0
866,1695809926438,0.3642578,0.4345703,-1.0097656,-51.34375,19.375,-11.1875,0.0,0.0,0.0
867,1695809926467,0.43359375,0.39648438,-0.9501953,-55.71875,23.46875,-13.9375,0.0,0.0,0.0
868,1695809926497,0.38671875,0.49121094,-0.87597656,-60.71875,24.875,-15.03125,0.0,0.0,0.0
869,1695809926558,0.38671875,0.5810547,-0.92871094,-61.34375,28.78125,-20.15625,0.0,0.0,0.0
870,1695809926587,0.3408203,0.5830078,-0.91015625,-69.15625,35.25,-25.03125,0.0,0.0,0.0
871,1695809926617,0.37695312,0.4873047,-0.8544922,-68.90625,45.09375,-23.59375,0.0,0.0,0.0
872,1695809926678,0.45214844,0.5234375,-0.7714844,-73.375,45.75,-25.65625,0.0,0.0,0.0
873,1695809926709,0.46875,0.45507812,-0.7998047,-95.71875,38.84375,-29.5625,-12.3125,14.3125,-179.0
874,1695809926737,0.359375,0.42871094,-0.6464844,-102.65625,31.90625,-33.28125,0.0,0.0,0.0
875,1695809926797,0.31347656,0.49023438,-0.6357422,-103.53125,17.25,-30.96875,0.0,0.0,0.0
876,1695809926827,0.34960938,0.50878906,-0.4736328,-103.46875,7.65625,-31.75,0.0,0.0,0.0
877,1695809926858,0.2529297,0.6894531,-0.3515625,-82.53125,-3.875,-23.34375,0.0,0.0,0.0
878,1695809926918,0.18261719,0.69433594,-0.18261719,-53.40625,27.5625,-3.6875,0.0,0.0,0.0
879,1695809926948,0.15917969,0.7265625,-0.13085938,-37.65625,46.65625,12.625,0.0,0.0,0.0
880,1695809926977,0.17089844,0.80859375,-0.11328125,-32.78125,67.3125,19.5625,0.0,0.0,0.0
881,1695809927037,0.33984375,0.73339844,0.00390625,-36.4375,79.875,13.28125,0.0,0.0,0.0
882,1695809927067,0.46679688,0.9160156,0.0146484375,-52.96875,41.0625,-1.3125,0.0,0.0,0.0
883,1695809927096,0.30078125,0.8720703,-0.032226562,-40.46875,36.21875,-10.03125,0.0,0.0,0.0
884,1695809927157,0.46972656,0.8876953,-0.055664062,-29.46875,72.4375,-8.875,0.0,0.0,0.0
885,1695809927186,0.5576172,0.7949219,-0.028320312,-17.59375,64.0,-11.5,0.0,0.0,0.0
886,1695809927216,0.6191406,0.7753906,-0.01171875,-22.03125,41.59375,-22.71875,-2.125,31.25,-158.0
887,1695809927278,0.546875,0.8623047,-0.060546875,-30.625,33.84375,-18.40625,0.0,0.0,0.0
888,1695809927309,0.3955078,0.8496094,-0.057617188,-28.6875,35.3125,-19.1875,0.0,0.0,0.0
889,1695809927337,0.4013672,0.8574219,-0.07519531,-13.6875,45.375,-26.75,0.0,0.0,0.0
890,1695809927397,0.48242188,0.89746094,-0.044921875,6.15625,53.03125,-31.03125,0.0,0.0,0.0
891,1695809927429,0.5644531,0.83691406,0.03515625,-2.4375,37.9375,-24.5625,0.0,0.0,0.0
892,1695809927460,0.58496094,0.85253906,0.06933594,-10.0625,41.25,-18.34375,0.0,0.0,0.0
893,1695809927516,0.54785156,1.1083984,0.099609375,-5.5,33.3125,-11.5625,0.0,0.0,0.0
894,1695809927546,0.52441406,1.0527344,-0.02734375,29.46875,20.59375,-1.1875,0.0,0.0,0.0
895,1695809927577,0.43066406,0.9326172,0.09082031,42.71875,17.8125,-6.5,0.0,0.0,0.0
