,timestamp,accel_x,accel_y,accel_z,gyro_x,gyro_y,gyro_z,mag_x,mag_y,mag_z
0,1695809495398,0.29882812,-0.026367188,-0.98535156,0.25,0.03125,-0.5625,0.0,0.0,0.0
1,1695809495430,0.29882812,-0.0234375,-0.9736328,0.25,0.28125,-0.4375,0.0,0.0,0.0
2,1695809495488,0.29882812,-0.017578125,-0.9951172,0.125,0.15625,-0.8125,0.0,0.0,0.0
3,1695809495518,0.30566406,-0.009765625,-0.98046875,0.25,0.21875,-0.5625,0.0,0.0,0.0
4,1695809495549,0.3046875,-0.018554688,-0.97753906,0.125,-0.28125,-0.625,0.0,0.0,0.0
5,1695809495609,0.3046875,-0.0234375,-0.99121094,0.375,-0.03125,-0.6875,0.0,0.0,0.0
6,1695809495639,0.29589844,-0.01953125,-0.96972656,-0.25,-0.4375,-0.6875,0.0,0.0,0.0
7,1695809495669,0.30273438,-0.0107421875,-0.9921875,0.25,-0.5625,-1.0625,0.0,0.0,0.0
8,1695809495730,0.2890625,-0.021484375,-0.98339844,-0.125,-0.21875,-0.875,-17.6875,-14.6875,-163.6875
9,1695809495759,0.29296875,-0.018554688,-0.97753906,0.0625,-0.28125,-1.0,0.0,0.0,0.0
10,1695809495789,0.30273438,-0.0078125,-0.9892578,0.25,0.34375,-0.8125,0.0,0.0,0.0
11,1695809495849,0.2998047,-0.0146484375,-0.9814453,0.1875,-0.03125,-0.9375,0.0,0.0,0.0
12,1695809495879,0.296875,-0.01171875,-0.9785156,-0.1875,-0.09375,-0.625,0.0,0.0,0.0
13,1695809495909,0.30273438,-0.022460938,-0.9814453,0.25,0.21875,-0.9375,0.0,0.0,0.0
14,1695809495970,0.29589844,-0.018554688,-0.96972656,0.1875,0.09375,-0.6875,0.0,0.0,0.0
15,1695809495999,0.3076172,-0.009765625,-0.97753906,-0.25,-0.40625,-0.9375,0.0,0.0,0.0
16,1695809496030,0.29882812,-0.0146484375,-0.9824219,0.0625,0.46875,-0.625,0.0,0.0,0.0
17,1695809496092,0.2919922,-0.016601562,-0.9667969,-0.1875,-0.15625,-0.8125,0.0,0.0,0.0
18,1695809496123,0.30566406,-0.020507812,-0.98046875,0.0,-0.03125,-0.8125,0.0,0.0,0.0
19,1695809496152,0.29589844,-0.018554688,-0.9824219,0.125,0.15625,-0.75,0.0,0.0,0.0
20,1695809496209,0.31054688,-0.016601562,-0.96484375,0.375,-0.15625,-0.9375,0.0,0.0,0.0
21,1695809496242,0.29589844,-0.0107421875,-0.9794922,0.0625,0.15625,-0.6875,-17.5625,-13.75,-164.875
22,1695809496272,0.3046875,-0.015625,-0.97558594,0.3125,0.28125,-0.5625,0.0,0.0,0.0
23,1695809496330,0.296875,-0.024414062,-0.9707031,0.25,0.09375,-0.6875,0.0,0.0,0.0
24,1695809496377,0.30273438,-0.0126953125,-0.9873047,0.0625,0.40625,-0.8125,0.0,0.0,0.0
25,1695809496392,0.29296875,-0.016601562,-0.96972656,0.5,0.21875,-0.6875,0.0,0.0,0.0
26,1695809496450,0.3017578,-0.017578125,-0.98339844,0.0625,0.21875,-0.75,0.0,0.0,0.0
27,1695809496487,0.30371094,-0.022460938,-0.9863281,0.71875,0.28125,-0.75,0.0,0.0,0.0
28,1695809496540,0.296875,-0.0126953125,-0.98339844,0.0625,-0.15625,-0.5625,0.0,0.0,0.0
29,1695809496569,0.3076172,-0.021484375,-0.99316406,0.375,-0.09375,-0.6875,0.0,0.0,0.0
30,1695809496599,0.29785156,-0.018554688,-0.9716797,0.1875,-0.21875,-0.625,0.0,0.0,0.0
31,1695809496660,0.2939453,-0.017578125,-0.99121094,0.0625,-0.28125,-0.75,0.0,0.0,0.0
32,1695809496689,0.30371094,-0.01953125,-0.9941406,0.3125,-0.09375,-0.6875,0.0,0.0,0.0
33,1695809496720,0.30273438,-0.018554688,-0.99902344,-0.125,-0.09375,-0.6875,-17.375,-13.9375,-163.125
34,1695809496749,0.30273438,-0.026367188,-0.9716797,0.3125,0.21875,-0.75,0.0,0.0,0.0
35,1695809496809,0.30566406,-0.020507812,-0.9736328,0.25,0.03125,-0.75,0.0,0.0,0.0
36,1695809496840,0.29882812,-0.022460938,-0.98339844,-0.125,-0.09375,-0.6875,0.0,0.0,0.0
37,1695809496870,0.2998047,-0.013671875,-0.98339844,0.0,-0.21875,-0.625,0.0,0.0,0.0
38,1695809496929,0.3076172,-0.029296875,-0.9785156,0.3125,0.09375,-0.5625,0.0,0.0,0.0
39,1695809496959,0.29882812,-0.013671875,-0.95703125,0.0,-0.15625,-0.6875,0.0,0.0,0.0
40,1695809496989,0.29785156,-0.0146484375,-0.97265625,0.25,-0.15625,-0.8125,0.0,0.0,0.0
41,1695809497049,0.29785156,-0.0107421875,-0.9824219,0.3125,0.09375,-0.6875,0.0,0.0,0.0
42,1695809497080,0.30273438,-0.0107421875,-0.97265625,0.25,-0.03125,-0.75,0.0,0.0,0.0
43,1695809497109,0.2998047,-0.020507812,-0.98046875,0.25,0.15625,-0.625,0.0,0.0,0.0
44,1695809497169,0.29785156,-0.020507812,-0.9707031,0.1875,-0.21875,-0.625,0.0,0.0,0.0
45,1695809497200,0.30566406,-0.017578125,-0.9863281,0.25,0.46875,-0.5625,0.0,0.0,0.0
46,1695809497229,0.2939453,-0.0107421875,-0.9736328,0.375,0.65625,-0.5625,-17.375,-15.125,-164.4375
47,1695809497291,0.29492188,-0.020507812,-0.9736328,0.25,-0.03125,-0.4375,0.0,0.0,0.0
48,1695809497320,0.29589844,-0.0068359375,-0.96777344,0.3125,0.46875,-0.5625,0.0,0.0,0.0
49,1695809497349,0.31445312,-0.025390625,-0.9638672,0.25,0.03125,-0.6875,0.0,0.0,0.0
50,1695809497410,0.29785156,-0.0146484375,-0.9785156,0.25,0.15625,-0.5625,0.0,0.0,0.0
51,1695809497440,0.2998047,-0.029296875,-0.9824219,0.1875,-0.09375,-0.375,0.0,0.0,0.0
52,1695809497470,0.3017578,-0.017578125,-0.9794922,-0.0625,-0.03125,-0.5625,0.0,0.0,0.0
53,1695809497532,0.30371094,-0.020507812,-0.9863281,0.1875,-0.21875,-0.6875,0.0,0.0,0.0
54,1695809497560,0.29589844,-0.017578125,-0.9824219,0.0,-0.09375,-0.6875,0.0,0.0,0.0
55,1695809497589,0.29296875,-0.016601562,-0.98828125,0.0625,-0.28125,-0.625,0.0,0.0,0.0
56,1695809497653,0.29785156,-0.0146484375,-0.98046875,0.3125,-0.09375,-0.5625,0.0,0.0,0.0
57,1695809497680,0.3017578,-0.013671875,-0.98046875,-0.1875,-0.03125,-0.75,0.0,0.0,0.0
58,1695809497712,0.30664062,-0.0146484375,-0.98339844,0.375,-0.09375,-0.8125,-18.0,-14.375,-165.0625
59,1695809497771,0.29296875,-0.0234375,-0.97753906,0.25,-0.09375,-0.75,0.0,0.0,0.0
60,1695809497800,0.31445312,-0.01953125,-0.98339844,0.1875,-0.03125,-0.5625,0.0,0.0,0.0
61,1695809497832,0.30273438,-0.024414062,-0.9785156,0.375,-0.28125,-0.6875,0.0,0.0,0.0
62,1695809497891,0.2919922,-0.020507812,-0.9746094,0.125,0.28125,-0.5625,0.0,0.0,0.0
63,1695809497919,0.31054688,-0.017578125,-0.98828125,0.375,-0.03125,-0.9375,0.0,0.0,0.0
64,1695809497950,0.2939453,-0.026367188,-0.9589844,0.1875,-0.28125,-0.5,0.0,0.0,0.0
65,1695809498010,0.29003906,-0.015625,-0.9902344,-0.1875,-0.15625,-0.5625,0.0,0.0,0.0
66,1695809498040,0.30566406,-0.0234375,-0.9736328,0.65625,0.21875,-0.5625,0.0,0.0,0.0
67,1695809498070,0.29882812,-0.020507812,-0.9814453,-0.125,0.21875,-0.75,0.0,0.0,0.0
68,1695809498130,0.3046875,-0.018554688,-0.9970703,0.90625,0.34375,-0.625,0.0,0.0,0.0
69,1695809498160,0.29492188,-0.015625,-0.98046875,0.25,0.09375,-0.4375,0.0,0.0,0.0
70,1695809498189,0.3046875,-0.017578125,-0.98339844,0.4375,0.15625,-0.75,0.0,0.0,0.0
71,1695809498250,0.29296875,-0.013671875,-0.9814453,0.375,0.09375,-0.4375,-18.0,-13.9375,-164.4375
72,1695809498279,0.30273438,-0.015625,-0.98535156,0.125,-0.28125,-0.4375,0.0,0.0,0.0
73,1695809498310,0.30273438,-0.01953125,-0.9658203,0.5,0.09375,-0.375,0.0,0.0,0.0
74,1695809498372,0.29589844,-0.025390625,-0.9765625,0.0,-0.4375,-0.75,0.0,0.0,0.0
75,1695809498402,0.30371094,-0.0107421875,-0.9785156,0.1875,-0.03125,-1.0625,0.0,0.0,0.0
76,1695809498430,0.29882812,-0.020507812,-0.98046875,0.25,0.03125,-0.9375,0.0,0.0,0.0
77,1695809498490,0.29589844,-0.016601562,-0.98339844,0.25,-0.4375,-0.75,0.0,0.0,0.0
78,1695809498520,0.28222656,-0.016601562,-0.9794922,-0.1875,-0.5625,-0.5625,0.0,0.0,0.0
79,1695809498556,0.29882812,-0.024414062,-0.9892578,0.25,0.03125,-0.8125,0.0,0.0,0.0
80,1695809498610,0.29589844,-0.029296875,-0.9716797,0.625,0.09375,-1.0,0.0,0.0,0.0
81,1695809498642,0.29296875,-0.018554688,-0.97265625,0.25,0.53125,-0.8125,0.0,0.0,0.0
82,1695809498672,0.31054688,-0.017578125,-0.98535156,0.71875,0.15625,-0.8125,0.0,0.0,0.0
83,1695809498732,0.3017578,-0.021484375,-0.9892578,-0.0625,0.03125,-0.6875,-18.4375,-13.625,-164.75
84,1695809498766,0.30273438,-0.021484375,-0.984375,0.1875,-0.5625,-0.6875,0.0,0.0,0.0
85,1695809498820,0.29492188,-0.01953125,-0.9794922,0.1875,-0.03125,-0.625,0.0,0.0,0.0
86,1695809498850,0.29882812,-0.016601562,-0.9892578,0.125,-0.03125,-0.875,0.0,0.0,0.0
87,1695809498882,0.29882812,-0.025390625,-0.96484375,0.625,0.53125,-0.9375,0.0,0.0,0.0
88,1695809498912,0.30273438,-0.018554688,-0.98339844,-0.0625,-0.15625,-0.9375,0.0,0.0,0.0
89,1695809498972,0.296875,-0.024414062,-0.97558594,0.84375,0.71875,-0.5625,0.0,0.0,0.0
90,1695809499009,0.2998047,-0.016601562,-0.98535156,0.0,-0.15625,-0.4375,0.0,0.0,0.0
91,1695809499032,0.2998047,-0.016601562,-0.984375,0.0625,0.09375,-0.5,0.0,0.0,0.0
92,1695809499093,0.29882812,-0.015625,-0.9902344,0.1875,0.03125,-0.5,0.0,0.0,0.0
93,1695809499123,0.29882812,-0.015625,-0.9785156,0.375,-0.28125,-0.5625,0.0,0.0,0.0
94,1695809499151,0.2890625,-0.0078125,-0.98339844,0.125,-0.34375,-0.6875,0.0,0.0,0.0
95,1695809499213,0.29101562,-0.025390625,-0.9765625,0.3125,-0.625,-0.8125,0.0,0.0,0.0
96,1695809499243,0.3017578,-0.017578125,-0.9980469,-0.3125,-0.34375,-1.0625,-18.3125,-13.4375,-163.5625
97,1695809499272,0.30664062,-0.020507812,-0.9794922,0.1875,-0.34375,-1.0625,0.0,0.0,0.0
98,1695809499330,0.3076172,-0.015625,-0.984375,0.125,-0.34375,-0.875,0.0,0.0,0.0
99,1695809499363,0.29785156,-0.0087890625,-0.98828125,-0.25,-0.4375,-0.6875,0.0,0.0,0.0
100,1695809499393,0.29882812,-0.026367188,-0.9824219,0.0,0.03125,-0.875,0.0,0.0,0.0
101,1695809499453,0.29492188,-0.017578125,-0.9736328,-0.5,-0.5,-1.0625,0.0,0.0,0.0
102,1695809499481,0.29785156,-0.021484375,-0.984375,-0.25,-0.15625,-1.125,0.0,0.0,0.0
103,1695809499511,0.3017578,-0.024414062,-0.9921875,0.1875,-0.15625,-1.0,0.0,0.0,0.0
104,1695809499572,0.29589844,-0.013671875,-0.9814453,-0.125,-0.03125,-1.0,0.0,0.0,0.0
105,1695809499600,0.29003906,-0.020507812,-0.96972656,0.4375,0.28125,-0.75,0.0,0.0,0.0
106,1695809499629,0.29492188,-0.009765625,-0.98046875,-0.4375,-0.21875,-1.0,0.0,0.0,0.0
107,1695809499692,0.29882812,-0.016601562,-0.9785156,0.4375,0.65625,-0.75,0.0,0.0,0.0
108,1695809499721,0.29492188,-0.0234375,-0.96972656,-0.125,0.21875,-0.8125,-18.625,-14.5,-163.5625
109,1695809499752,0.3076172,-0.009765625,-0.9765625,0.125,0.03125,-1.125,0.0,0.0,0.0
110,1695809499813,0.3046875,-0.016601562,-0.98828125,0.5625,0.03125,-0.9375,0.0,0.0,0.0
111,1695809499844,0.30371094,-0.018554688,-0.9746094,0.1875,-0.40625,-1.0,0.0,0.0,0.0
112,1695809499871,0.30273438,-0.025390625,-0.9765625,0.1875,-0.09375,-0.8125,0.0,0.0,0.0
113,1695809499932,0.29882812,-0.013671875,-0.97558594,0.0625,-0.6875,-0.875,0.0,0.0,0.0
114,1695809499962,0.2939453,-0.016601562,-0.98339844,0.625,-0.28125,-0.875,0.0,0.0,0.0
115,1695809499991,0.28808594,-0.009765625,-0.9863281,0.125,-0.09375,-0.8125,0.0,0.0,0.0
116,1695809500052,0.3095703,-0.029296875,-0.9736328,0.1875,-0.03125,-1.125,0.0,0.0,0.0
117,1695809500080,0.30273438,-0.01171875,-0.984375,-0.25,-0.09375,-1.0,0.0,0.0,0.0
118,1695809500110,0.3017578,-0.025390625,-0.9873047,0.125,-0.4375,-1.25,0.0,0.0,0.0
119,1695809500172,0.3076172,-0.013671875,-0.9941406,0.25,-0.09375,-0.9375,0.0,0.0,0.0
120,1695809500201,0.30078125,-0.017578125,-0.9785156,0.4375,-0.03125,-1.0,0.0,0.0,0.0
121,1695809500232,0.29785156,-0.01953125,-0.98535156,0.0625,0.03125,-0.9375,-17.5625,-13.4375,-164.875
122,1695809500292,0.3017578,-0.0068359375,-0.98046875,0.3125,0.28125,-0.9375,0.0,0.0,0.0
123,1695809500322,0.30664062,-0.016601562,-0.9873047,0.0625,-0.09375,-0.8125,0.0,0.0,0.0
124,1695809500350,0.296875,-0.015625,-0.984375,-0.125,0.28125,-0.9375,0.0,0.0,0.0
125,1695809500412,0.29785156,-0.017578125,-0.9892578,0.25,0.21875,-0.875,0.0,0.0,0.0
126,1695809500440,0.30078125,-0.0126953125,-0.9794922,0.4375,0.53125,-0.875,0.0,0.0,0.0
127,1695809500472,0.30371094,-0.0087890625,-0.97265625,0.4375,-0.03125,-1.0,0.0,0.0,0.0
128,1695809500535,0.2919922,-0.018554688,-0.9794922,0.1875,-0.09375,-0.8125,0.0,0.0,0.0
129,1695809500561,0.2939453,-0.026367188,-0.9824219,0.3125,-0.21875,-0.75,0.0,0.0,0.0
130,1695809500591,0.296875,-0.01953125,-0.9794922,0.3125,-0.21875,-0.625,0.0,0.0,0.0
131,1695809500651,0.29785156,-0.018554688,-0.984375,0.375,0.03125,-0.75,0.0,0.0,0.0
132,1695809500682,0.2998047,-0.026367188,-0.9765625,0.1875,-0.21875,-0.75,0.0,0.0,0.0
133,1695809500710,0.296875,-0.017578125,-0.9814453,0.1875,-0.21875,-0.75,-17.375,-14.6875,-164.75
134,1695809500771,0.30371094,-0.021484375,-0.98535156,0.4375,-0.15625,-0.75,0.0,0.0,0.0
135,1695809500800,0.3017578,-0.0107421875,-0.9746094,0.25,0.03125,-0.625,0.0,0.0,0.0
136,1695809500832,0.29296875,-0.020507812,-0.9746094,0.4375,-0.28125,-0.75,0.0,0.0,0.0
137,1695809500891,0.29003906,-0.0107421875,-0.9707031,0.0625,-0.09375,-0.5,0.0,0.0,0.0
138,1695809500924,0.30371094,-0.018554688,-0.9824219,0.5,-0.03125,-0.6875,0.0,0.0,0.0
139,1695809500953,0.29882812,-0.020507812,-0.9902344,0.625,0.59375,-0.4375,0.0,0.0,0.0
140,1695809501014,0.29589844,-0.0126953125,-0.984375,0.125,-0.03125,-0.75,0.0,0.0,0.0
141,1695809501044,0.2998047,-0.0146484375,-0.984375,0.4375,0.53125,-0.3125,0.0,0.0,0.0
142,1695809501102,0.29785156,-0.005859375,-0.984375,0.78125,0.03125,-0.375,0.0,0.0,0.0
143,1695809501132,0.3017578,-0.01953125,-0.9892578,0.5625,0.03125,-0.375,0.0,0.0,0.0
144,1695809501163,0.29589844,0.0009765625,-0.97265625,0.1875,-0.4375,-0.5,0.0,0.0,0.0
145,1695809501193,0.2939453,-0.026367188,-0.9824219,0.1875,-0.4375,-0.375,0.0,0.0,0.0
146,1695809501251,0.29296875,-0.016601562,-0.97558594,0.3125,-0.875,-0.5625,-17.5625,-14.5,-164.3125
147,1695809501285,0.2939453,-0.017578125,-0.98046875,0.25,-0.28125,-0.6875,0.0,0.0,0.0
148,1695809501312,0.3046875,-0.0146484375,-0.9707031,0.0625,-0.28125,-0.625,0.0,0.0,0.0
149,1695809501372,0.29492188,-0.0146484375,-0.9921875,0.5625,-0.28125,-0.8125,0.0,0.0,0.0
150,1695809501404,0.29296875,-0.01953125,-0.9628906,0.25,0.03125,-0.6875,0.0,0.0,0.0
151,1695809501433,0.296875,-0.015625,-0.97265625,0.0625,0.15625,-0.9375,0.0,0.0,0.0
152,1695809501492,0.296875,-0.017578125,-0.9863281,0.25,0.03125,-0.6875,0.0,0.0,0.0
153,1695809501528,0.29296875,-0.013671875,-0.9824219,0.1875,-0.5,-0.5625,0.0,0.0,0.0
154,1695809501557,0.29882812,-0.016601562,-0.984375,0.0,-0.34375,-0.625,0.0,0.0,0.0
155,1695809501611,0.29785156,-0.020507812,-0.9707031,0.625,-0.40625,-0.6875,0.0,0.0,0.0
156,1695809501641,0.2998047,-0.01953125,-0.9951172,0.25,0.21875,-0.6875,0.0,0.0,0.0
157,1695809501672,0.296875,-0.018554688,-0.97265625,0.71875,0.59375,-0.875,0.0,0.0,0.0
158,1695809501730,0.3046875,-0.0126953125,-0.9814453,0.1875,-0.03125,-0.6875,-18.75,-13.9375,-165.0625
159,1695809501762,0.3017578,-0.022460938,-0.9794922,0.625,0.46875,-0.5,0.0,0.0,0.0
160,1695809501792,0.3017578,-0.015625,-0.9814453,0.5625,0.21875,-0.5,0.0,0.0,0.0
161,1695809501852,0.30566406,-0.0146484375,-1.0058594,0.1875,-0.15625,-0.3125,0.0,0.0,0.0
162,1695809501882,0.29492188,-0.0146484375,-0.97265625,0.5,-0.28125,-0.5625,0.0,0.0,0.0
163,1695809501912,0.2998047,-0.01953125,-0.9863281,0.65625,0.09375,-0.6875,0.0,0.0,0.0
164,1695809501972,0.28710938,-0.0126953125,-0.98535156,0.125,0.03125,-0.875,0.0,0.0,0.0
165,1695809502001,0.3017578,-0.01953125,-0.984375,0.84375,0.03125,-0.625,0.0,0.0,0.0
166,1695809502032,0.2939453,-0.029296875,-0.9863281,0.0,-0.28125,-0.5,0.0,0.0,0.0
167,1695809502098,0.29589844,-0.0234375,-0.9863281,0.0625,-0.28125,-0.625,0.0,0.0,0.0
168,1695809502120,0.29492188,-0.01953125,-0.97753906,0.3125,0.03125,-0.625,0.0,0.0,0.0
169,1695809502149,0.28808594,-0.0126953125,-0.9785156,0.375,-0.21875,-0.8125,0.0,0.0,0.0
170,1695809502212,0.2939453,-0.0107421875,-0.9873047,0.4375,0.21875,-0.875,0.0,0.0,0.0
171,1695809502241,0.29785156,-0.028320312,-0.9824219,0.1875,0.03125,-0.625,-17.6875,-14.375,-164.4375
172,1695809502271,0.296875,-0.009765625,-0.9824219,0.4375,-0.15625,-0.75,0.0,0.0,0.0
173,1695809502333,0.29492188,-0.018554688,-0.98046875,0.1875,0.15625,-0.5625,0.0,0.0,0.0
174,1695809502362,0.29589844,-0.015625,-0.9941406,-0.0625,-0.21875,-0.8125,0.0,0.0,0.0
175,1695809502391,0.29785156,-0.0107421875,-0.9873047,0.5,0.46875,-0.5625,0.0,0.0,0.0
176,1695809502457,0.30371094,-0.009765625,-0.97753906,0.1875,-0.15625,-0.8125,0.0,0.0,0.0
177,1695809502481,0.296875,-0.015625,-0.9902344,0.3125,0.46875,-0.5625,0.0,0.0,0.0
178,1695809502515,0.2919922,-0.01953125,-0.97558594,0.4375,0.09375,-0.5,0.0,0.0,0.0
179,1695809502572,0.29589844,-0.01171875,-0.9746094,0.5625,0.03125,-0.5,0.0,0.0,0.0
180,1695809502603,0.296875,-0.021484375,-0.97753906,0.1875,-0.28125,-0.5,0.0,0.0,0.0
181,1695809502632,0.296875,-0.016601562,-0.96875,0.5625,-0.21875,-0.5625,0.0,0.0,0.0
182,1695809502691,0.29296875,-0.020507812,-0.9785156,0.125,-0.03125,-0.625,0.0,0.0,0.0
183,1695809502721,0.2998047,-0.0068359375,-0.9941406,0.3125,-0.34375,-0.875,-16.9375,-13.625,-164.0
184,1695809502750,0.2890625,-0.022460938,-0.96484375,0.4375,0.21875,-0.6875,0.0,0.0,0.0
185,1695809502812,0.29492188,-0.0107421875,-0.9921875,-0.25,-0.28125,-0.875,0.0,0.0,0.0
186,1695809502842,0.30273438,-0.015625,-0.9765625,0.5625,-0.15625,-0.8125,0.0,0.0,0.0
187,1695809502872,0.296875,-0.0087890625,-0.9824219,0.0625,0.09375,-0.75,0.0,0.0,0.0
188,1695809502932,0.29589844,-0.0146484375,-0.9824219,0.25,-0.34375,-0.875,0.0,0.0,0.0
189,1695809502960,0.2890625,-0.022460938,-0.9785156,0.25,0.15625,-0.6875,0.0,0.0,0.0
190,1695809502991,0.2998047,-0.0107421875,-0.9736328,0.1875,-0.03125,-0.9375,0.0,0.0,0.0
191,1695809503051,0.30859375,-0.01953125,-0.98046875,0.375,-0.09375,-0.6875,0.0,0.0,0.0
192,1695809503087,0.29101562,-0.025390625,-0.9824219,0.25,0.09375,-0.625,0.0,0.0,0.0
193,1695809503112,0.29003906,-0.015625,-0.9794922,-0.0625,-0.28125,-0.625,0.0,0.0,0.0
194,1695809503176,0.2939453,-0.016601562,-0.98828125,0.375,0.09375,-0.6875,0.0,0.0,0.0
195,1695809503204,0.28808594,-0.0107421875,-0.98828125,0.0625,0.03125,-0.75,0.0,0.0,0.0
196,1695809503232,0.2939453,-0.0234375,-0.98339844,0.4375,-0.03125,-0.8125,-17.875,-13.1875,-165.625
197,1695809503290,0.29785156,-0.021484375,-0.98046875,0.4375,0.28125,-0.8125,0.0,0.0,0.0
198,1695809503322,0.30371094,-0.026367188,-0.9824219,-0.0625,-0.03125,-0.75,0.0,0.0,0.0
199,1695809503382,0.29003906,-0.02734375,-0.9765625,0.5,0.15625,-0.75,0.0,0.0,0.0
200,1695809503412,0.28515625,-0.01171875,-0.98046875,-0.25,-0.09375,-0.4375,0.0,0.0,0.0
201,1695809503441,0.2998047,-0.01171875,-0.9970703,0.3125,0.09375,-0.4375,0.0,0.0,0.0
202,1695809503472,0.2998047,-0.016601562,-0.9736328,0.125,0.34375,-0.3125,0.0,0.0,0.0
203,1695809503566,0.30273438,-0.015625,-0.9814453,0.1875,-0.4375,-0.6875,0.0,0.0,0.0
204,1695809503568,0.2939453,-0.0146484375,-0.984375,0.25,0.15625,-0.6875,0.0,0.0,0.0
205,1695809503592,0.296875,-0.017578125,-0.99316406,0.375,0.28125,-0.9375,0.0,0.0,0.0
206,1695809503652,0.29589844,-0.0234375,-0.984375,0.4375,-0.09375,-0.9375,0.0,0.0,0.0
207,1695809503686,0.2861328,-0.0107421875,-0.98339844,-0.3125,-0.03125,-0.8125,0.0,0.0,0.0
208,1695809503712,0.2998047,-0.015625,-0.9707031,0.46875,0.03125,0.0,-17.5625,-14.5,-163.25
209,1695809503771,0.2890625,-0.03125,-0.9746094,-0.09375,-0.15625,-0.125,0.0,0.0,0.0
210,1695809503803,0.30566406,-0.015625,-0.9892578,-0.03125,-0.15625,-0.375,0.0,0.0,0.0
211,1695809503830,0.3017578,-0.033203125,-0.96972656,0.03125,-0.21875,-0.25,0.0,0.0,0.0
212,1695809503892,0.29296875,-0.018554688,-0.98339844,-0.875,-0.40625,-0.1875,0.0,0.0,0.0
213,1695809503955,0.29589844,-0.013671875,-0.97753906,0.09375,-0.09375,-0.25,0.0,0.0,0.0
214,1695809503957,0.28515625,-0.022460938,-0.9814453,-0.5625,-0.34375,0.0,0.0,0.0,0.0
215,1695809504045,0.29003906,-0.016601562,-0.9824219,-0.5,-0.34375,-0.25,0.0,0.0,0.0
216,1695809504048,0.29296875,-0.026367188,-0.9824219,-0.03125,-0.03125,0.0,0.0,0.0,0.0
217,1695809504072,0.2939453,-0.017578125,-0.9736328,-0.4375,-0.15625,-0.4375,0.0,0.0,0.0
218,1695809504132,0.30078125,-0.0078125,-0.98535156,0.03125,0.09375,-0.375,0.0,0.0,0.0
219,1695809504168,0.3017578,-0.013671875,-0.9863281,-0.03125,0.15625,-0.25,0.0,0.0,0.0
220,1695809504190,0.3017578,-0.005859375,-0.98535156,-0.15625,-0.21875,-0.375,0.0,0.0,0.0
221,1695809504286,0.29785156,-0.013671875,-0.9824219,-0.09375,0.25,-0.25,-17.6875,-15.125,-163.125
222,1695809504288,0.29785156,-0.0126953125,-0.9892578,-0.21875,-0.34375,-0.25,0.0,0.0,0.0
223,1695809504310,0.296875,-0.0087890625,-0.9785156,-0.15625,0.25,-0.0625,0.0,0.0,0.0
224,1695809504373,0.30273438,-0.020507812,-0.9824219,-0.15625,0.09375,-0.25,0.0,0.0,0.0
225,1695809504401,0.2919922,-0.017578125,-0.9921875,-0.09375,-0.03125,-0.5625,0.0,0.0,0.0
226,1695809504430,0.2861328,-0.013671875,-0.97753906,0.15625,0.4375,-0.125,0.0,0.0,0.0
227,1695809504490,0.2939453,-0.0078125,-0.9814453,-0.09375,0.25,-0.0625,0.0,0.0,0.0
228,1695809504522,0.29882812,-0.0126953125,-0.9794922,-0.21875,0.21875,0.125,0.0,0.0,0.0
229,1695809504552,0.30273438,-0.015625,-0.9863281,-0.09375,-0.03125,0.125,0.0,0.0,0.0
230,1695809504612,0.29296875,-0.020507812,-0.9824219,-0.21875,-0.15625,0.0,0.0,0.0,0.0
231,1695809504642,0.29785156,-0.0146484375,-0.9716797,-0.09375,-0.03125,0.0,0.0,0.0,0.0
232,1695809504672,0.29101562,-0.021484375,-0.9794922,-0.25,-0.15625,0.0,0.0,0.0,0.0
233,1695809504732,0.2919922,-0.016601562,-0.9736328,-0.09375,-0.09375,-0.4375,-18.0,-13.3125,-163.375
234,1695809504762,0.30859375,-0.013671875,-0.9794922,-0.09375,-0.03125,-0.375,0.0,0.0,0.0
235,1695809504792,0.29296875,-0.009765625,-0.9814453,-0.25,-0.28125,-0.3125,0.0,0.0,0.0
236,1695809504851,0.2890625,-0.015625,-0.98339844,0.28125,-0.09375,-0.125,0.0,0.0,0.0
237,1695809504882,0.30664062,-0.016601562,-0.9824219,0.09375,0.09375,-0.0625,0.0,0.0,0.0
238,1695809504912,0.30273438,-0.018554688,-0.9736328,0.59375,0.21875,-0.125,0.0,0.0,0.0
239,1695809504972,0.29296875,-0.016601562,-0.984375,0.03125,0.03125,-0.0625,0.0,0.0,0.0
240,1695809505002,0.30078125,-0.0126953125,-0.9794922,0.15625,-0.09375,-0.1875,0.0,0.0,0.0
241,1695809505031,0.29589844,-0.015625,-0.96875,-0.09375,-0.40625,-0.0625,0.0,0.0,0.0
242,1695809505093,0.296875,-0.0126953125,-0.9892578,-0.03125,-0.09375,-0.25,0.0,0.0,0.0
243,1695809505123,0.2861328,-0.009765625,-0.98046875,0.09375,0.5625,-0.3125,0.0,0.0,0.0
244,1695809505151,0.2998047,-0.018554688,-0.9873047,-0.03125,0.25,-0.0625,0.0,0.0,0.0
245,1695809505212,0.29003906,-0.0146484375,-0.9921875,-0.15625,0.15625,0.1875,0.0,0.0,0.0
246,1695809505242,0.30078125,-0.00390625,-0.98339844,-0.21875,0.03125,0.0,-16.9375,-13.9375,-163.375
247,1695809505272,0.29492188,-0.017578125,-0.9824219,0.34375,0.09375,0.21875,0.0,0.0,0.0
248,1695809505332,0.2998047,-0.01171875,-0.984375,-0.03125,-0.09375,0.0625,0.0,0.0,0.0
249,1695809505362,0.29492188,-0.021484375,-0.9785156,0.40625,-0.03125,0.125,0.0,0.0,0.0
250,1695809505392,0.296875,-0.01953125,-0.97265625,0.09375,0.03125,0.125,0.0,0.0,0.0
251,1695809505459,0.2998047,-0.0146484375,-0.9921875,0.09375,-0.09375,0.0625,0.0,0.0,0.0
252,1695809505482,0.29882812,-0.0068359375,-0.9765625,0.09375,-0.34375,0.0,0.0,0.0,0.0
253,1695809505511,0.29589844,-0.013671875,-0.9941406,0.03125,0.09375,0.0625,0.0,0.0,0.0
254,1695809505573,0.29101562,-0.016601562,-0.9814453,-0.21875,-0.53125,0.0,0.0,0.0,0.0
255,1695809505603,0.296875,-0.01953125,-0.9951172,0.21875,0.03125,-0.125,0.0,0.0,0.0
256,1695809505692,0.29785156,-0.017578125,-0.9824219,-0.09375,0.25,-0.0625,0.0,0.0,0.0
257,1695809505695,0.29492188,-0.0068359375,-0.9863281,-0.21875,-0.59375,-0.125,0.0,0.0,0.0
258,1695809505724,0.29882812,-0.013671875,-0.9941406,-0.03125,0.25,0.1875,-17.375,-15.125,-163.6875
259,1695809505753,0.2998047,-0.03125,-0.9765625,-0.375,-0.65625,0.28125,0.0,0.0,0.0
260,1695809505812,0.29296875,-0.01171875,-0.9824219,-0.75,-0.53125,-0.0625,0.0,0.0,0.0
261,1695809505843,0.29296875,-0.01953125,-0.9824219,0.03125,0.09375,0.125,0.0,0.0,0.0
262,1695809505870,0.3017578,-0.017578125,-0.9824219,0.21875,-0.21875,-0.0625,0.0,0.0,0.0
263,1695809505931,0.3017578,-0.021484375,-0.9746094,-0.03125,0.3125,-0.125,0.0,0.0,0.0
264,1695809505963,0.2939453,-0.015625,-0.984375,-0.15625,0.21875,0.0625,0.0,0.0,0.0
265,1695809505992,0.3017578,-0.01171875,-0.9716797,0.21875,0.375,0.125,0.0,0.0,0.0
266,1695809506052,0.29296875,-0.0078125,-0.9814453,-0.15625,-0.34375,0.21875,0.0,0.0,0.0
267,1695809506081,0.29785156,-0.0146484375,-0.9746094,0.15625,-0.15625,0.21875,0.0,0.0,0.0
268,1695809506111,0.29003906,-0.017578125,-0.97265625,-0.3125,-0.34375,0.21875,0.0,0.0,0.0
269,1695809506173,0.296875,-0.009765625,-0.9794922,0.03125,-0.09375,0.0,0.0,0.0,0.0
270,1695809506199,0.29882812,-0.0146484375,-0.97558594,0.34375,-0.09375,0.125,0.0,0.0,0.0
271,1695809506230,0.29882812,-0.01953125,-0.9873047,-0.3125,-0.46875,-0.25,-17.375,-14.375,-163.6875
272,1695809506291,0.29492188,-0.0126953125,-0.97558594,0.21875,0.03125,0.21875,0.0,0.0,0.0
273,1695809506321,0.29492188,-0.0146484375,-0.97265625,-0.3125,0.09375,0.40625,0.0,0.0,0.0
274,1695809506417,0.30371094,-0.0078125,-0.9746094,0.0,-0.125,-0.03125,0.0,0.0,0.0
275,1695809506420,0.29492188,-0.013671875,-0.99121094,-0.125,-0.3125,0.21875,0.0,0.0,0.0
276,1695809506442,0.2939453,-0.0087890625,-0.9814453,-0.125,-0.4375,0.21875,0.0,0.0,0.0
277,1695809506472,0.29882812,-0.0146484375,-0.984375,0.34375,-0.46875,0.15625,0.0,0.0,0.0
278,1695809506533,0.29492188,-0.018554688,-0.97558594,0.03125,0.25,0.21875,0.0,0.0,0.0
279,1695809506564,0.2919922,-0.0107421875,-0.9921875,-0.4375,-0.4375,0.15625,0.0,0.0,0.0
280,1695809506593,0.30371094,-0.0107421875,-0.98828125,-0.0625,0.6875,0.03125,0.0,0.0,0.0
281,1695809506652,0.29101562,-0.01953125,-0.97753906,-0.125,0.1875,0.28125,0.0,0.0,0.0
282,1695809506684,0.3076172,-0.0107421875,-0.9794922,-0.125,0.0,0.09375,0.0,0.0,0.0
283,1695809506711,0.2919922,-0.020507812,-0.9794922,0.65625,0.125,0.03125,-18.0,-13.9375,-163.375
284,1695809506772,0.29003906,-0.017578125,-0.96777344,-0.25,-0.53125,0.15625,0.0,0.0,0.0
285,1695809506799,0.2939453,-0.01171875,-0.9902344,0.40625,-0.0625,0.21875,0.0,0.0,0.0
286,1695809506829,0.296875,-0.022460938,-0.97265625,0.15625,0.0625,0.59375,0.0,0.0,0.0
287,1695809506891,0.3076172,-0.0087890625,-0.9863281,-0.3125,-0.375,-0.09375,0.0,0.0,0.0
288,1695809506920,0.30371094,-0.022460938,-0.9785156,0.21875,-0.3125,-0.03125,0.0,0.0,0.0
289,1695809506951,0.2861328,-0.021484375,-0.9794922,-0.0625,-0.3125,0.21875,0.0,0.0,0.0
290,1695809507013,0.28222656,-0.0078125,-0.9902344,-0.25,-0.4375,-0.09375,0.0,0.0,0.0
291,1695809507041,0.29882812,-0.013671875,-0.9736328,0.34375,0.3125,0.03125,0.0,0.0,0.0
292,1695809507071,0.29492188,-0.01953125,-0.9814453,-0.125,-0.25,-0.09375,0.0,0.0,0.0
293,1695809507130,0.30078125,-0.0126953125,-0.9892578,-0.0625,-0.3125,-0.1875,0.0,0.0,0.0
294,1695809507164,0.29296875,-0.01171875,-0.98535156,0.03125,0.3125,-0.09375,0.0,0.0,0.0
295,1695809507192,0.29882812,-0.015625,-0.98339844,0.21875,0.1875,-0.09375,0.0,0.0,0.0
296,1695809507252,0.29492188,-0.0107421875,-0.99121094,-0.0625,-0.0625,0.09375,-17.5625,-13.1875,-163.875
297,1695809507282,0.29296875,-0.00390625,-0.984375,0.0,0.1875,-0.09375,0.0,0.0,0.0
298,1695809507310,0.296875,-0.018554688,-0.9794922,0.21875,0.3125,0.21875,0.0,0.0,0.0
299,1695809507373,0.28808594,-0.005859375,-0.96972656,0.03125,-0.0625,0.09375,0.0,0.0,0.0
300,1695809507401,0.29492188,-0.009765625,-0.9736328,0.28125,0.125,0.03125,0.0,0.0,0.0
301,1695809507493,0.29296875,-0.025390625,-0.9902344,0.03125,0.4375,0.09375,0.0,0.0,0.0
302,1695809507496,0.30566406,-0.0068359375,-0.96875,0.0,-0.4375,0.03125,0.0,0.0,0.0
303,1695809507522,0.29589844,-0.03125,-0.98046875,0.21875,-0.25,0.15625,0.0,0.0,0.0
304,1695809507552,0.29492188,-0.016601562,-0.97753906,-0.3125,0.0,-0.03125,0.0,0.0,0.0
305,1695809507612,0.3046875,-0.01171875,-0.97265625,0.28125,-0.125,0.03125,0.0,0.0,0.0
306,1695809507641,0.29492188,-0.020507812,-0.9785156,-0.125,0.0,0.03125,0.0,0.0,0.0
307,1695809507672,0.2998047,-0.0146484375,-0.97558594,-0.0625,-0.53125,-0.1875,0.0,0.0,0.0
308,1695809507732,0.2919922,-0.01953125,-0.98339844,0.15625,0.125,-0.03125,-17.875,-14.8125,-164.3125
309,1695809507762,0.29492188,-0.018554688,-0.97265625,-0.0625,0.0,-0.15625,0.0,0.0,0.0
310,1695809507793,0.30273438,-0.01171875,-0.9941406,0.09375,-0.25,0.03125,0.0,0.0,0.0
311,1695809507851,0.2841797,-0.025390625,-0.96875,0.15625,0.125,0.21875,0.0,0.0,0.0
312,1695809507880,0.3017578,-0.0107421875,-0.96777344,-0.5,-0.3125,0.15625,0.0,0.0,0.0
313,1695809507940,0.29785156,-0.022460938,-0.98046875,0.28125,-0.1875,-0.09375,0.0,0.0,0.0
314,1695809507969,0.29589844,-0.018554688,-0.9824219,0.03125,0.0625,-0.09375,0.0,0.0,0.0
315,1695809508003,0.2890625,-0.018554688,-0.98339844,0.15625,0.1875,-0.09375,0.0,0.0,0.0
316,1695809508032,0.29785156,-0.022460938,-0.9765625,0.28125,0.375,-0.09375,0.0,0.0,0.0
317,1695809508092,0.28808594,-0.021484375,-0.98046875,-0.1875,-0.1875,0.09375,0.0,0.0,0.0
318,1695809508120,0.296875,-0.0126953125,-0.98535156,-0.1875,0.125,-0.15625,0.0,0.0,0.0
319,1695809508153,0.29492188,-0.017578125,-0.9765625,0.21875,0.625,0.40625,0.0,0.0,0.0
320,1695809508212,0.30273438,-0.013671875,-0.96875,-0.3125,-0.65625,0.15625,-17.5625,-14.5,-164.625
321,1695809508246,0.29003906,-0.0126953125,-0.97558594,0.46875,0.4375,0.28125,0.0,0.0,0.0
322,1695809508269,0.2890625,-0.017578125,-0.97753906,0.0,-0.0625,0.28125,0.0,0.0,0.0
323,1695809508329,0.28710938,-0.016601562,-0.9951172,-0.1875,-0.4375,-0.03125,0.0,0.0,0.0
324,1695809508358,0.29492188,-0.0126953125,-0.9658203,0.28125,0.0,0.09375,0.0,0.0,0.0
325,1695809508390,0.28808594,-0.017578125,-0.97558594,-0.5,-0.4375,-0.15625,0.0,0.0,0.0
326,1695809508450,0.296875,-0.0107421875,-0.98828125,0.65625,0.375,-0.09375,0.0,0.0,0.0
327,1695809508481,0.2939453,-0.028320312,-0.9746094,-0.0625,-0.1875,-0.15625,0.0,0.0,0.0
328,1695809508540,0.29101562,-0.01171875,-0.9941406,-0.3125,-0.125,-0.15625,0.0,0.0,0.0
329,1695809508569,0.30371094,-0.0107421875,-0.98535156,0.15625,0.125,0.03125,0.0,0.0,0.0
330,1695809508622,0.2861328,-0.0068359375,-0.984375,0.09375,0.0625,0.03125,0.0,0.0,0.0
331,1695809508689,0.29589844,-0.018554688,-0.97558594,0.15625,-0.3125,0.15625,0.0,0.0,0.0
332,1695809508692,0.29003906,-0.025390625,-0.984375,0.0,0.25,0.09375,0.0,0.0,0.0
333,1695809508722,0.29882812,-0.021484375,-0.98046875,-0.125,-0.3125,-0.15625,-17.125,-14.8125,-162.8125
334,1695809508780,0.2998047,-0.018554688,-0.99121094,0.21875,-0.125,-0.09375,0.0,0.0,0.0
335,1695809508810,0.27929688,-0.017578125,-0.99121094,-0.125,-0.1875,0.03125,0.0,0.0,0.0
336,1695809508839,0.29296875,-0.017578125,-0.98046875,-0.125,-0.0625,-0.03125,0.0,0.0,0.0
337,1695809508900,0.29101562,-0.01953125,-0.99121094,-0.125,0.1875,-0.15625,0.0,0.0,0.0
338,1695809508930,0.28808594,-0.020507812,-0.9863281,0.0,0.375,-0.09375,0.0,0.0,0.0
339,1695809508959,0.2939453,-0.01953125,-0.9892578,0.21875,0.5,-0.09375,0.0,0.0,0.0
340,1695809509018,0.3017578,-0.026367188,-0.9736328,-0.0625,-0.1875,-0.15625,0.0,0.0,0.0
341,1695809509049,0.3017578,-0.0234375,-0.97753906,-0.125,-0.0625,-0.15625,0.0,0.0,0.0
342,1695809509078,0.2939453,-0.025390625,-0.98535156,-0.0625,0.53125,0.1875,0.0,0.0,0.0
343,1695809509139,0.30273438,-0.015625,-0.97558594,-0.0625,0.0,0.25,0.0,0.0,0.0
344,1695809509169,0.29882812,-0.021484375,-0.9794922,-0.0625,0.3125,-0.03125,0.0,0.0,0.0
345,1695809509199,0.30273438,-0.0126953125,-0.98046875,0.25,-0.0625,-0.15625,-17.375,-13.9375,-163.125
346,1695809509261,0.2939453,-0.0107421875,-0.984375,-0.125,-0.125,0.125,0.0,0.0,0.0
347,1695809509290,0.28808594,-0.017578125,-0.9951172,-0.125,-0.0625,0.0625,0.0,0.0,0.0
348,1695809509319,0.29589844,-0.0107421875,-0.9951172,-0.0625,-0.375,-0.15625,0.0,0.0,0.0
349,1695809509378,0.3017578,-0.018554688,-0.97753906,-0.125,-0.125,-0.21875,0.0,0.0,0.0
350,1695809509408,0.296875,-0.0146484375,-0.98828125,-0.125,-0.125,-0.09375,0.0,0.0,0.0
351,1695809509439,0.29589844,-0.020507812,-0.9892578,-0.0625,0.1875,0.0625,0.0,0.0,0.0
352,1695809509500,0.2998047,-0.018554688,-0.97753906,-0.1875,-0.0625,-0.09375,0.0,0.0,0.0
353,1695809509531,0.29492188,-0.016601562,-0.98046875,-0.21875,-0.25,-0.09375,0.0,0.0,0.0
354,1695809509562,0.3017578,-0.022460938,-0.97753906,-0.28125,-0.0625,0.0,0.0,0.0,0.0
355,1695809509621,0.296875,-0.030273438,-0.9765625,0.125,0.125,-0.09375,0.0,0.0,0.0
356,1695809509652,0.29492188,-0.018554688,-0.9765625,-0.21875,-0.1875,-0.15625,0.0,0.0,0.0
357,1695809509681,0.29882812,-0.017578125,-0.9902344,0.0625,0.125,-0.21875,0.0,0.0,0.0
358,1695809509740,0.29492188,-0.016601562,-0.9736328,-0.125,0.0625,-0.21875,-18.4375,-13.9375,-162.625
359,1695809509772,0.2783203,-0.0078125,-0.9785156,-0.28125,-0.125,0.0,0.0,0.0,0.0
360,1695809509802,0.2861328,-0.0146484375,-0.98339844,-0.1875,0.0,0.0625,0.0,0.0,0.0
361,1695809509863,0.29589844,-0.017578125,-0.9921875,-0.125,0.0,-0.03125,0.0,0.0,0.0
362,1695809509890,0.29296875,-0.025390625,-0.98828125,-0.125,-0.125,-0.15625,0.0,0.0,0.0
363,1695809509918,0.28710938,-0.016601562,-0.9980469,0.25,0.34375,0.0,0.0,0.0,0.0
364,1695809509980,0.2939453,-0.0107421875,-0.9873047,-0.1875,0.3125,-0.09375,0.0,0.0,0.0
365,1695809510012,0.29296875,-0.015625,-0.9824219,0.1875,0.125,-0.34375,0.0,0.0,0.0
366,1695809510041,0.2939453,-0.022460938,-0.98339844,0.0,0.25,0.0,0.0,0.0,0.0
367,1695809510103,0.2919922,-0.0126953125,-0.9951172,0.0,0.25,-0.09375,0.0,0.0,0.0
368,1695809510135,0.29296875,-0.0146484375,-0.9794922,0.25,0.125,-0.15625,0.0,0.0,0.0
369,1695809510159,0.29785156,-0.013671875,-0.984375,-0.1875,-0.3125,0.0625,0.0,0.0,0.0
370,1695809510218,0.29492188,-0.0146484375,-0.9902344,-0.53125,-0.5,-0.03125,-18.3125,-14.1875,-164.3125
371,1695809510250,0.2939453,-0.021484375,-0.9863281,-0.21875,-0.125,0.0,0.0,0.0,0.0
372,1695809510280,0.30371094,-0.018554688,-0.9785156,-0.125,-0.0625,-0.09375,0.0,0.0,0.0
373,1695809510340,0.296875,-0.013671875,-0.98535156,-0.28125,-0.3125,-0.09375,0.0,0.0,0.0
374,1695809510370,0.29101562,-0.020507812,-0.9794922,0.25,0.125,-0.34375,0.0,0.0,0.0
375,1695809510402,0.29296875,-0.018554688,-0.9824219,-0.125,-0.125,-0.21875,0.0,0.0,0.0
376,1695809510461,0.29492188,-0.016601562,-0.9794922,0.0,0.0625,-0.28125,0.0,0.0,0.0
377,1695809510491,0.28808594,-0.0107421875,-0.9794922,-0.1875,0.1875,-0.09375,0.0,0.0,0.0
378,1695809510521,0.29589844,-0.0107421875,-0.97265625,-0.21875,-0.25,-0.21875,0.0,0.0,0.0
379,1695809510583,0.29296875,-0.013671875,-0.98046875,-0.1875,-0.125,-0.09375,0.0,0.0,0.0
380,1695809510611,0.29101562,-0.017578125,-0.97558594,-0.1875,-0.125,-0.15625,0.0,0.0,0.0
381,1695809510642,0.2919922,-0.0146484375,-0.98339844,-0.125,0.0,-0.34375,0.0,0.0,0.0
382,1695809510733,0.2890625,-0.0126953125,-0.98339844,0.0,0.3125,-0.09375,-19.0625,-14.6875,-163.6875
383,1695809510736,0.296875,-0.0107421875,-0.97558594,0.0,-0.25,-0.15625,0.0,0.0,0.0
384,1695809510760,0.29101562,-0.021484375,-0.98535156,0.0,0.0,0.0625,0.0,0.0,0.0
385,1695809510823,0.29589844,-0.01953125,-0.98828125,-0.0625,0.1875,-0.09375,0.0,0.0,0.0
386,1695809510852,0.29101562,-0.0078125,-0.9824219,0.5625,0.1875,-0.03125,0.0,0.0,0.0
387,1695809510881,0.3017578,-0.013671875,-0.9746094,-0.0625,0.25,-0.21875,0.0,0.0,0.0
388,1695809510976,0.296875,-0.018554688,-0.99609375,-0.0625,0.34375,-0.09375,0.0,0.0,0.0
389,1695809510981,0.29296875,-0.020507812,-0.9902344,0.0625,0.34375,0.0625,0.0,0.0,0.0
390,1695809511004,0.3017578,-0.015625,-0.9892578,-0.125,-0.0625,0.0625,0.0,0.0,0.0
391,1695809511060,0.30371094,-0.013671875,-0.984375,-0.125,-0.3125,0.0625,0.0,0.0,0.0
392,1695809511089,0.28710938,-0.0078125,-0.98339844,-0.0625,0.0625,0.0625,0.0,0.0,0.0
393,1695809511124,0.29101562,-0.0146484375,-0.98828125,-0.125,-0.25,0.0,0.0,0.0,0.0
394,1695809511213,0.29785156,-0.009765625,-0.9794922,-0.125,-0.375,-0.15625,-18.3125,-14.1875,-164.625
395,1695809511216,0.28710938,-0.022460938,-0.9892578,-0.0625,0.1875,-0.03125,0.0,0.0,0.0
396,1695809511242,0.29492188,-0.017578125,-0.9794922,-0.46875,-0.1875,-0.15625,0.0,0.0,0.0
397,1695809511303,0.30273438,-0.016601562,-0.9873047,-0.0625,-0.0625,-0.09375,0.0,0.0,0.0
398,1695809511332,0.29296875,-0.018554688,-0.9902344,-0.21875,-0.25,-0.03125,0.0,0.0,0.0
399,1695809511361,0.2998047,-0.021484375,-0.9824219,-0.21875,-0.0625,-0.15625,0.0,0.0,0.0
400,1695809511422,0.296875,-0.020507812,-0.9794922,-0.21875,0.1875,-0.09375,0.0,0.0,0.0
401,1695809511453,0.29785156,-0.015625,-0.9824219,0.0,-0.1875,-0.21875,0.0,0.0,0.0
402,1695809511482,0.28320312,-0.009765625,-0.98535156,-0.0625,0.125,-0.03125,0.0,0.0,0.0
403,1695809511544,0.29296875,-0.018554688,-0.9941406,-0.28125,0.0625,-0.15625,0.0,0.0,0.0
404,1695809511571,0.29101562,-0.0087890625,-0.96875,0.25,0.1875,0.0,0.0,0.0,0.0
405,1695809511601,0.29882812,-0.016601562,-0.9814453,-0.125,0.0625,0.125,0.0,0.0,0.0
406,1695809511661,0.29296875,-0.0126953125,-0.9824219,-0.0625,0.0625,0.0,0.0,0.0,0.0
407,1695809511693,0.29296875,-0.017578125,-0.97753906,-0.0625,0.0,0.0625,0.0,0.0,0.0
408,1695809511721,0.2939453,-0.021484375,-0.9785156,0.1875,0.25,0.0,-18.625,-13.75,-164.875
409,1695809511784,0.28808594,-0.009765625,-0.98339844,-0.0625,0.0625,-0.03125,0.0,0.0,0.0
410,1695809511812,0.29882812,-0.016601562,-0.9707031,-0.125,-0.0625,-0.09375,0.0,0.0,0.0
411,1695809511842,0.296875,-0.013671875,-0.9785156,0.125,-0.0625,-0.21875,0.0,0.0,0.0
412,1695809511904,0.29492188,-0.013671875,-0.9716797,-0.125,-0.125,-0.09375,0.0,0.0,0.0
413,1695809511932,0.3017578,-0.0087890625,-0.96972656,-0.0625,0.0625,-0.34375,0.0,0.0,0.0
414,1695809511962,0.3017578,-0.028320312,-0.9765625,-0.125,-0.1875,-0.21875,0.0,0.0,0.0
415,1695809512022,0.28710938,-0.028320312,-0.984375,-0.28125,-0.5625,-0.03125,0.0,0.0,0.0
416,1695809512052,0.27929688,-0.015625,-0.9814453,-0.28125,-0.125,-0.09375,0.0,0.0,0.0
417,1695809512081,0.2890625,-0.025390625,-0.9785156,0.0,-0.1875,-0.15625,0.0,0.0,0.0
418,1695809512139,0.29492188,-0.0107421875,-0.9814453,-0.40625,0.0625,-0.21875,0.0,0.0,0.0
419,1695809512176,0.29101562,-0.021484375,-0.98046875,0.0,0.1875,-0.21875,0.0,0.0,0.0
420,1695809512201,0.296875,-0.0146484375,-0.9902344,-0.1875,-0.3125,-0.40625,-18.4375,-13.9375,-165.0625
421,1695809512260,0.3017578,-0.0146484375,-0.98828125,0.0625,0.0625,-0.15625,0.0,0.0,0.0
422,1695809512295,0.29296875,-0.0146484375,-0.9707031,-0.59375,-0.25,-0.03125,0.0,0.0,0.0
423,1695809512319,0.3017578,-0.01171875,-0.98339844,-0.21875,0.25,-0.21875,0.0,0.0,0.0
424,1695809512381,0.2861328,-0.020507812,-0.9765625,-0.0625,0.34375,0.25,0.0,0.0,0.0
425,1695809512410,0.29882812,-0.0146484375,-0.9794922,0.0,0.0,-0.03125,0.0,0.0,0.0
426,1695809512440,0.28515625,-0.01953125,-0.9892578,0.1875,0.3125,0.1875,0.0,0.0,0.0
427,1695809512500,0.29296875,-0.017578125,-0.9736328,0.125,-0.375,-0.21875,0.0,0.0,0.0
428,1695809512532,0.29785156,-0.0146484375,-0.9794922,0.0,-0.125,-0.09375,0.0,0.0,0.0
429,1695809512562,0.28222656,-0.0126953125,-0.96972656,0.25,-0.0625,-0.09375,0.0,0.0,0.0
430,1695809512620,0.2919922,-0.020507812,-0.98535156,-0.1875,-0.0625,-0.09375,0.0,0.0,0.0
431,1695809512651,0.29101562,-0.020507812,-0.9824219,-0.40625,-0.1875,0.1875,0.0,0.0,0.0
432,1695809512691,0.29492188,-0.021484375,-0.9716797,-0.0625,-0.125,0.0,0.0,0.0,0.0
433,1695809512739,0.2861328,-0.018554688,-0.9902344,-0.21875,0.0625,0.0,-18.875,-13.1875,-164.875
434,1695809512768,0.29492188,-0.021484375,-0.9863281,0.125,0.3125,-0.03125,0.0,0.0,0.0
435,1695809512801,0.29785156,-0.0078125,-0.9902344,-0.1875,-0.25,0.0,0.0,0.0,0.0
436,1695809512858,0.2890625,-0.0107421875,-0.9785156,-0.0625,0.0,-0.03125,0.0,0.0,0.0
437,1695809512888,0.29003906,-0.020507812,-0.9794922,0.375,-0.1875,-0.03125,0.0,0.0,0.0
438,1695809512919,0.29003906,-0.021484375,-0.9736328,-0.0625,0.125,0.125,0.0,0.0,0.0
439,1695809512978,0.29003906,-0.01953125,-0.9863281,0.3125,-0.3125,0.0,0.0,0.0,0.0
440,1695809513008,0.28710938,-0.015625,-0.99121094,-0.34375,-0.125,0.0,0.0,0.0,0.0
441,1695809513037,0.29785156,-0.015625,-0.98339844,0.25,0.46875,-0.03125,0.0,0.0,0.0
442,1695809513098,0.29492188,-0.015625,-0.9824219,0.3125,0.34375,0.0625,0.0,0.0,0.0
443,1695809513129,0.29296875,-0.016601562,-0.98535156,-0.0625,0.0625,0.0,0.0,0.0,0.0
444,1695809513159,0.29589844,-0.013671875,-0.97558594,0.0,0.1875,0.25,0.0,0.0,0.0
445,1695809513249,0.2939453,-0.020507812,-0.98535156,-0.125,-0.375,-0.09375,-17.875,-15.5625,-164.3125
446,1695809513251,0.27734375,-0.0146484375,-0.984375,-0.21875,-0.1875,0.1875,0.0,0.0,0.0
447,1695809513278,0.3017578,-0.01953125,-0.9814453,0.0625,-0.3125,-0.09375,0.0,0.0,0.0
448,1695809513338,0.29785156,-0.013671875,-0.98046875,-0.40625,-0.0625,0.0,0.0,0.0,0.0
449,1695809513369,0.29101562,-0.017578125,-0.9716797,0.0625,-0.1875,0.0,0.0,0.0,0.0
450,1695809513403,0.29101562,-0.0078125,-0.98828125,-0.1875,-0.3125,-0.03125,0.0,0.0,0.0
451,1695809513458,0.29101562,-0.013671875,-0.9785156,-0.1875,-0.0625,-0.15625,0.0,0.0,0.0
452,1695809513518,0.2841797,-0.0107421875,-0.9814453,0.0625,-0.0625,0.3125,0.0,0.0,0.0
453,1695809513522,0.29296875,-0.013671875,-0.9736328,-0.28125,-0.0625,0.25,0.0,0.0,0.0
454,1695809513579,0.2939453,-0.016601562,-0.9765625,-0.0625,-0.0625,0.0625,0.0,0.0,0.0
455,1695809513609,0.29003906,-0.0146484375,-0.96972656,0.375,0.0625,0.125,0.0,0.0,0.0
456,1695809513639,0.29003906,-0.0087890625,-0.99121094,-0.125,-0.25,-0.09375,0.0,0.0,0.0
457,1695809513701,0.28808594,-0.0146484375,-0.9814453,-0.0625,0.125,0.0625,0.0,0.0,0.0
458,1695809513732,0.29101562,-0.018554688,-0.9746094,-0.125,0.0,0.125,-18.4375,-14.375,-165.0625
459,1695809513761,0.30078125,-0.0234375,-0.9794922,0.125,0.25,0.1875,0.0,0.0,0.0
460,1695809513821,0.2939453,-0.0107421875,-0.9873047,-0.21875,-0.1875,0.0,0.0,0.0,0.0
461,1695809513851,0.28710938,-0.022460938,-0.9824219,0.25,0.125,0.25,0.0,0.0,0.0
462,1695809513882,0.29101562,-0.0234375,-0.9746094,-0.0625,-0.3125,0.25,0.0,0.0,0.0
463,1695809513941,0.2939453,-0.016601562,-0.9824219,-0.1875,-0.3125,0.0,0.0,0.0,0.0
464,1695809513972,0.29101562,-0.0087890625,-0.9863281,-0.34375,-0.25,-0.09375,0.0,0.0,0.0
465,1695809514002,0.2939453,-0.01953125,-0.9794922,-0.0625,-0.4375,0.125,0.0,0.0,0.0
466,1695809514060,0.29101562,-0.01953125,-0.9794922,-0.34375,-0.1875,0.1875,0.0,0.0,0.0
467,1695809514091,0.2890625,-0.015625,-0.97558594,-0.125,-0.4375,-0.03125,0.0,0.0,0.0
468,1695809514120,0.30273438,-0.021484375,-0.9863281,-0.34375,0.1875,0.0625,0.0,0.0,0.0
469,1695809514180,0.2939453,-0.009765625,-0.9902344,0.1875,0.1875,0.0625,0.0,0.0,0.0
470,1695809514209,0.28808594,-0.015625,-0.9892578,0.125,0.125,0.0625,-19.0625,-14.375,-164.0
471,1695809514241,0.28125,-0.017578125,-0.9824219,-0.65625,0.0,0.0,0.0,0.0,0.0
472,1695809514300,0.29785156,-0.01953125,-0.98339844,-0.125,-0.3125,-0.15625,0.0,0.0,0.0
473,1695809514333,0.29101562,-0.016601562,-0.9824219,-0.34375,0.25,0.0625,0.0,0.0,0.0
474,1695809514360,0.29492188,-0.015625,-1.0019531,-0.34375,-0.3125,-0.09375,0.0,0.0,0.0
475,1695809514418,0.2861328,-0.015625,-0.9921875,-0.59375,-0.0625,0.0,0.0,0.0,0.0
476,1695809514450,0.29492188,-0.0087890625,-0.9902344,-0.40625,0.3125,-0.09375,0.0,0.0,0.0
477,1695809514481,0.296875,-0.013671875,-0.98828125,0.25,0.0625,0.0625,0.0,0.0,0.0
478,1695809514543,0.28710938,-0.0078125,-0.9824219,-0.125,0.0625,0.1875,0.0,0.0,0.0
479,1695809514572,0.2841797,-0.017578125,-0.97558594,-0.125,-0.125,0.0,0.0,0.0,0.0
480,1695809514600,0.28808594,-0.0078125,-0.9765625,-0.0625,0.1875,0.0625,0.0,0.0,0.0
481,1695809514660,0.29785156,-0.0146484375,-0.98535156,0.5,-0.0625,-0.03125,0.0,0.0,0.0
482,1695809514692,0.2861328,-0.0234375,-0.98828125,0.0625,0.0625,0.3125,0.0,0.0,0.0
483,1695809514720,0.29785156,-0.0029296875,-0.9863281,-0.125,-0.3125,-0.15625,-18.625,-15.5625,-164.875
484,1695809514782,0.29589844,-0.013671875,-0.98339844,0.125,0.40625,0.125,0.0,0.0,0.0
485,1695809514813,0.27539062,-0.016601562,-0.9980469,-0.46875,-0.375,-0.09375,0.0,0.0,0.0
486,1695809514841,0.2861328,-0.016601562,-0.99121094,0.0,0.0625,-0.21875,0.0,0.0,0.0
487,1695809514901,0.28515625,-0.016601562,-0.9873047,-0.0625,0.1875,-0.09375,0.0,0.0,0.0
488,1695809514931,0.2890625,-0.01171875,-0.9873047,-0.125,-0.125,-0.15625,0.0,0.0,0.0
489,1695809514962,0.29296875,-0.020507812,-0.97558594,0.25,0.1875,-0.09375,0.0,0.0,0.0
490,1695809515022,0.2861328,-0.0146484375,-0.98828125,-0.125,0.0,0.125,0.0,0.0,0.0
491,1695809515052,0.2919922,-0.021484375,-0.99121094,0.375,0.40625,0.0625,0.0,0.0,0.0
492,1695809515082,0.28027344,-0.01953125,-0.9736328,-0.125,0.0,-0.03125,0.0,0.0,0.0
493,1695809515140,0.2939453,-0.01171875,-0.99121094,-0.78125,-0.125,-0.15625,0.0,0.0,0.0
494,1695809515172,0.2890625,-0.0087890625,-0.98828125,0.5625,0.34375,-0.09375,0.0,0.0,0.0
495,1695809515202,0.2890625,-0.018554688,-0.9785156,-0.1875,0.0625,-0.21875,-16.9375,-13.9375,-164.4375
496,1695809515262,0.2919922,-0.0146484375,-0.9873047,-0.0625,0.0625,-0.15625,0.0,0.0,0.0
497,1695809515293,0.29003906,-0.025390625,-0.9785156,0.0625,0.46875,0.1875,0.0,0.0,0.0
498,1695809515321,0.29589844,-0.016601562,-0.97558594,-0.125,-0.0625,-0.09375,0.0,0.0,0.0
499,1695809515382,0.29101562,-0.016601562,-0.98535156,0.375,0.40625,-0.03125,0.0,0.0,0.0
500,1695809515412,0.29101562,-0.021484375,-0.9824219,-0.0625,0.65625,0.0625,0.0,0.0,0.0
501,1695809515443,0.29492188,-0.0126953125,-0.97753906,0.1875,0.1875,-0.09375,0.0,0.0,0.0
502,1695809515531,0.2919922,-0.013671875,-0.9824219,-0.0625,0.25,0.09375,0.0,0.0,0.0
503,1695809515533,0.29589844,-0.017578125,-0.97265625,0.625,-0.34375,0.21875,0.0,0.0,0.0
504,1695809515559,0.28710938,-0.015625,-0.9873047,-0.0625,-0.15625,0.28125,0.0,0.0,0.0
505,1695809515620,0.29492188,-0.015625,-0.9863281,-0.0625,-0.65625,-0.03125,0.0,0.0,0.0
506,1695809515648,0.29003906,-0.0126953125,-0.9941406,0.3125,-0.21875,0.21875,0.0,0.0,0.0
507,1695809515678,0.29003906,-0.0146484375,-0.9794922,1.09375,0.125,0.09375,0.0,0.0,0.0
508,1695809515738,0.29296875,-0.015625,-0.9765625,0.375,0.0,0.15625,-18.0,-14.375,-165.0625
509,1695809515768,0.29492188,-0.017578125,-0.98828125,0.125,-0.15625,-0.09375,0.0,0.0,0.0
510,1695809515798,0.3017578,-0.016601562,-0.97265625,-0.0625,-0.09375,0.03125,0.0,0.0,0.0
511,1695809515858,0.2841797,-0.016601562,-0.9921875,-0.375,-0.28125,-0.03125,0.0,0.0,0.0
512,1695809515888,0.296875,-0.0146484375,-0.98339844,0.0,0.0,0.15625,0.0,0.0,0.0
513,1695809515918,0.2939453,-0.017578125,-0.9794922,-0.25,-0.0625,0.03125,0.0,0.0,0.0
514,1695809515978,0.2890625,-0.0107421875,-0.99121094,-0.0625,-0.34375,-0.09375,0.0,0.0,0.0
515,1695809516010,0.28808594,-0.018554688,-0.9814453,-0.25,0.0,0.03125,0.0,0.0,0.0
516,1695809516038,0.296875,-0.005859375,-0.9824219,-0.3125,-0.15625,-0.15625,0.0,0.0,0.0
517,1695809516098,0.2939453,-0.015625,-0.9736328,0.125,0.1875,-0.09375,0.0,0.0,0.0
518,1695809516128,0.2841797,-0.01953125,-0.99121094,-0.3125,-0.15625,-0.21875,0.0,0.0,0.0
519,1695809516157,0.29003906,-0.0107421875,-0.9863281,0.0,-0.0625,-0.21875,0.0,0.0,0.0
520,1695809516218,0.2890625,-0.0146484375,-0.98046875,0.0,0.0625,-0.03125,-18.4375,-15.4375,-164.0
521,1695809516249,0.2841797,-0.0107421875,-0.99121094,0.0,0.0625,-0.03125,0.0,0.0,0.0
522,1695809516280,0.2861328,-0.0126953125,-0.9863281,-0.125,0.0,-0.09375,0.0,0.0,0.0
523,1695809516340,0.29296875,-0.020507812,-0.9873047,0.25,0.375,0.15625,0.0,0.0,0.0
524,1695809516369,0.29003906,-0.01171875,-0.97558594,0.1875,-0.53125,0.03125,0.0,0.0,0.0
525,1695809516399,0.2890625,-0.01953125,-0.9765625,-0.3125,-0.28125,-0.21875,0.0,0.0,0.0
526,1695809516459,0.29003906,-0.0234375,-0.98828125,0.5,-0.09375,-0.09375,0.0,0.0,0.0
527,1695809516491,0.2861328,-0.018554688,-0.98339844,-0.125,-0.28125,0.15625,0.0,0.0,0.0
528,1695809516519,0.28808594,-0.024414062,-0.98046875,0.1875,-0.15625,0.09375,0.0,0.0,0.0
529,1695809516579,0.29101562,-0.0107421875,-0.9921875,0.0,-0.0625,0.09375,0.0,0.0,0.0
530,1695809516611,0.29492188,-0.01953125,-0.97753906,0.0625,-0.0625,0.03125,0.0,0.0,0.0
531,1695809516642,0.2939453,-0.016601562,-0.9824219,-0.53125,-0.28125,0.15625,0.0,0.0,0.0
532,1695809516703,0.30273438,-0.017578125,-0.9765625,0.1875,-0.53125,0.21875,0.0,0.0,0.0
533,1695809516732,0.29101562,-0.024414062,-0.9902344,-0.53125,-0.40625,0.15625,-17.875,-15.25,-163.5625
534,1695809516762,0.29492188,-0.0126953125,-0.9716797,0.125,-0.40625,-0.28125,0.0,0.0,0.0
535,1695809516820,0.2861328,-0.0234375,-0.98535156,-0.125,0.125,0.03125,0.0,0.0,0.0
536,1695809516851,0.28125,-0.017578125,-0.99121094,-0.5,-0.34375,-0.34375,0.0,0.0,0.0
537,1695809516882,0.3017578,-0.01171875,-0.9902344,0.4375,0.0,-0.15625,0.0,0.0,0.0
538,1695809516940,0.29003906,-0.022460938,-0.9746094,-0.0625,-0.15625,0.15625,0.0,0.0,0.0
539,1695809516971,0.29296875,-0.0126953125,-0.9824219,0.125,0.0625,-0.21875,0.0,0.0,0.0
540,1695809517003,0.2861328,-0.021484375,-0.9794922,0.3125,0.25,0.34375,0.0,0.0,0.0
541,1695809517063,0.28710938,-0.013671875,-0.97753906,-0.1875,-0.15625,-0.03125,0.0,0.0,0.0
542,1695809517093,0.2890625,-0.026367188,-0.98535156,0.125,0.375,0.15625,0.0,0.0,0.0
543,1695809517122,0.29296875,-0.009765625,-0.9746094,-0.59375,-0.15625,0.15625,0.0,0.0,0.0
544,1695809517182,0.30078125,-0.0068359375,-0.98535156,0.0625,0.4375,-0.15625,0.0,0.0,0.0
545,1695809517211,0.29101562,-0.0126953125,-0.9892578,-0.125,-0.09375,0.15625,-18.3125,-14.1875,-163.5625
546,1695809517241,0.2841797,-0.0126953125,-0.99121094,0.0,0.375,-0.15625,0.0,0.0,0.0
547,1695809517301,0.29101562,-0.017578125,-0.9814453,0.625,0.25,-0.21875,0.0,0.0,0.0
548,1695809517330,0.28320312,-0.01953125,-0.9746094,-0.0625,-0.15625,-0.03125,0.0,0.0,0.0
549,1695809517361,0.28027344,-0.013671875,-0.99316406,0.125,0.0625,0.03125,0.0,0.0,0.0
550,1695809517419,0.2939453,-0.0146484375,-0.9746094,0.3125,-0.21875,-0.03125,0.0,0.0,0.0
551,1695809517450,0.2890625,-0.01953125,-0.9873047,-0.125,0.0,-0.09375,0.0,0.0,0.0
552,1695809517484,0.296875,-0.01953125,-0.9873047,-0.0625,-0.53125,-0.21875,0.0,0.0,0.0
553,1695809517540,0.28808594,-0.015625,-0.9921875,0.0625,0.0,-0.34375,0.0,0.0,0.0
554,1695809517569,0.29003906,-0.015625,-0.9716797,0.0,-0.15625,-0.15625,0.0,0.0,0.0
555,1695809517600,0.29003906,-0.026367188,-0.98535156,0.0,0.125,-0.21875,0.0,0.0,0.0
556,1695809517663,0.28710938,-0.020507812,-0.9824219,-0.3125,0.0,-0.03125,0.0,0.0,0.0
557,1695809517691,0.29589844,-0.0068359375,-0.9863281,0.1875,-0.15625,-0.03125,0.0,0.0,0.0
558,1695809517724,0.29296875,-0.0146484375,-0.9765625,0.0625,-0.0625,0.03125,-19.8125,-14.6875,-163.125
559,1695809517813,0.28710938,-0.013671875,-0.9794922,-0.375,-0.21875,-0.09375,0.0,0.0,0.0
560,1695809517816,0.296875,-0.01953125,-0.9824219,0.25,0.25,-0.21875,0.0,0.0,0.0
561,1695809517843,0.28808594,-0.029296875,-0.9658203,-0.0625,-0.21875,-0.09375,0.0,0.0,0.0
562,1695809517900,0.28515625,-0.013671875,-1.0,0.0625,-0.0625,-0.28125,0.0,0.0,0.0
563,1695809517930,0.296875,-0.025390625,-0.9785156,0.25,-0.0625,0.09375,0.0,0.0,0.0
564,1695809517962,0.28027344,-0.013671875,-0.9941406,0.125,0.0,0.03125,0.0,0.0,0.0
565,1695809518022,0.29003906,-0.0146484375,-0.97265625,0.4375,0.4375,0.21875,0.0,0.0,0.0
566,1695809518052,0.28808594,-0.021484375,-0.97558594,-0.375,-0.0625,0.4375,0.0,0.0,0.0
567,1695809518086,0.29589844,-0.016601562,-0.99121094,0.0625,-0.34375,0.28125,0.0,0.0,0.0
568,1695809518140,0.27929688,-0.018554688,-0.9863281,-0.3125,-0.40625,0.03125,0.0,0.0,0.0
569,1695809518170,0.27929688,-0.017578125,-0.9794922,0.125,-0.15625,0.09375,0.0,0.0,0.0
570,1695809518201,0.28710938,-0.0146484375,-0.984375,-0.0625,-0.09375,-0.09375,-18.875,-14.8125,-164.875
571,1695809518261,0.29589844,-0.015625,-0.9902344,0.0,0.0625,-0.34375,0.0,0.0,0.0
572,1695809518297,0.2861328,-0.017578125,-0.98535156,-0.4375,-0.65625,-0.03125,0.0,0.0,0.0
573,1695809518319,0.2890625,-0.020507812,-0.99121094,-0.375,0.0625,-0.03125,0.0,0.0,0.0
574,1695809518380,0.29296875,-0.0087890625,-0.97753906,0.0,-0.09375,-0.21875,0.0,0.0,0.0
575,1695809518411,0.28710938,-0.009765625,-0.9785156,-0.0625,0.0625,0.03125,0.0,0.0,0.0
576,1695809518441,0.29003906,-0.0126953125,-0.9736328,0.0,-0.28125,0.03125,0.0,0.0,0.0
577,1695809518499,0.28320312,-0.016601562,-0.98046875,0.0,-0.09375,0.15625,0.0,0.0,0.0
578,1695809518530,0.2939453,-0.015625,-0.9794922,0.0625,-0.21875,0.09375,0.0,0.0,0.0
579,1695809518559,0.2841797,-0.025390625,-0.98339844,0.0,-0.15625,-0.03125,0.0,0.0,0.0
580,1695809518619,0.28808594,-0.0078125,-0.98339844,0.1875,0.5,0.03125,0.0,0.0,0.0
581,1695809518650,0.29296875,-0.016601562,-0.9785156,0.1875,0.125,0.03125,0.0,0.0,0.0
582,1695809518679,0.29296875,-0.021484375,-0.98339844,-0.0625,-0.0625,-0.15625,0.0,0.0,0.0
583,1695809518744,0.29296875,-0.013671875,-0.99316406,0.5,0.375,0.21875,-16.625,-13.3125,-165.0625
584,1695809518769,0.2861328,-0.029296875,-0.96777344,0.0625,0.0,0.15625,0.0,0.0,0.0
585,1695809518799,0.2841797,-0.0146484375,-0.9921875,-0.125,-0.09375,0.09375,0.0,0.0,0.0
586,1695809518863,0.28808594,-0.013671875,-0.9892578,0.3125,0.1875,0.15625,0.0,0.0,0.0
587,1695809518891,0.29492188,-0.0146484375,-0.98535156,-0.1875,-0.53125,-0.03125,0.0,0.0,0.0
588,1695809518921,0.28808594,-0.01171875,-0.9941406,0.3125,-0.34375,-0.03125,0.0,0.0,0.0
589,1695809518981,0.29003906,-0.016601562,-0.98828125,-0.375,-0.09375,0.03125,0.0,0.0,0.0
590,1695809519012,0.2841797,-0.013671875,-0.9824219,-0.0625,-0.40625,-0.09375,0.0,0.0,0.0
591,1695809519041,0.2841797,-0.020507812,-0.984375,-0.0625,-0.15625,0.03125,0.0,0.0,0.0
592,1695809519100,0.28710938,-0.016601562,-0.9824219,-0.1875,-0.21875,-0.15625,0.0,0.0,0.0
593,1695809519133,0.29296875,-0.021484375,-0.98339844,-0.0625,-0.0625,-0.15625,0.0,0.0,0.0
594,1695809519161,0.2861328,-0.0126953125,-0.99121094,-0.1875,-0.15625,0.03125,0.0,0.0,0.0
595,1695809519220,0.29101562,-0.0126953125,-0.9736328,-0.125,-0.21875,-0.03125,-19.5,-14.375,-163.6875
596,1695809519250,0.28027344,-0.026367188,-0.98535156,-0.0625,-0.15625,0.09375,0.0,0.0,0.0
597,1695809519282,0.2890625,-0.028320312,-0.9785156,-0.0625,-0.09375,-0.15625,0.0,0.0,0.0
598,1695809519340,0.296875,-0.017578125,-0.9863281,-0.4375,-0.28125,-0.28125,0.0,0.0,0.0
599,1695809519369,0.2890625,-0.013671875,-0.9902344,-0.0625,-0.0625,-0.03125,0.0,0.0,0.0
600,1695809519402,0.28515625,-0.0107421875,-0.9824219,-0.0625,-0.09375,0.09375,0.0,0.0,0.0
601,1695809519466,0.28320312,-0.015625,-0.9824219,0.0,-0.09375,0.03125,0.0,0.0,0.0
602,1695809519491,0.28808594,-0.00390625,-0.9892578,0.0,0.4375,-0.03125,0.0,0.0,0.0
603,1695809519518,0.2890625,-0.021484375,-0.99609375,0.25,0.5,-0.03125,0.0,0.0,0.0
604,1695809519578,0.2890625,-0.018554688,-0.9892578,0.3125,0.1875,0.15625,0.0,0.0,0.0
605,1695809519608,0.28515625,-0.021484375,-0.98339844,0.0,0.0625,0.09375,0.0,0.0,0.0
606,1695809519639,0.28515625,-0.018554688,-0.9863281,-0.0625,-0.15625,0.09375,0.0,0.0,0.0
607,1695809519698,0.28808594,-0.015625,-0.99121094,0.1875,-0.28125,0.03125,0.0,0.0,0.0
608,1695809519729,0.28222656,-0.020507812,-0.9951172,-0.1875,-0.15625,0.09375,-17.5625,-13.75,-165.375
609,1695809519759,0.2734375,-0.021484375,-0.98535156,-0.0625,-0.40625,-0.03125,0.0,0.0,0.0
610,1695809519820,0.29589844,-0.01171875,-0.9970703,0.0,-0.21875,-0.09375,0.0,0.0,0.0
611,1695809519849,0.28710938,-0.01953125,-0.98339844,-0.0625,-0.0625,0.09375,0.0,0.0,0.0
612,1695809519878,0.29101562,-0.01953125,-0.9736328,-0.0625,-0.28125,-0.15625,0.0,0.0,0.0
613,1695809519939,0.27929688,-0.017578125,-0.9707031,-0.125,0.0625,-0.03125,0.0,0.0,0.0
614,1695809519969,0.296875,-0.015625,-0.99121094,-0.1875,-0.09375,-0.09375,0.0,0.0,0.0
615,1695809519998,0.2890625,-0.0146484375,-0.98339844,-0.0625,-0.34375,-0.15625,0.0,0.0,0.0
616,1695809520088,0.28710938,-0.018554688,-0.98339844,0.0,0.0625,-0.03125,0.0,0.0,0.0
617,1695809520089,0.28515625,-0.0068359375,-0.97558594,0.0625,-0.09375,-0.09375,0.0,0.0,0.0
618,1695809520118,0.28808594,-0.017578125,-0.9765625,-0.125,-0.09375,-0.09375,0.0,0.0,0.0
619,1695809520178,0.29589844,-0.0146484375,-0.9892578,0.0,0.375,-0.09375,0.0,0.0,0.0
620,1695809520208,0.29296875,-0.015625,-0.9902344,0.1875,-0.0625,-0.03125,-17.6875,-13.625,-164.75
621,1695809520238,0.28515625,-0.018554688,-0.9765625,0.125,0.0,0.03125,0.0,0.0,0.0
622,1695809520298,0.2783203,-0.017578125,-0.9794922,0.0,0.1875,-0.03125,0.0,0.0,0.0
623,1695809520328,0.2861328,-0.025390625,-0.97558594,0.3125,-0.09375,-0.09375,0.0,0.0,0.0
624,1695809520358,0.2939453,-0.01171875,-0.98828125,-0.125,0.3125,0.03125,0.0,0.0,0.0
625,1695809520420,0.29296875,-0.0126953125,-0.9824219,0.1875,0.1875,0.09375,0.0,0.0,0.0
626,1695809520450,0.2861328,-0.009765625,-0.98046875,0.4375,0.3125,0.09375,0.0,0.0,0.0
627,1695809520479,0.28710938,-0.009765625,-0.99316406,-0.1875,0.1875,0.21875,0.0,0.0,0.0
628,1695809520540,0.29296875,-0.022460938,-0.9814453,0.375,0.0625,0.21875,0.0,0.0,0.0
629,1695809520572,0.29785156,-0.018554688,-0.984375,0.0625,0.125,0.09375,0.0,0.0,0.0
630,1695809520600,0.30273438,-0.018554688,-0.9667969,-0.125,-0.09375,0.09375,0.0,0.0,0.0
631,1695809520662,0.29296875,-0.013671875,-0.9794922,0.0,-0.28125,0.15625,0.0,0.0,0.0
632,1695809520691,0.2939453,-0.015625,-0.96972656,-0.09375,-0.46875,0.125,0.0,0.0,0.0
633,1695809520720,0.29003906,-0.017578125,-0.99121094,-0.28125,-0.25,-0.1875,-18.75,-14.375,-163.375
634,1695809520783,0.28808594,-0.009765625,-0.9814453,-0.09375,-0.25,-0.1875,0.0,0.0,0.0
635,1695809520812,0.29101562,-0.0087890625,-0.97753906,-0.0625,-0.0625,-0.125,0.0,0.0,0.0
636,1695809520840,0.29589844,-0.026367188,-0.9873047,-0.34375,-0.125,0.0,0.0,0.0,0.0
637,1695809520901,0.2919922,-0.018554688,-0.9736328,-0.0625,-0.0625,-0.25,0.0,0.0,0.0
638,1695809520931,0.2919922,-0.0146484375,-0.9892578,-0.34375,-0.3125,0.0625,0.0,0.0,0.0
639,1695809520960,0.28710938,-0.01953125,-0.99316406,-0.40625,-0.3125,-0.125,0.0,0.0,0.0
640,1695809521021,0.28710938,-0.020507812,-0.9814453,-0.0625,0.0625,-0.0625,0.0,0.0,0.0
641,1695809521052,0.29003906,-0.020507812,-0.9863281,-0.15625,0.0625,-0.25,0.0,0.0,0.0
642,1695809521082,0.28320312,-0.0146484375,-0.9863281,0.0,-0.375,-0.4375,0.0,0.0,0.0
643,1695809521144,0.29492188,-0.0126953125,-0.9951172,-0.09375,0.125,-0.1875,0.0,0.0,0.0
644,1695809521173,0.29785156,-0.015625,-0.97753906,-0.34375,0.0625,-0.125,0.0,0.0,0.0
645,1695809521200,0.29101562,-0.01953125,-0.9824219,-0.09375,-0.25,-0.1875,-18.625,-13.75,-164.875
646,1695809521262,0.28710938,-0.018554688,-0.97753906,-0.15625,0.0,-0.3125,0.0,0.0,0.0
647,1695809521291,0.2939453,-0.022460938,-0.9814453,-0.09375,-0.1875,-0.125,0.0,0.0,0.0
648,1695809521321,0.2919922,-0.024414062,-0.9794922,0.125,0.0,0.0,0.0,0.0,0.0
649,1695809521383,0.2939453,-0.017578125,-0.984375,-0.21875,0.0625,-0.1875,0.0,0.0,0.0
650,1695809521410,0.29296875,-0.021484375,-0.9794922,0.125,0.25,-0.125,0.0,0.0,0.0
651,1695809521441,0.28710938,-0.026367188,-0.98339844,-0.09375,-0.125,-0.0625,0.0,0.0,0.0
652,1695809521500,0.29589844,-0.00390625,-0.9736328,-0.21875,-0.125,-0.125,0.0,0.0,0.0
653,1695809521532,0.28710938,-0.009765625,-0.9785156,-0.0625,-0.0625,-0.1875,0.0,0.0,0.0
654,1695809521560,0.29882812,-0.013671875,-0.9794922,-0.0625,-0.0625,-0.125,0.0,0.0,0.0
655,1695809521621,0.29101562,-0.015625,-0.9794922,0.0,-0.65625,-0.125,0.0,0.0,0.0
656,1695809521652,0.29101562,-0.022460938,-0.97265625,-0.0625,-0.3125,-0.125,0.0,0.0,0.0
657,1695809521682,0.29296875,-0.0126953125,-0.9785156,-0.40625,-0.1875,-0.3125,0.0,0.0,0.0
658,1695809521742,0.29101562,-0.0107421875,-0.9980469,0.0,-0.125,-0.25,-17.875,-14.8125,-163.875
659,1695809521772,0.2939453,-0.01953125,-0.9921875,-0.09375,-0.1875,-0.1875,0.0,0.0,0.0
660,1695809521802,0.29003906,-0.016601562,-0.98046875,-0.28125,-0.375,-0.375,0.0,0.0,0.0
661,1695809521860,0.29101562,-0.0126953125,-0.99316406,-0.09375,-0.0625,-0.375,0.0,0.0,0.0
662,1695809521893,0.29589844,-0.013671875,-0.9902344,-0.09375,-0.25,-0.25,0.0,0.0,0.0
663,1695809521923,0.2841797,-0.0146484375,-0.984375,-0.0625,-0.1875,-0.25,0.0,0.0,0.0
664,1695809521983,0.2890625,-0.026367188,-0.9863281,-0.15625,-0.25,-0.125,0.0,0.0,0.0
665,1695809522012,0.29882812,-0.021484375,-0.97558594,-0.0625,0.0625,-0.375,0.0,0.0,0.0
666,1695809522042,0.29101562,-0.0048828125,-0.98046875,-0.09375,0.0625,-0.25,0.0,0.0,0.0
667,1695809522103,0.29003906,-0.020507812,-0.9824219,-0.53125,-0.375,-0.25,0.0,0.0,0.0
668,1695809522133,0.28808594,-0.017578125,-0.984375,-0.09375,0.125,-0.25,0.0,0.0,0.0
669,1695809522162,0.29003906,-0.017578125,-0.9736328,-0.09375,-0.46875,-0.25,0.0,0.0,0.0
670,1695809522222,0.28320312,-0.0107421875,-0.99121094,-0.46875,-0.3125,-0.25,-18.875,-13.75,-163.875
671,1695809522254,0.2841797,-0.0146484375,-0.9765625,0.0625,0.125,-0.0625,0.0,0.0,0.0
672,1695809522281,0.28515625,-0.0126953125,-0.9794922,-0.0625,-0.1875,-0.0625,0.0,0.0,0.0
673,1695809522372,0.29296875,-0.016601562,-0.98046875,0.1875,-0.0625,-0.0625,0.0,0.0,0.0
674,1695809522376,0.2890625,-0.01953125,-0.99121094,-0.09375,-0.375,-0.0625,0.0,0.0,0.0
675,1695809522403,0.29003906,-0.005859375,-0.9814453,0.1875,-0.125,0.0625,0.0,0.0,0.0
676,1695809522461,0.2841797,-0.0146484375,-0.9824219,-0.15625,-0.46875,0.0625,0.0,0.0,0.0
677,1695809522489,0.29882812,-0.015625,-0.9707031,0.0625,-0.1875,0.0,0.0,0.0,0.0
678,1695809522519,0.296875,-0.0234375,-0.9902344,-0.0625,-0.1875,0.1875,0.0,0.0,0.0
679,1695809522581,0.29492188,-0.020507812,-0.9824219,0.125,-0.1875,0.0,0.0,0.0,0.0
680,1695809522611,0.28125,-0.01953125,-0.984375,-0.21875,-0.4375,0.125,0.0,0.0,0.0
681,1695809522641,0.29492188,-0.015625,-0.9902344,-0.15625,-0.125,-0.125,0.0,0.0,0.0
682,1695809522702,0.28320312,-0.018554688,-0.9736328,0.25,-0.0625,-0.0625,0.0,0.0,0.0
683,1695809522732,0.29589844,-0.015625,-0.98535156,-0.59375,-0.375,-0.1875,-19.5,-14.375,-166.5625
684,1695809522763,0.28515625,-0.024414062,-0.984375,0.0,-0.3125,-0.125,0.0,0.0,0.0
685,1695809522822,0.29785156,-0.016601562,-0.9863281,-0.0625,0.0625,0.0,0.0,0.0,0.0
686,1695809522849,0.2841797,-0.0126953125,-0.9785156,-0.53125,-0.0625,-0.1875,0.0,0.0,0.0
687,1695809522880,0.29003906,-0.013671875,-0.9902344,0.5625,0.1875,-0.0625,0.0,0.0,0.0
688,1695809522942,0.28515625,-0.0078125,-0.98046875,-0.28125,-0.1875,0.0625,0.0,0.0,0.0
689,1695809522971,0.296875,-0.0126953125,-0.99316406,-0.0625,0.0,0.0,0.0,0.0,0.0
690,1695809523002,0.2841797,-0.020507812,-0.97753906,0.375,0.4375,0.0625,0.0,0.0,0.0
691,1695809523061,0.28320312,-0.013671875,-0.9873047,-0.40625,-0.4375,0.1875,0.0,0.0,0.0
692,1695809523094,0.28808594,-0.016601562,-0.9824219,0.125,0.1875,0.1875,0.0,0.0,0.0
693,1695809523124,0.2841797,-0.015625,-0.9785156,-0.28125,0.0625,0.0625,0.0,0.0,0.0
694,1695809523182,0.29492188,-0.01171875,-0.98828125,0.5,-0.3125,-0.125,0.0,0.0,0.0
695,1695809523213,0.28808594,-0.022460938,-0.9736328,-0.0625,-0.1875,0.125,-18.625,-13.4375,-163.875
696,1695809523242,0.29296875,-0.0068359375,-0.9794922,-0.78125,-0.59375,-0.0625,0.0,0.0,0.0
697,1695809523302,0.29101562,-0.020507812,-0.9785156,0.0625,0.125,0.0625,0.0,0.0,0.0
698,1695809523332,0.27734375,-0.021484375,-0.98046875,-0.65625,-0.375,0.125,0.0,0.0,0.0
699,1695809523366,0.3017578,-0.017578125,-0.9824219,0.0,-0.0625,-0.125,0.0,0.0,0.0
700,1695809523422,0.2939453,-0.024414062,-0.98535156,0.0625,-0.125,-0.25,0.0,0.0,0.0
701,1695809523452,0.28222656,-0.021484375,-0.98535156,-0.34375,-0.25,-0.25,0.0,0.0,0.0
702,1695809523484,0.30078125,-0.0068359375,-0.98046875,0.0625,-0.25,-0.0625,0.0,0.0,0.0
703,1695809523539,0.2841797,-0.020507812,-0.97265625,-0.21875,-0.25,-0.0625,0.0,0.0,0.0
704,1695809523570,0.30273438,-0.021484375,-0.98046875,-0.28125,-0.4375,-0.0625,0.0,0.0,0.0
705,1695809523603,0.28710938,-0.0126953125,-0.9794922,-0.40625,-0.3125,-0.25,0.0,0.0,0.0
706,1695809523661,0.2890625,-0.0107421875,-0.9873047,-0.0625,0.0,-0.125,0.0,0.0,0.0
707,1695809523692,0.28515625,-0.013671875,-0.98535156,-0.09375,0.0625,-0.0625,0.0,0.0,0.0
708,1695809523721,0.29296875,-0.0078125,-1.0019531,-0.15625,-0.0625,-0.0625,-18.3125,-13.4375,-163.5625
709,1695809523781,0.296875,-0.01171875,-0.98535156,0.125,0.125,0.125,0.0,0.0,0.0
710,1695809523813,0.29003906,-0.020507812,-0.9873047,-0.15625,-0.125,0.25,0.0,0.0,0.0
711,1695809523841,0.29589844,-0.0087890625,-0.99316406,0.0,-0.1875,0.1875,0.0,0.0,0.0
712,1695809523904,0.28808594,-0.024414062,-0.98046875,-0.0625,0.0625,0.1875,0.0,0.0,0.0
713,1695809523934,0.29003906,-0.017578125,-0.9785156,-0.09375,-0.3125,-0.0625,0.0,0.0,0.0
714,1695809523964,0.296875,-0.015625,-0.9863281,0.1875,-0.125,-0.0625,0.0,0.0,0.0
715,1695809524026,0.29003906,-0.018554688,-0.98046875,-0.21875,-0.375,0.0,0.0,0.0,0.0
716,1695809524053,0.28808594,-0.017578125,-0.97558594,-0.15625,-0.46875,-0.0625,0.0,0.0,0.0
717,1695809524087,0.2841797,-0.01953125,-0.9794922,-0.09375,-0.125,0.125,0.0,0.0,0.0
718,1695809524141,0.2841797,-0.009765625,-0.9794922,-0.0625,0.0,-0.125,0.0,0.0,0.0
719,1695809524171,0.2998047,-0.015625,-0.99121094,-0.09375,-0.1875,-0.3125,0.0,0.0,0.0
720,1695809524202,0.27539062,-0.021484375,-0.98828125,-0.09375,-0.1875,-0.25,-18.0,-13.3125,-163.375
721,1695809524260,0.2841797,-0.018554688,-0.9873047,-0.09375,-0.25,-0.1875,0.0,0.0,0.0
722,1695809524292,0.29492188,-0.0234375,-0.97753906,-0.21875,0.0,0.125,0.0,0.0,0.0
723,1695809524322,0.2890625,-0.0048828125,-0.9765625,-0.0625,0.125,0.0,0.0,0.0,0.0
724,1695809524380,0.29492188,-0.015625,-0.9824219,-0.28125,-0.125,-0.125,0.0,0.0,0.0
725,1695809524411,0.29882812,-0.015625,-0.9873047,0.3125,0.125,0.0,0.0,0.0,0.0
726,1695809524444,0.30078125,-0.016601562,-0.97265625,0.0625,0.0,-0.125,0.0,0.0,0.0
727,1695809524500,0.2890625,-0.018554688,-0.9902344,-0.09375,-0.125,-0.1875,0.0,0.0,0.0
728,1695809524530,0.29003906,-0.024414062,-0.98339844,0.0625,0.0625,0.0625,0.0,0.0,0.0
729,1695809524559,0.29101562,-0.0126953125,-0.9902344,-0.0625,0.0,-0.0625,0.0,0.0,0.0
730,1695809524653,0.27929688,-0.021484375,-0.98535156,-0.21875,0.125,0.25,0.0,0.0,0.0
731,1695809524657,0.28027344,-0.01953125,-0.9785156,-0.0625,-0.0625,0.125,0.0,0.0,0.0
732,1695809524680,0.2939453,-0.013671875,-0.99609375,-0.0625,0.0,-0.0625,0.0,0.0,0.0
733,1695809524742,0.28808594,-0.017578125,-0.9873047,-0.0625,0.25,-0.1875,-18.75,-13.3125,-163.375
734,1695809524772,0.2998047,-0.016601562,-0.98535156,-0.15625,-0.0625,-0.0625,0.0,0.0,0.0
735,1695809524802,0.30078125,-0.016601562,-0.9902344,0.125,-0.46875,0.0,0.0,0.0,0.0
736,1695809524861,0.28027344,-0.01953125,-0.99121094,-0.46875,-0.1875,-0.125,0.0,0.0,0.0
737,1695809524891,0.30273438,-0.015625,-1.0039062,-0.09375,-0.125,-0.0625,0.0,0.0,0.0
738,1695809524927,0.29101562,-0.022460938,-0.9785156,-0.09375,-0.375,-0.125,0.0,0.0,0.0
739,1695809524982,0.29296875,-0.0087890625,-0.99121094,-0.28125,-0.375,-0.1875,0.0,0.0,0.0
740,1695809525011,0.28808594,-0.013671875,-0.9736328,0.0625,-0.1875,-0.0625,0.0,0.0,0.0
741,1695809525045,0.29003906,-0.016601562,-0.9824219,-0.28125,-0.3125,-0.1875,0.0,0.0,0.0
742,1695809525101,0.2841797,-0.020507812,-0.9765625,-0.09375,-0.25,-0.25,0.0,0.0,0.0
743,1695809525132,0.28710938,-0.020507812,-0.98339844,-0.09375,-0.1875,0.0625,0.0,0.0,0.0
744,1695809525161,0.2861328,-0.013671875,-0.9921875,-0.21875,-0.125,-0.0625,0.0,0.0,0.0
745,1695809525223,0.29785156,-0.022460938,-0.98535156,0.0625,-0.0625,-0.1875,-19.8125,-14.375,-163.6875
746,1695809525252,0.29882812,-0.0146484375,-0.9736328,-0.09375,-0.125,-0.25,0.0,0.0,0.0
747,1695809525282,0.29003906,-0.01953125,-0.98828125,-0.21875,0.0,-0.0625,0.0,0.0,0.0
748,1695809525343,0.296875,-0.0087890625,-0.9814453,-0.0625,-0.125,0.0,0.0,0.0,0.0
749,1695809525372,0.29785156,-0.0146484375,-0.99316406,-0.0625,-0.0625,-0.0625,0.0,0.0,0.0
750,1695809525404,0.29589844,-0.022460938,-0.98828125,0.0,-0.25,-0.1875,0.0,0.0,0.0
751,1695809525462,0.2861328,-0.015625,-0.9824219,-0.09375,0.1875,-0.0625,0.0,0.0,0.0
752,1695809525491,0.29101562,-0.017578125,-0.9951172,-0.0625,0.1875,0.0,0.0,0.0,0.0
753,1695809525581,0.29101562,-0.0146484375,-0.98339844,-0.09375,0.0625,0.0625,0.0,0.0,0.0
754,1695809525585,0.29101562,-0.01953125,-0.9863281,-0.15625,-0.125,-0.125,0.0,0.0,0.0
755,1695809525609,0.28808594,-0.013671875,-0.98535156,-0.09375,-0.1875,0.0,0.0,0.0,0.0
756,1695809525643,0.28808594,-0.021484375,-0.97753906,-0.15625,-0.1875,-0.0625,0.0,0.0,0.0
757,1695809525702,0.29101562,-0.016601562,-0.97753906,-0.09375,-0.59375,-0.25,0.0,0.0,0.0
758,1695809525733,0.2939453,-0.017578125,-0.984375,-0.21875,-0.125,-0.125,-18.4375,-14.375,-165.0625
759,1695809525761,0.29101562,-0.025390625,-0.97753906,-0.0625,-0.0625,-0.3125,0.0,0.0,0.0
760,1695809525820,0.2890625,-0.0126953125,-0.97558594,-0.09375,-0.25,-0.25,0.0,0.0,0.0
761,1695809525849,0.2939453,-0.026367188,-0.98535156,-0.34375,-0.25,-0.125,0.0,0.0,0.0
762,1695809525881,0.29003906,-0.0146484375,-0.99316406,-0.28125,-0.3125,-0.25,0.0,0.0,0.0
763,1695809525941,0.2890625,-0.009765625,-0.9921875,-0.09375,0.125,-0.1875,0.0,0.0,0.0
764,1695809525970,0.29785156,-0.018554688,-0.98339844,-0.09375,-0.25,-0.3125,0.0,0.0,0.0
765,1695809526002,0.2939453,-0.020507812,-0.98828125,-0.34375,-0.25,-0.1875,0.0,0.0,0.0
766,1695809526058,0.29003906,-0.0068359375,-0.9765625,0.125,-0.0625,-0.0625,0.0,0.0,0.0
767,1695809526088,0.28808594,-0.016601562,-0.9824219,-0.15625,-0.0625,-0.1875,0.0,0.0,0.0
768,1695809526118,0.29492188,-0.018554688,-0.98046875,-0.34375,-0.25,-0.125,0.0,0.0,0.0
769,1695809526177,0.28125,-0.016601562,-0.9824219,-0.0625,0.0,-0.1875,0.0,0.0,0.0
770,1695809526210,0.2939453,-0.013671875,-0.98339844,-0.15625,-0.125,-0.25,-17.5625,-15.25,-163.5625
771,1695809526239,0.28808594,-0.01953125,-0.9824219,0.0625,0.0625,-0.25,0.0,0.0,0.0
772,1695809526298,0.28222656,-0.0078125,-0.9892578,-0.40625,0.0,-0.125,0.0,0.0,0.0
773,1695809526329,0.2841797,-0.017578125,-0.9716797,0.125,0.125,-0.1875,0.0,0.0,0.0
774,1695809526358,0.2890625,-0.017578125,-0.9863281,-0.15625,0.125,0.0,0.0,0.0,0.0
775,1695809526418,0.29003906,-0.017578125,-0.97753906,0.25,0.0,-0.1875,0.0,0.0,0.0
776,1695809526448,0.28710938,-0.0234375,-0.984375,-0.09375,0.0,0.0625,0.0,0.0,0.0
777,1695809526478,0.29296875,-0.015625,-0.9814453,-0.15625,0.0625,-0.1875,0.0,0.0,0.0
778,1695809526538,0.29785156,-0.0146484375,-0.9892578,0.0625,0.25,0.0,0.0,0.0,0.0
779,1695809526568,0.2861328,-0.021484375,-0.9814453,-0.34375,-0.3125,-0.125,0.0,0.0,0.0
780,1695809526629,0.2939453,-0.024414062,-0.9765625,-0.09375,-0.1875,-0.0625,0.0,0.0,0.0
781,1695809526658,0.29296875,-0.017578125,-0.984375,-0.21875,-0.3125,0.0625,0.0,0.0,0.0
782,1695809526719,0.29101562,-0.015625,-0.9794922,-0.09375,-0.4375,-0.1875,0.0,0.0,0.0
783,1695809526749,0.29882812,-0.0146484375,-0.98339844,-0.34375,-0.125,-0.125,-17.6875,-12.875,-164.4375
784,1695809526780,0.29589844,-0.016601562,-0.9814453,-0.28125,-0.375,-0.375,0.0,0.0,0.0
785,1695809526810,0.29882812,-0.020507812,-0.9794922,-0.0625,0.0,-0.0625,0.0,0.0,0.0
786,1695809526869,0.29882812,-0.024414062,-0.9785156,-0.46875,-0.1875,-0.25,0.0,0.0,0.0
787,1695809526931,0.28222656,-0.015625,-0.98339844,0.0625,-0.3125,-0.1875,0.0,0.0,0.0
788,1695809526933,0.28808594,-0.0234375,-0.9736328,-0.46875,-0.125,-0.125,0.0,0.0,0.0
789,1695809526989,0.28710938,-0.016601562,-0.99316406,-0.53125,-0.3125,-0.1875,0.0,0.0,0.0
790,1695809527019,0.2919922,-0.015625,-0.9794922,0.125,0.0625,-0.1875,0.0,0.0,0.0
791,1695809527051,0.28808594,-0.015625,-0.9746094,-0.34375,-0.125,-0.125,0.0,0.0,0.0
792,1695809527110,0.28222656,-0.016601562,-0.98339844,0.0,0.0,-0.375,0.0,0.0,0.0
793,1695809527142,0.29589844,-0.016601562,-0.9716797,0.0625,0.125,-0.0625,0.0,0.0,0.0
794,1695809527170,0.29492188,-0.013671875,-0.9902344,-0.28125,-0.4375,-0.1875,0.0,0.0,0.0
795,1695809527229,0.28808594,-0.028320312,-0.9873047,-0.0625,0.0625,0.0625,-17.375,-13.3125,-165.0625
796,1695809527259,0.29101562,-0.01171875,-0.98339844,-0.59375,0.0625,-0.0625,0.0,0.0,0.0
797,1695809527289,0.29785156,-0.0107421875,-0.9765625,0.125,0.0625,-0.0625,0.0,0.0,0.0
798,1695809527352,0.29296875,-0.020507812,-0.99121094,-0.53125,-0.125,0.0625,0.0,0.0,0.0
799,1695809527382,0.29785156,-0.016601562,-0.98046875,-0.09375,-0.25,-0.4375,0.0,0.0,0.0
800,1695809527412,0.2939453,-0.015625,-0.9736328,-0.09375,-0.125,-0.1875,0.0,0.0,0.0
801,1695809527472,0.29101562,-0.018554688,-0.9824219,-0.40625,-0.53125,-0.125,0.0,0.0,0.0
802,1695809527500,0.29589844,-0.016601562,-0.97753906,0.25,-0.25,-0.0625,0.0,0.0,0.0
803,1695809527529,0.29589844,-0.0126953125,-0.9873047,-0.40625,-0.25,0.125,0.0,0.0,0.0
804,1695809527592,0.29003906,-0.01953125,-0.99316406,0.0,-0.25,-0.3125,0.0,0.0,0.0
805,1695809527620,0.2861328,-0.018554688,-0.9814453,-0.21875,0.0,-0.3125,0.0,0.0,0.0
806,1695809527650,0.29492188,-0.0146484375,-0.98339844,0.25,-0.1875,-0.375,0.0,0.0,0.0
807,1695809527711,0.28710938,-0.0087890625,-0.9785156,0.1875,0.0625,-0.1875,0.0,0.0,0.0
808,1695809527740,0.29296875,-0.0107421875,-0.9921875,-0.53125,-0.3125,-0.25,-18.0,-14.375,-163.375
809,1695809527770,0.2998047,-0.0146484375,-0.9716797,0.0,-0.1875,-0.25,0.0,0.0,0.0
810,1695809527832,0.29492188,-0.009765625,-0.97265625,-0.40625,-0.1875,-0.125,0.0,0.0,0.0
811,1695809527863,0.29296875,-0.01171875,-0.9814453,-0.09375,-0.25,-0.25,0.0,0.0,0.0
812,1695809527892,0.2861328,-0.021484375,-0.9863281,0.0625,0.1875,-0.1875,0.0,0.0,0.0
813,1695809527952,0.29492188,-0.009765625,-0.9873047,-0.15625,-0.1875,-0.25,0.0,0.0,0.0
814,1695809527981,0.29101562,-0.022460938,-0.9863281,0.125,0.3125,-0.125,0.0,0.0,0.0
815,1695809528010,0.2841797,0.0,-0.9765625,-0.15625,0.25,0.1875,0.0,0.0,0.0
816,1695809528072,0.29785156,-0.0126953125,-0.9824219,-0.09375,-0.1875,0.125,0.0,0.0,0.0
817,1695809528102,0.2861328,-0.009765625,-0.97558594,-0.15625,-0.1875,0.125,0.0,0.0,0.0
818,1695809528132,0.2841797,-0.0234375,-0.9921875,0.0,-0.4375,0.0625,0.0,0.0,0.0
819,1695809528191,0.29003906,-0.018554688,-0.98046875,0.0,-0.375,0.0625,0.0,0.0,0.0
820,1695809528222,0.296875,-0.017578125,-0.98046875,-0.09375,-0.46875,-0.125,-18.3125,-14.5,-163.875
821,1695809528251,0.2841797,-0.021484375,-0.9716797,-0.0625,-0.4375,0.125,0.0,0.0,0.0
822,1695809528314,0.2919922,-0.0146484375,-0.9941406,-0.28125,-0.1875,0.0625,0.0,0.0,0.0
823,1695809528343,0.2919922,-0.015625,-0.9814453,0.0625,-0.25,-0.125,0.0,0.0,0.0
824,1695809528370,0.2763672,-0.0126953125,-0.9863281,-0.34375,-0.3125,-0.125,0.0,0.0,0.0
825,1695809528466,0.2919922,-0.016601562,-0.9892578,0.0,-0.25,-0.0625,0.0,0.0,0.0
826,1695809528469,0.28808594,-0.020507812,-0.98828125,-0.0625,-0.09375,0.1875,0.0,0.0,0.0
827,1695809528490,0.28320312,-0.024414062,-0.9794922,0.0,-0.28125,0.125,0.0,0.0,0.0
828,1695809528550,0.29492188,-0.0048828125,-0.9736328,0.125,0.28125,-0.0625,0.0,0.0,0.0
829,1695809528580,0.29492188,-0.0078125,-0.9785156,0.25,0.21875,-0.0625,0.0,0.0,0.0
830,1695809528611,0.29589844,-0.01953125,-0.98046875,0.0625,0.03125,-0.125,0.0,0.0,0.0
831,1695809528670,0.3017578,-0.021484375,-0.9794922,0.0625,0.28125,0.0625,0.0,0.0,0.0
832,1695809528700,0.2998047,-0.0146484375,-0.9765625,0.5,0.40625,0.3125,0.0,0.0,0.0
833,1695809528731,0.29003906,-0.013671875,-0.9873047,0.0,-0.03125,0.0625,-17.6875,-14.375,-164.0
834,1695809528826,0.29882812,-0.020507812,-0.98828125,0.3125,-0.03125,0.0625,0.0,0.0,0.0
835,1695809528828,0.29101562,-0.0068359375,-0.98339844,0.0625,0.09375,0.25,0.0,0.0,0.0
836,1695809528853,0.29882812,-0.0146484375,-0.98339844,0.0625,-0.15625,0.125,0.0,0.0,0.0
837,1695809528912,0.2841797,-0.022460938,-0.9785156,0.125,-0.15625,0.0625,0.0,0.0,0.0
838,1695809528944,0.2919922,-0.016601562,-0.9824219,-0.125,-0.09375,-0.125,0.0,0.0,0.0
839,1695809528972,0.29296875,-0.017578125,-0.97265625,0.1875,-0.09375,0.0625,0.0,0.0,0.0
840,1695809529064,0.29492188,-0.015625,-0.9814453,-0.0625,-0.03125,0.0625,0.0,0.0,0.0
841,1695809529067,0.296875,-0.015625,-0.9746094,0.0625,0.03125,-0.1875,0.0,0.0,0.0
842,1695809529092,0.2861328,-0.01953125,-0.98339844,0.0,-0.15625,-0.125,0.0,0.0,0.0
843,1695809529214,0.29101562,-0.025390625,-0.984375,0.0625,-0.03125,-0.0625,0.0,0.0,0.0
844,1695809529218,0.29492188,-0.022460938,-0.9863281,0.0,-0.28125,0.0,0.0,0.0,0.0
845,1695809529221,0.2998047,-0.013671875,-0.9921875,0.0625,-0.15625,0.0625,-17.875,-13.75,-163.875
846,1695809529304,0.28222656,-0.025390625,-0.984375,0.0,-0.15625,0.0,0.0,0.0,0.0
847,1695809529306,0.2939453,-0.0146484375,-0.9814453,-0.125,-0.15625,0.0,0.0,0.0,0.0
848,1695809529333,0.2841797,-0.015625,-0.98828125,0.1875,0.21875,0.0,0.0,0.0,0.0
849,1695809529393,0.2841797,-0.0126953125,-0.97753906,-0.0625,0.03125,0.0,0.0,0.0,0.0
850,1695809529419,0.2998047,-0.0146484375,-0.9902344,0.0625,0.03125,0.0,0.0,0.0,0.0
851,1695809529449,0.2998047,-0.0146484375,-0.98046875,0.375,0.34375,0.0,0.0,0.0,0.0
852,1695809529509,0.29101562,-0.0234375,-0.98535156,0.0,0.28125,0.3125,0.0,0.0,0.0
853,1695809529538,0.2890625,-0.016601562,-0.97753906,0.25,0.03125,0.1875,0.0,0.0,0.0
854,1695809529569,0.2919922,-0.015625,-0.9824219,0.0625,0.34375,0.0625,0.0,0.0,0.0
855,1695809529629,0.29589844,-0.01953125,-0.99121094,0.1875,-0.09375,0.0,0.0,0.0,0.0
856,1695809529659,0.29296875,-0.015625,-0.9873047,0.0625,-0.09375,0.125,0.0,0.0,0.0
857,1695809529691,0.29003906,-0.013671875,-0.97558594,0.0625,-0.09375,0.125,0.0,0.0,0.0
858,1695809529749,0.2998047,-0.021484375,-0.9736328,0.0,-0.15625,-0.0625,-18.75,-15.4375,-164.4375
859,1695809529780,0.2861328,-0.0234375,-0.9765625,-0.125,-0.03125,-0.0625,0.0,0.0,0.0
860,1695809529811,0.28710938,-0.017578125,-0.98828125,-0.125,-0.15625,-0.125,0.0,0.0,0.0
861,1695809529873,0.2998047,-0.022460938,-0.97753906,0.0625,-0.21875,-0.34375,0.0,0.0,0.0
862,1695809529903,0.29003906,-0.025390625,-1.0,-0.1875,0.21875,0.0,0.0,0.0,0.0
863,1695809529931,0.28710938,-0.018554688,-0.9785156,0.1875,-0.09375,0.125,0.0,0.0,0.0
864,1695809529992,0.29589844,-0.025390625,-0.96972656,-0.3125,-0.03125,0.1875,0.0,0.0,0.0
865,1695809530021,0.2939453,-0.01953125,-0.9941406,-0.3125,-0.03125,0.0,0.0,0.0,0.0
866,1695809530081,0.29296875,-0.01953125,-0.9824219,0.1875,-0.21875,0.0625,0.0,0.0,0.0
867,1695809530112,0.28808594,-0.013671875,-0.98828125,-0.25,0.28125,-0.0625,0.0,0.0,0.0
868,1695809530141,0.29003906,-0.0126953125,-0.98046875,0.375,-0.15625,-0.21875,0.0,0.0,0.0
869,1695809530171,0.28515625,-0.0146484375,-0.9824219,0.0625,0.09375,0.0,0.0,0.0,0.0
870,1695809530233,0.296875,-0.017578125,-0.9873047,0.1875,0.40625,-0.0625,-19.8125,-14.375,-165.5
871,1695809530262,0.28710938,-0.025390625,-0.9716797,0.1875,0.09375,-0.1875,0.0,0.0,0.0
872,1695809530291,0.2861328,-0.015625,-0.9980469,-0.25,0.15625,-0.1875,0.0,0.0,0.0
873,1695809530352,0.29785156,-0.0078125,-0.9794922,0.0,-0.21875,0.0,0.0,0.0,0.0
874,1695809530380,0.2861328,-0.024414062,-0.9785156,0.125,0.28125,0.125,0.0,0.0,0.0
875,1695809530411,0.28515625,-0.0126953125,-0.98339844,0.125,-0.03125,-0.125,0.0,0.0,0.0
876,1695809530471,0.2861328,-0.018554688,-0.98535156,0.25,0.09375,-0.21875,0.0,0.0,0.0
877,1695809530501,0.29492188,-0.018554688,-0.9892578,0.4375,0.15625,0.0,0.0,0.0,0.0
878,1695809530531,0.29003906,-0.01953125,-0.9902344,0.125,0.15625,0.0625,0.0,0.0,0.0
879,1695809530620,0.29003906,-0.018554688,-0.9892578,0.0,0.09375,-0.125,0.0,0.0,0.0
880,1695809530622,0.2919922,-0.0078125,-0.9863281,0.0625,0.03125,-0.21875,0.0,0.0,0.0
881,1695809530651,0.29101562,-0.015625,-0.9814453,0.0625,0.28125,-0.125,0.0,0.0,0.0
882,1695809530739,0.2939453,-0.018554688,-0.98339844,0.0,-0.28125,-0.125,0.0,0.0,0.0
883,1695809530741,0.28710938,-0.025390625,-0.99121094,0.0625,0.21875,0.0,-19.5,-12.5625,-164.4375
884,1695809530771,0.28320312,-0.0107421875,-0.984375,-0.125,-0.28125,-0.1875,0.0,0.0,0.0
885,1695809530830,0.29296875,-0.01953125,-0.9746094,0.1875,0.03125,-0.125,0.0,0.0,0.0
886,1695809530860,0.2861328,-0.0234375,-0.98535156,0.0625,0.21875,-0.1875,0.0,0.0,0.0
887,1695809530891,0.296875,-0.016601562,-0.9785156,0.1875,0.15625,-0.40625,0.0,0.0,0.0
888,1695809530956,0.29101562,-0.015625,-0.9892578,0.0625,0.15625,-0.21875,0.0,0.0,0.0
889,1695809530982,0.2890625,-0.015625,-0.98046875,-0.125,-0.21875,-0.125,0.0,0.0,0.0
890,1695809531012,0.28320312,-0.013671875,-0.9794922,-0.125,-0.15625,-0.28125,0.0,0.0,0.0
891,1695809531072,0.28808594,-0.016601562,-0.9746094,-0.125,-0.09375,-0.28125,0.0,0.0,0.0
892,1695809531104,0.28515625,-0.020507812,-0.99316406,0.0,0.15625,-0.03125,0.0,0.0,0.0
893,1695809531130,0.29296875,-0.013671875,-0.97558594,-0.125,0.09375,-0.15625,0.0,0.0,0.0
894,1695809531192,0.29492188,-0.020507812,-0.9814453,-0.3125,-0.09375,-0.28125,0.0,0.0,0.0
895,1695809531220,0.296875,-0.017578125,-0.9814453,-0.34375,0.21875,0.15625,-18.4375,-13.3125,-164.4375
896,1695809531256,0.29101562,-0.022460938,-0.9765625,0.25,-0.21875,0.21875,0.0,0.0,0.0
897,1695809531311,0.28808594,-0.01953125,-0.9746094,0.0,0.21875,0.34375,0.0,0.0,0.0
898,1695809531344,0.29492188,-0.0146484375,-0.9746094,0.5,0.46875,-0.09375,0.0,0.0,0.0
899,1695809531371,0.2890625,-0.013671875,-0.9824219,0.625,0.34375,-0.28125,0.0,0.0,0.0
900,1695809531431,0.29003906,-0.0126953125,-0.98339844,0.0,0.28125,-0.15625,0.0,0.0,0.0
901,1695809531493,0.29882812,-0.018554688,-0.9765625,0.375,0.21875,-0.21875,0.0,0.0,0.0
902,1695809531496,0.28808594,-0.01953125,-0.96875,-0.1875,-0.21875,0.34375,0.0,0.0,0.0
903,1695809531552,0.29296875,-0.01171875,-0.9941406,-0.71875,0.03125,0.65625,0.0,0.0,0.0
904,1695809531582,0.29492188,-0.01953125,-0.96777344,-0.1875,-0.28125,0.65625,0.0,0.0,0.0
905,1695809531616,0.29101562,-0.018554688,-0.9814453,-0.53125,-0.9375,0.15625,0.0,0.0,0.0
906,1695809531671,0.2783203,-0.018554688,-0.984375,0.25,-0.4375,-0.21875,0.0,0.0,0.0
907,1695809531704,0.28222656,-0.026367188,-0.97753906,0.1875,-0.03125,-0.15625,0.0,0.0,0.0
908,1695809531732,0.296875,-0.018554688,-0.9824219,0.0,0.15625,0.03125,-17.5625,-13.75,-163.875
909,1695809531792,0.29003906,-0.029296875,-0.9785156,-0.46875,-0.09375,0.21875,0.0,0.0,0.0
910,1695809531818,0.30566406,-0.022460938,-0.9873047,-0.34375,-0.5,0.28125,0.0,0.0,0.0
911,1695809531849,0.2890625,-0.015625,-0.98535156,-0.1875,-0.34375,0.28125,0.0,0.0,0.0
