,timestamp,accel_x,accel_y,accel_z,gyro_x,gyro_y,gyro_z,mag_x,mag_y,mag_z
0,1696168219343,-1.328125,0.00390625,-0.016601562,-6.25,-12.59375,-8.625,0.0,0.0,0.0
1,1696168219372,-1.2841797,0.08300781,0.026367188,3.28125,-35.34375,-10.5625,0.0,0.0,0.0
2,1696168219402,-1.1884766,0.095703125,0.2607422,-29.75,-73.6875,-25.21875,0.0,0.0,0.0
3,1696168219462,-1.1318359,0.01171875,-0.018554688,-83.09375,-72.21875,-54.03125,0.0,0.0,0.0
4,1696168219493,-1.0175781,-0.2861328,0.015625,-84.0625,-20.71875,-68.375,0.0,0.0,0.0
5,1696168219522,-1.2001953,-0.20703125,0.30664062,-25.28125,-35.59375,-89.75,0.0,0.0,0.0
6,1696168219582,-1.4082031,0.0546875,0.3076172,2.3125,-53.0,-108.65625,-43.1875,-9.4375,-90.5
7,1696168219612,-1.0830078,0.17578125,-0.05078125,13.90625,-96.875,-105.90625,0.0,0.0,0.0
8,1696168219642,-0.8417969,-0.055664062,0.15820312,-79.84375,-72.03125,-126.90625,0.0,0.0,0.0
9,1696168219702,-0.6035156,-0.29296875,0.22363281,-48.71875,-35.96875,-102.5,0.0,0.0,0.0
10,1696168219732,-0.60546875,-0.5332031,0.06933594,7.96875,-25.96875,-79.78125,0.0,0.0,0.0
11,1696168219762,-0.5205078,-0.26367188,0.12890625,30.5,-29.75,-52.4375,0.0,0.0,0.0
12,1696168219822,-0.39648438,-0.203125,0.09082031,28.90625,-9.65625,-19.84375,0.0,0.0,0.0
13,1696168219852,-0.47265625,-0.40625,0.23144531,7.375,36.125,-3.0625,0.0,0.0,0.0
14,1696168219882,-0.71484375,-0.5732422,0.16308594,10.84375,47.15625,6.875,0.0,0.0,0.0
15,1696168219945,-0.6669922,-0.76464844,0.52246094,47.96875,33.6875,-5.9375,0.0,0.0,0.0
16,1696168219975,-0.8798828,-0.20410156,0.22363281,-9.53125,55.34375,24.875,0.0,0.0,0.0
17,1696168220003,-1.6943359,-0.65722656,0.47265625,19.03125,91.21875,26.34375,0.0,0.0,0.0
18,1696168220065,-0.73339844,-0.43945312,0.09765625,47.09375,43.5,8.21875,0.0,0.0,0.0
19,1696168220095,-1.1855469,-0.1796875,0.14648438,13.03125,42.40625,57.0625,-33.625,-18.4375,-86.4375
20,1696168220125,-1.1289062,-0.049804688,-0.01171875,-24.78125,57.25,63.03125,0.0,0.0,0.0
21,1696168220185,-1.2519531,-0.25,-0.06738281,-22.71875,50.8125,53.625,0.0,0.0,0.0
22,1696168220214,-1.1630859,-0.32226562,-0.06933594,-23.28125,46.1875,46.90625,0.0,0.0,0.0
23,1696168220248,-1.03125,-0.13574219,-0.1328125,-30.34375,40.21875,54.125,0.0,0.0,0.0
24,1696168220306,-1.1396484,-0.0703125,-0.13183594,-15.625,35.8125,66.625,0.0,0.0,0.0
25,1696168220336,-1.0986328,-0.18945312,-0.14746094,-15.34375,16.34375,63.78125,0.0,0.0,0.0
26,1696168220395,-1.0791016,-0.13574219,-0.16210938,-8.5625,10.78125,61.625,0.0,0.0,0.0
27,1696168220425,-0.953125,-0.17382812,-0.13378906,11.28125,4.5625,61.875,0.0,0.0,0.0
28,1696168220456,-0.87597656,-0.16992188,-0.109375,42.09375,-7.9375,47.96875,0.0,0.0,0.0
29,1696168220485,-0.81347656,-0.12207031,-0.08691406,36.125,-6.90625,34.40625,0.0,0.0,0.0
30,1696168220545,-0.8154297,-0.05078125,-0.06640625,36.0625,6.03125,34.53125,0.0,0.0,0.0
31,1696168220575,-0.8232422,-0.11230469,-0.0029296875,13.53125,14.09375,31.96875,-45.125,-2.0625,-95.125
32,1696168220606,-0.9199219,-0.13378906,-0.036132812,-1.90625,17.8125,21.84375,0.0,0.0,0.0
33,1696168220665,-0.9033203,-0.13867188,-0.0703125,-1.3125,9.09375,21.46875,0.0,0.0,0.0
34,1696168220696,-0.93652344,-0.14257812,-0.07421875,-19.71875,18.71875,6.34375,0.0,0.0,0.0
35,1696168220724,-1.2558594,-0.029296875,-0.12988281,2.3125,55.59375,20.4375,0.0,0.0,0.0
36,1696168220784,-1.0527344,0.07128906,-0.2939453,2.5,13.84375,15.71875,0.0,0.0,0.0
37,1696168220814,-0.9970703,0.17675781,-0.068359375,17.625,28.0625,22.375,0.0,0.0,0.0
38,1696168220846,-1.2060547,-0.024414062,-0.13671875,17.75,25.5,11.9375,0.0,0.0,0.0
39,1696168220906,-1.3007812,0.390625,-0.15625,-4.03125,-6.96875,5.59375,0.0,0.0,0.0
40,1696168220935,-1.0117188,0.091796875,-0.15332031,-9.90625,-23.75,-2.6875,0.0,0.0,0.0
41,1696168220968,-1.0039062,-0.03125,-0.028320312,-23.28125,-43.71875,-30.15625,0.0,0.0,0.0
42,1696168221024,-1.2958984,0.016601562,-0.0048828125,-51.28125,-57.09375,-57.625,0.0,0.0,0.0
43,1696168221055,-1.1396484,-0.14453125,0.033203125,-42.0625,-58.59375,-65.625,0.0,0.0,0.0
44,1696168221087,-1.0546875,-0.24316406,0.07519531,-16.875,-63.4375,-83.03125,-45.625,-2.1875,-93.5
45,1696168221144,-1.1337891,-0.060546875,0.072265625,-43.90625,-44.875,-114.8125,0.0,0.0,0.0
46,1696168221174,-1.3818359,0.14160156,-0.06738281,14.3125,-62.28125,-102.875,0.0,0.0,0.0
47,1696168221206,-1.2373047,-0.036132812,0.041015625,-23.6875,-96.21875,-114.59375,0.0,0.0,0.0
48,1696168221268,-0.9345703,-0.20703125,0.09082031,-50.5625,-51.15625,-110.6875,0.0,0.0,0.0
49,1696168221296,-0.7753906,-0.328125,0.15332031,-35.15625,-45.25,-111.59375,0.0,0.0,0.0
50,1696168221324,-0.65722656,-0.22851562,0.087890625,6.625,-47.1875,-84.71875,0.0,0.0,0.0
51,1696168221390,-0.59765625,-0.20117188,0.1015625,15.625,-40.71875,-57.21875,0.0,0.0,0.0
52,1696168221416,-0.43847656,-0.24316406,0.14453125,14.09375,-9.71875,-26.9375,0.0,0.0,0.0
53,1696168221444,-0.47460938,-0.37109375,0.1953125,10.40625,-1.25,3.90625,0.0,0.0,0.0
54,1696168221506,-0.5341797,-0.50390625,0.052734375,-0.25,30.875,3.21875,0.0,0.0,0.0
55,1696168221537,-0.40429688,-0.4658203,0.20996094,9.25,36.71875,15.3125,0.0,0.0,0.0
56,1696168221565,-1.1328125,-0.78808594,0.08984375,-8.6875,42.71875,10.71875,-29.875,-22.9375,-85.5625
57,1696168221625,-1.5390625,-0.62597656,0.3857422,22.1875,31.40625,32.8125,0.0,0.0,0.0
58,1696168221670,-0.61035156,-0.2998047,0.068359375,16.84375,32.53125,14.625,0.0,0.0,0.0
59,1696168221683,-1.0722656,-0.56152344,0.13574219,-7.9375,73.09375,66.09375,0.0,0.0,0.0
60,1696168221747,-1.2080078,-0.4345703,0.08203125,0.28125,49.96875,49.25,0.0,0.0,0.0
61,1696168221779,-0.79589844,-0.01953125,0.0078125,-9.90625,55.03125,43.5,0.0,0.0,0.0
62,1696168221805,-1.0253906,-0.26464844,0.034179688,-21.5,50.8125,55.40625,0.0,0.0,0.0
63,1696168221867,-1.0566406,-0.28808594,-0.087890625,-19.84375,31.1875,36.0,0.0,0.0,0.0
64,1696168221904,-0.88671875,-0.001953125,-0.111328125,-23.8125,27.375,43.0,0.0,0.0,0.0
65,1696168221926,-1.1152344,-0.13183594,-0.19335938,-28.65625,25.0,53.75,0.0,0.0,0.0
66,1696168221987,-1.2353516,-0.4091797,-0.13671875,-17.28125,14.09375,52.59375,0.0,0.0,0.0
67,1696168222017,-1.1357422,-0.40234375,-0.13378906,23.3125,11.9375,58.28125,0.0,0.0,0.0
68,1696168222044,-0.87109375,-0.19824219,-0.13964844,66.625,-9.53125,47.71875,0.0,0.0,0.0
69,1696168222106,-0.83984375,0.0029296875,-0.13964844,54.96875,9.03125,32.8125,-43.8125,-7.625,-95.3125
70,1696168222135,-0.81347656,-0.0146484375,-0.00390625,18.40625,26.15625,32.6875,0.0,0.0,0.0
71,1696168222164,-0.8652344,-0.045898438,-0.0390625,-6.96875,15.90625,29.90625,0.0,0.0,0.0
72,1696168222224,-0.91015625,-0.14941406,-0.07910156,-24.25,12.5625,23.375,0.0,0.0,0.0
73,1696168222254,-0.9316406,-0.27734375,-0.095703125,-9.0,10.40625,20.1875,0.0,0.0,0.0
74,1696168222285,-0.9736328,-0.22558594,-0.1015625,-11.0,13.78125,8.28125,0.0,0.0,0.0
75,1696168222349,-1.0537109,-0.11035156,-0.061523438,-2.34375,23.3125,10.46875,0.0,0.0,0.0
76,1696168222376,-1.1386719,-0.02734375,-0.16894531,-3.96875,24.09375,19.75,0.0,0.0,0.0
77,1696168222405,-1.1474609,0.107421875,-0.25195312,9.8125,20.4375,24.65625,0.0,0.0,0.0
78,1696168222467,-1.2412109,-0.09863281,-0.17089844,15.5,19.5625,31.125,0.0,0.0,0.0
79,1696168222495,-1.3339844,-0.13964844,-0.15332031,7.8125,6.6875,4.25,0.0,0.0,0.0
80,1696168222526,-1.2431641,0.16992188,-0.14746094,8.96875,-15.28125,-9.0625,0.0,0.0,0.0
81,1696168222585,-1.1357422,0.13964844,-0.020507812,-39.5,-58.4375,-16.375,-48.125,0.625,-99.8125
82,1696168222615,-0.9550781,-0.033203125,-0.0078125,-82.15625,-89.1875,-40.125,0.0,0.0,0.0
83,1696168222677,-0.96191406,-0.3359375,0.13476562,-84.375,-78.75,-75.625,0.0,0.0,0.0
84,1696168222705,-1.0527344,-0.3095703,0.12402344,-37.75,-71.125,-97.5625,0.0,0.0,0.0
85,1696168222734,-1.2236328,-0.095703125,0.16210938,-50.84375,-38.59375,-94.4375,0.0,0.0,0.0
86,1696168222768,-1.2333984,-0.078125,-0.009765625,-14.3125,-71.3125,-78.8125,0.0,0.0,0.0
87,1696168222825,-1.0732422,-0.25195312,0.051757812,-1.53125,-65.5625,-112.75,0.0,0.0,0.0
88,1696168222855,-0.8671875,-0.26757812,0.13183594,9.1875,-55.25,-115.96875,0.0,0.0,0.0
89,1696168222887,-0.796875,-0.09765625,0.25,-16.1875,-38.34375,-108.28125,0.0,0.0,0.0
90,1696168222945,-0.7158203,-0.20605469,0.171875,-6.3125,-27.25,-67.875,0.0,0.0,0.0
91,1696168222977,-0.64453125,-0.33496094,0.06738281,-2.03125,-6.25,-48.21875,0.0,0.0,0.0
92,1696168223004,-0.5439453,-0.453125,0.23046875,29.84375,-13.6875,-35.71875,0.0,0.0,0.0
93,1696168223064,-0.46289062,-0.50097656,0.18652344,13.84375,11.15625,-11.0625,0.0,0.0,0.0
94,1696168223095,-0.55078125,-0.51660156,0.18457031,31.0,22.5,12.625,-27.125,-23.0625,-82.25
95,1696168223124,-0.6279297,-0.5390625,0.2685547,28.0625,57.28125,18.0,0.0,0.0,0.0
96,1696168223184,-0.94433594,-0.60058594,0.23339844,5.59375,47.65625,7.625,0.0,0.0,0.0
97,1696168223215,-1.3564453,-0.4560547,0.27441406,23.96875,51.125,23.59375,0.0,0.0,0.0
98,1696168223244,-0.8222656,-0.40234375,0.23339844,23.71875,26.0,13.28125,0.0,0.0,0.0
99,1696168223307,-0.9707031,-0.39257812,0.09375,17.5,44.25,49.71875,0.0,0.0,0.0
100,1696168223335,-1.2792969,-0.4013672,0.0703125,-5.8125,60.09375,49.25,0.0,0.0,0.0
101,1696168223368,-0.9042969,-0.3232422,0.09082031,-13.03125,63.09375,33.0625,0.0,0.0,0.0
102,1696168223426,-0.89941406,-0.26953125,0.08984375,-28.6875,59.125,54.125,0.0,0.0,0.0
103,1696168223456,-1.0458984,-0.22851562,-0.032226562,-17.78125,48.4375,53.4375,0.0,0.0,0.0
104,1696168223485,-1.0878906,-0.23632812,-0.051757812,-5.4375,24.09375,37.71875,0.0,0.0,0.0
105,1696168223545,-0.8623047,-0.06738281,-0.111328125,-32.90625,28.1875,44.53125,0.0,0.0,0.0
106,1696168223578,-1.0654297,-0.19140625,-0.18457031,-17.78125,19.28125,56.4375,-42.875,-13.4375,-96.8125
107,1696168223609,-1.1328125,-0.40820312,-0.14941406,-13.03125,7.96875,44.84375,0.0,0.0,0.0
108,1696168223668,-1.0693359,-0.29003906,-0.140625,2.3125,13.84375,42.96875,0.0,0.0,0.0
109,1696168223697,-0.9716797,-0.18261719,-0.15625,51.375,2.84375,48.75,0.0,0.0,0.0
110,1696168223725,-0.8798828,-0.10839844,-0.09863281,51.0625,6.5625,42.09375,0.0,0.0,0.0
111,1696168223789,-0.8515625,-0.033203125,-0.087890625,19.34375,16.78125,37.75,0.0,0.0,0.0
112,1696168223816,-0.8203125,-0.14550781,-0.021484375,8.84375,17.75,29.53125,0.0,0.0,0.0
113,1696168223846,-0.9794922,-0.11328125,-0.07324219,-4.46875,21.90625,21.84375,0.0,0.0,0.0
114,1696168223908,-0.95214844,-0.2265625,-0.02734375,-2.875,6.28125,18.28125,0.0,0.0,0.0
115,1696168223938,-0.9980469,-0.1171875,-0.06933594,-7.9375,13.09375,11.59375,0.0,0.0,0.0
116,1696168223967,-1.0527344,-0.0146484375,-0.10839844,-11.375,9.75,12.375,0.0,0.0,0.0
117,1696168224025,-1.0888672,-0.015625,-0.29492188,-20.21875,30.875,16.09375,0.0,0.0,0.0
118,1696168224056,-1.1240234,0.11328125,-0.20898438,-5.875,20.0,28.0,0.0,0.0,0.0
119,1696168224087,-1.1328125,-0.060546875,-0.14453125,-9.59375,11.21875,32.8125,-49.9375,-1.4375,-100.375
120,1696168224148,-1.1865234,-0.12402344,-0.06347656,-7.28125,-8.6875,10.71875,0.0,0.0,0.0
121,1696168224177,-1.3789062,-0.10546875,-0.107421875,1.75,-16.5625,-11.5625,0.0,0.0,0.0
122,1696168224207,-1.1894531,0.033203125,-0.07421875,-14.1875,-28.46875,-19.84375,0.0,0.0,0.0
123,1696168224270,-0.9970703,-0.0107421875,0.13476562,-49.9375,-68.0,-34.8125,0.0,0.0,0.0
124,1696168224295,-1.0576172,-0.16015625,-0.07128906,-59.09375,-69.0,-63.5,0.0,0.0,0.0
125,1696168224325,-1.0283203,-0.18359375,0.07714844,-36.03125,-64.59375,-86.25,0.0,0.0,0.0
126,1696168224386,-1.1425781,-0.12792969,0.12792969,-54.8125,-39.9375,-95.28125,0.0,0.0,0.0
127,1696168224415,-1.1845703,-0.059570312,0.10449219,-22.71875,-40.25,-95.09375,0.0,0.0,0.0
128,1696168224445,-1.1699219,-0.24902344,-0.080078125,20.625,-52.03125,-90.59375,0.0,0.0,0.0
129,1696168224509,-0.94628906,-0.31445312,0.13574219,-0.4375,-54.53125,-112.9375,0.0,0.0,0.0
130,1696168224536,-0.6699219,-0.1484375,0.15429688,-3.25,-33.40625,-99.875,0.0,0.0,0.0
131,1696168224565,-0.7451172,-0.24121094,0.21875,22.5625,-33.21875,-78.3125,-35.25,-21.875,-87.375
132,1696168224627,-0.7519531,-0.26367188,0.047851562,-0.0625,-4.96875,-60.3125,0.0,0.0,0.0
133,1696168224657,-0.5283203,-0.2841797,0.07910156,41.625,-21.25,-38.34375,0.0,0.0,0.0
134,1696168224686,-0.46289062,-0.43359375,0.13769531,27.28125,-1.65625,-15.53125,0.0,0.0,0.0
135,1696168224749,-0.5654297,-0.5048828,0.14550781,8.59375,33.6875,-4.09375,0.0,0.0,0.0
136,1696168224779,-0.68359375,-0.5644531,0.043945312,1.625,79.21875,7.90625,0.0,0.0,0.0
137,1696168224804,-1.0283203,-0.54003906,0.32421875,46.875,25.9375,7.8125,0.0,0.0,0.0
138,1696168224867,-1.1816406,-0.4716797,0.22949219,21.03125,23.84375,29.71875,0.0,0.0,0.0
139,1696168224894,-0.8730469,-0.33007812,0.22949219,-0.625,18.78125,18.65625,0.0,0.0,0.0
140,1696168224959,-1.0800781,-0.42382812,0.16308594,-0.6875,40.625,55.46875,0.0,0.0,0.0
141,1696168224987,-1.2851562,-0.5107422,0.083984375,-17.59375,46.0625,55.59375,0.0,0.0,0.0
142,1696168225014,-0.8935547,-0.24023438,0.018554688,-16.96875,48.15625,40.4375,0.0,0.0,0.0
143,1696168225046,-0.98828125,-0.25878906,-0.041992188,-12.46875,66.34375,64.8125,0.0,0.0,0.0
144,1696168225105,-1.1621094,-0.27246094,-0.08105469,-10.03125,56.3125,48.5,-41.375,-16.9375,-92.125
145,1696168225139,-0.9941406,-0.15039062,-0.03125,6.46875,30.25,41.3125,0.0,0.0,0.0
146,1696168225164,-0.9345703,0.052734375,-0.11621094,-10.09375,21.53125,56.9375,0.0,0.0,0.0
147,1696168225226,-1.0957031,-0.18066406,-0.13867188,-21.5,19.75,59.125,0.0,0.0,0.0
148,1696168225256,-1.0302734,-0.33789062,-0.14648438,-13.5625,12.3125,53.9375,0.0,0.0,0.0
149,1696168225287,-0.9560547,-0.2421875,-0.12988281,-3.96875,10.125,47.40625,0.0,0.0,0.0
150,1696168225345,-0.93847656,-0.13183594,-0.11816406,38.6875,2.125,39.84375,0.0,0.0,0.0
151,1696168225377,-0.83691406,-0.043945312,-0.055664062,50.875,1.09375,40.4375,0.0,0.0,0.0
152,1696168225417,-0.8544922,-0.0068359375,-0.14648438,8.71875,12.875,35.6875,0.0,0.0,0.0
153,1696168225465,-0.9160156,-0.15332031,-0.044921875,-7.28125,13.21875,35.15625,0.0,0.0,0.0
154,1696168225495,-0.99121094,-0.2919922,-0.041015625,4.5625,24.59375,26.34375,0.0,0.0,0.0
155,1696168225526,-0.9482422,-0.24414062,-0.041992188,18.90625,15.0625,20.96875,0.0,0.0,0.0
156,1696168225585,-1.0117188,-0.068359375,-0.080078125,29.03125,25.4375,3.71875,-48.875,-0.6875,-98.0
157,1696168225615,-1.0820312,0.1171875,-0.15625,12.5,25.8125,9.125,0.0,0.0,0.0
158,1696168225647,-1.0332031,0.17285156,-0.19335938,-1.0625,15.25,9.03125,0.0,0.0,0.0
159,1696168225706,-1.1835938,0.046875,-0.21875,6.03125,23.0625,23.84375,0.0,0.0,0.0
160,1696168225735,-1.1494141,-0.1015625,-0.25585938,-14.96875,10.40625,21.09375,0.0,0.0,0.0
161,1696168225769,-1.2548828,-0.005859375,-0.16601562,-26.0625,-10.4375,10.59375,0.0,0.0,0.0
162,1696168225827,-1.359375,0.020507812,-0.140625,0.40625,-5.9375,4.875,0.0,0.0,0.0
163,1696168225855,-1.2216797,-0.10839844,0.029296875,-14.0625,-59.53125,-22.15625,0.0,0.0,0.0
164,1696168225887,-1.0605469,-0.078125,0.11230469,-52.75,-87.65625,-60.25,0.0,0.0,0.0
165,1696168225945,-1.0175781,-0.08105469,-0.08691406,-68.625,-66.0625,-78.1875,0.0,0.0,0.0
166,1696168225978,-1.0693359,-0.17285156,0.091796875,-62.625,-67.875,-98.46875,0.0,0.0,0.0
167,1696168226007,-1.1669922,-0.083984375,0.24804688,-40.0,-56.09375,-96.34375,0.0,0.0,0.0
168,1696168226068,-1.1777344,-0.16601562,-0.12109375,18.34375,-64.78125,-78.8125,0.0,0.0,0.0
169,1696168226096,-1.1376953,-0.27441406,0.017578125,9.3125,-75.46875,-135.21875,-41.25,-15.5625,-90.1875
170,1696168226125,-0.7705078,0.13085938,0.115234375,-16.4375,-59.28125,-113.84375,0.0,0.0,0.0
171,1696168226186,-0.65234375,-0.1796875,0.16308594,-14.84375,-29.875,-93.8125,0.0,0.0,0.0
172,1696168226216,-0.7167969,-0.26660156,0.15820312,-15.75,-39.1875,-81.75,0.0,0.0,0.0
173,1696168226243,-0.61035156,-0.26171875,0.17871094,1.625,-26.5,-53.59375,0.0,0.0,0.0
174,1696168226310,-0.42773438,-0.37109375,0.08886719,9.625,-10.4375,-16.1875,0.0,0.0,0.0
175,1696168226336,-0.49902344,-0.5595703,0.10839844,-14.46875,20.96875,-0.6875,0.0,0.0,0.0
176,1696168226366,-0.546875,-0.8857422,0.1171875,26.84375,36.59375,0.84375,0.0,0.0,0.0
177,1696168226426,-0.9111328,-0.36816406,0.5566406,61.5,22.25,5.65625,0.0,0.0,0.0
178,1696168226458,-1.3320312,-0.17578125,0.087890625,15.65625,74.625,69.75,0.0,0.0,0.0
179,1696168226487,-0.91308594,-0.42578125,0.13378906,-15.46875,31.84375,8.71875,0.0,0.0,0.0
180,1696168226550,-1.0644531,-0.55859375,0.21289062,8.59375,40.21875,28.71875,0.0,0.0,0.0
181,1696168226575,-1.0302734,-0.37109375,0.13964844,-6.90625,47.84375,49.0,-33.3125,-23.0625,-85.375
182,1696168226605,-0.9394531,-0.21191406,0.072265625,-6.59375,58.34375,51.4375,0.0,0.0,0.0
183,1696168226667,-1.0664062,-0.34472656,-0.049804688,-10.4375,62.0,55.46875,0.0,0.0,0.0
184,1696168226709,-1.0732422,-0.3251953,-0.07910156,5.0,55.28125,47.65625,0.0,0.0,0.0
185,1696168226725,-1.0185547,-0.25390625,-0.076171875,-1.1875,40.8125,42.59375,0.0,0.0,0.0
186,1696168226788,-1.0146484,-0.0009765625,-0.10839844,-9.28125,30.0625,44.25,0.0,0.0,0.0
187,1696168226821,-1.0097656,-0.12402344,-0.10449219,-19.125,20.25,52.78125,0.0,0.0,0.0
188,1696168226845,-1.1064453,-0.32910156,-0.16113281,-4.21875,9.3125,57.34375,0.0,0.0,0.0
189,1696168226909,-0.98535156,-0.26660156,-0.11621094,12.9375,6.03125,54.0,0.0,0.0,0.0
190,1696168226935,-1.0029297,-0.13378906,-0.107421875,25.3125,18.90625,39.78125,0.0,0.0,0.0
191,1696168226965,-0.9316406,-0.046875,-0.08300781,32.46875,2.4375,45.34375,0.0,0.0,0.0
192,1696168227026,-0.94433594,-0.03125,-0.047851562,39.46875,7.5625,40.03125,0.0,0.0,0.0
193,1696168227059,-0.8935547,-0.0029296875,-0.10253906,5.78125,2.5,31.40625,0.0,0.0,0.0
194,1696168227118,-0.87402344,-0.09375,-0.053710938,-16.3125,2.59375,28.71875,-48.0,-5.9375,-93.0625
195,1696168227146,-0.87109375,-0.25390625,-0.040039062,-22.40625,10.96875,23.46875,0.0,0.0,0.0
196,1696168227175,-0.9394531,-0.21386719,-0.057617188,-8.0,18.71875,15.625,0.0,0.0,0.0
197,1696168227235,-0.9902344,-0.08984375,-0.0703125,-2.9375,21.34375,9.03125,0.0,0.0,0.0
198,1696168227267,-1.1572266,0.08203125,-0.125,-2.03125,26.59375,20.6875,0.0,0.0,0.0
199,1696168227296,-1.0927734,0.044921875,-0.20605469,-5.9375,12.3125,14.09375,0.0,0.0,0.0
200,1696168227324,-1.1845703,0.125,-0.13574219,-19.3125,16.21875,15.0,0.0,0.0,0.0
201,1696168227385,-1.1787109,-0.14355469,-0.171875,9.5,17.375,19.34375,0.0,0.0,0.0
202,1696168227415,-1.2451172,0.08203125,-0.06738281,8.46875,5.0,2.25,0.0,0.0,0.0
203,1696168227449,-1.1835938,0.0625,-0.055664062,2.5,-29.875,0.78125,0.0,0.0,0.0
204,1696168227505,-1.0332031,-0.024414062,0.03515625,-38.34375,-65.125,-28.03125,0.0,0.0,0.0
205,1696168227536,-1.0683594,-0.09472656,0.051757812,-37.5,-67.15625,-52.375,0.0,0.0,0.0
206,1696168227597,-0.9902344,-0.11230469,-0.044921875,-39.375,-47.1875,-71.5,-47.6875,-5.1875,-95.125
207,1696168227626,-1.1552734,-0.049804688,0.053710938,-43.53125,-45.84375,-82.78125,0.0,0.0,0.0
208,1696168227656,-1.1533203,-0.17285156,0.123046875,-49.875,-63.84375,-99.875,0.0,0.0,0.0
209,1696168227686,-1.1699219,-0.28808594,0.018554688,10.65625,-51.34375,-103.28125,0.0,0.0,0.0
210,1696168227746,-1.203125,-0.03125,0.016601562,26.0,-74.21875,-125.4375,0.0,0.0,0.0
211,1696168227774,-0.9736328,-0.051757812,0.16113281,-13.875,-61.90625,-119.78125,0.0,0.0,0.0
212,1696168227808,-0.7285156,-0.14355469,0.12695312,-34.8125,-30.46875,-100.125,0.0,0.0,0.0
213,1696168227865,-0.6435547,-0.3330078,0.12402344,-12.84375,-32.0,-78.125,0.0,0.0,0.0
214,1696168227895,-0.6816406,-0.328125,0.13671875,3.9375,-27.25,-54.8125,0.0,0.0,0.0
215,1696168227927,-0.5595703,-0.421875,0.07519531,13.90625,-4.96875,-35.125,0.0,0.0,0.0
216,1696168227984,-0.47265625,-0.41308594,0.0703125,23.46875,5.0625,-10.09375,0.0,0.0,0.0
217,1696168228014,-0.57714844,-0.42089844,0.16894531,23.46875,22.3125,14.15625,0.0,0.0,0.0
218,1696168228045,-0.6357422,-0.55566406,0.31347656,23.90625,32.40625,38.125,0.0,0.0,0.0
219,1696168228105,-1.3388672,-0.6767578,0.07910156,-12.90625,44.125,5.53125,-28.1875,-25.3125,-83.3125
220,1696168228135,-1.1669922,-0.3935547,0.23339844,30.375,29.21875,10.59375,0.0,0.0,0.0
221,1696168228168,-0.5175781,-0.359375,0.22460938,17.0625,24.875,3.90625,0.0,0.0,0.0
222,1696168228225,-0.9707031,-0.5253906,0.21582031,1.3125,34.65625,37.09375,0.0,0.0,0.0
223,1696168228254,-1.2011719,-0.4453125,0.15820312,5.90625,26.96875,40.28125,0.0,0.0,0.0
224,1696168228287,-1.0097656,-0.39160156,0.140625,-1.59375,36.375,41.125,0.0,0.0,0.0
225,1696168228344,-1.0009766,-0.39648438,0.07324219,-26.8125,58.875,55.09375,0.0,0.0,0.0
226,1696168228376,-0.86621094,-0.33984375,0.01953125,-11.4375,53.34375,51.8125,0.0,0.0,0.0
227,1696168228408,-1.1445312,-0.30859375,-0.03125,1.21875,45.21875,47.15625,0.0,0.0,0.0
228,1696168228466,-1.0039062,-0.23828125,-0.018554688,5.34375,38.9375,39.90625,0.0,0.0,0.0
229,1696168228496,-0.8359375,-0.001953125,-0.078125,-4.78125,37.65625,45.09375,0.0,0.0,0.0
230,1696168228532,-1.0429688,-0.11035156,-0.16894531,-9.0625,30.875,57.46875,0.0,0.0,0.0
231,1696168228585,-1.1689453,-0.3564453,-0.119140625,2.84375,16.65625,56.875,-42.75,-12.5625,-93.9375
232,1696168228614,-0.953125,-0.22949219,-0.1171875,13.84375,5.46875,44.34375,0.0,0.0,0.0
233,1696168228646,-0.984375,-0.09765625,-0.14257812,43.1875,7.125,46.75,0.0,0.0,0.0
234,1696168228704,-0.88183594,-0.048828125,-0.09765625,49.0,-6.0,47.65625,0.0,0.0,0.0
235,1696168228734,-0.91503906,-0.10449219,-0.08105469,36.25,2.96875,39.65625,0.0,0.0,0.0
236,1696168228767,-0.8964844,-0.09765625,-0.029296875,7.25,13.03125,26.34375,0.0,0.0,0.0
237,1696168228831,-0.9501953,-0.103515625,-0.0078125,4.0625,14.625,24.15625,0.0,0.0,0.0
238,1696168228856,-0.9345703,-0.18652344,-0.0625,3.40625,11.71875,26.59375,0.0,0.0,0.0
239,1696168228886,-0.9824219,-0.14550781,-0.080078125,7.5,15.65625,20.96875,0.0,0.0,0.0
240,1696168228950,-1.0595703,-0.037109375,-0.11230469,-5.875,19.6875,13.71875,0.0,0.0,0.0
241,1696168228986,-1.0566406,0.037109375,-0.15136719,-14.65625,13.59375,9.5625,0.0,0.0,0.0
242,1696168229008,-1.0351562,0.001953125,-0.15039062,-4.28125,11.21875,18.53125,0.0,0.0,0.0
243,1696168229067,-1.0908203,-0.025390625,-0.1796875,13.03125,12.9375,28.84375,0.0,0.0,0.0
244,1696168229097,-1.2734375,-0.043945312,-0.087890625,20.84375,17.875,19.875,-46.9375,-1.3125,-95.75
245,1696168229125,-1.421875,0.111328125,-0.09277344,30.875,0.46875,9.6875,0.0,0.0,0.0
246,1696168229193,-1.2626953,0.10839844,-0.026367188,-9.84375,-43.96875,-7.59375,0.0,0.0,0.0
247,1696168229215,-1.0927734,0.029296875,0.06640625,-74.0,-83.4375,-24.90625,0.0,0.0,0.0
248,1696168229244,-0.94140625,-0.14453125,-0.005859375,-91.03125,-78.75,-51.09375,0.0,0.0,0.0
249,1696168229309,-0.99902344,-0.3046875,0.1328125,-60.0625,-57.3125,-93.15625,0.0,0.0,0.0
250,1696168229336,-1.2705078,-0.07714844,0.23925781,-63.125,-26.03125,-105.125,0.0,0.0,0.0
251,1696168229364,-1.1611328,0.059570312,0.08691406,-18.9375,-46.84375,-88.6875,0.0,0.0,0.0
252,1696168229425,-1.1933594,-0.107421875,0.009765625,13.0,-71.90625,-98.15625,0.0,0.0,0.0
253,1696168229454,-1.0097656,-0.17382812,0.13671875,-22.46875,-64.03125,-119.46875,0.0,0.0,0.0
254,1696168229513,-0.81933594,-0.01953125,0.16210938,-23.9375,-50.96875,-111.28125,0.0,0.0,0.0
255,1696168229545,-0.67871094,-0.2109375,0.1953125,-19.78125,-35.90625,-90.15625,0.0,0.0,0.0
256,1696168229573,-0.6279297,-0.2529297,0.19628906,-21.1875,-36.40625,-72.40625,-30.875,-21.5625,-83.875
257,1696168229604,-0.5097656,-0.18457031,0.0859375,-26.625,-16.4375,-50.125,0.0,0.0,0.0
258,1696168229665,-0.5263672,-0.35058594,0.14355469,22.3125,-8.0625,-21.625,0.0,0.0,0.0
259,1696168229693,-0.6376953,-0.64453125,0.08105469,16.65625,11.71875,-7.03125,0.0,0.0,0.0
260,1696168229722,-0.50683594,-0.5,0.16894531,5.78125,45.9375,13.15625,0.0,0.0,0.0
261,1696168229783,-0.6748047,-0.52246094,0.19335938,6.5625,99.59375,25.375,0.0,0.0,0.0
262,1696168229813,-1.6162109,-0.87597656,0.16992188,28.96875,52.46875,11.59375,0.0,0.0,0.0
263,1696168229843,-1.0009766,-0.41796875,0.32617188,55.90625,12.375,-7.28125,0.0,0.0,0.0
264,1696168229903,-0.37597656,-0.18066406,0.20214844,27.8125,37.53125,9.5625,0.0,0.0,0.0
265,1696168229932,-1.0107422,-0.42871094,0.18164062,-13.0625,37.71875,45.9375,0.0,0.0,0.0
266,1696168229965,-1.4355469,-0.62109375,0.12988281,-1.34375,31.78125,42.65625,0.0,0.0,0.0
267,1696168230025,-0.9404297,-0.39746094,0.115234375,18.34375,21.71875,44.0,0.0,0.0,0.0
268,1696168230053,-0.8720703,-0.2841797,0.060546875,-0.3125,35.09375,54.0625,0.0,0.0,0.0
269,1696168230113,-1.0107422,-0.19433594,0.055664062,-8.0625,37.40625,52.46875,-37.1875,-19.4375,-87.5
270,1696168230143,-1.0849609,-0.32128906,0.061523438,-11.6875,42.78125,52.28125,0.0,0.0,0.0
271,1696168230173,-0.8125,-0.203125,-0.02734375,-7.875,40.4375,43.9375,0.0,0.0,0.0
272,1696168230204,-1.0410156,-0.14355469,-0.17089844,-23.28125,49.59375,48.9375,0.0,0.0,0.0
273,1696168230263,-1.1113281,-0.24023438,-0.140625,-13.8125,20.5625,48.4375,0.0,0.0,0.0
274,1696168230293,-1.0458984,-0.23632812,-0.11230469,2.0,16.53125,44.90625,0.0,0.0,0.0
275,1696168230353,-1.0244141,-0.21386719,-0.12402344,36.53125,18.53125,55.53125,0.0,0.0,0.0
276,1696168230383,-0.9814453,-0.11816406,-0.078125,62.71875,-4.21875,52.53125,0.0,0.0,0.0
277,1696168230415,-0.8388672,-0.08203125,-0.05859375,54.0625,-8.375,43.0625,0.0,0.0,0.0
278,1696168230474,-0.85546875,-0.022460938,-0.024414062,22.875,12.875,34.59375,0.0,0.0,0.0
279,1696168230505,-0.95410156,-0.10839844,-0.028320312,-2.21875,15.90625,34.03125,0.0,0.0,0.0
280,1696168230535,-0.984375,-0.15136719,-0.06933594,-6.4375,18.96875,31.96875,0.0,0.0,0.0
281,1696168230593,-0.9951172,-0.19335938,-0.08300781,-2.21875,5.96875,24.34375,-47.25,-2.6875,-92.0
282,1696168230624,-0.9765625,0.026367188,-0.049804688,12.1875,9.25,14.09375,0.0,0.0,0.0
283,1696168230652,-1.0078125,0.026367188,-0.14746094,-3.125,10.0,14.375,0.0,0.0,0.0
284,1696168230713,-1.0615234,0.08300781,-0.12695312,-15.6875,16.71875,11.71875,0.0,0.0,0.0
285,1696168230744,-1.1523438,0.0146484375,-0.18652344,-1.65625,7.4375,16.84375,0.0,0.0,0.0
286,1696168230776,-1.2275391,0.080078125,-0.119140625,-11.78125,7.3125,17.1875,0.0,0.0,0.0
287,1696168230833,-1.5380859,0.11035156,-0.041992188,-0.5625,0.65625,12.375,0.0,0.0,0.0
288,1696168230863,-1.2851562,0.033203125,-0.061523438,-17.03125,-36.9375,4.0625,0.0,0.0,0.0
289,1696168230896,-1.0810547,-0.01171875,0.06640625,-41.28125,-56.46875,-13.375,0.0,0.0,0.0
290,1696168230954,-1.0068359,-0.087890625,0.1640625,-69.78125,-68.75,-45.0,0.0,0.0,0.0
291,1696168230982,-0.87402344,-0.4013672,-0.032226562,-54.875,-42.5,-92.1875,0.0,0.0,0.0
292,1696168231013,-1.1679688,-0.25976562,0.22949219,-49.21875,-23.03125,-125.0,0.0,0.0,0.0
293,1696168231073,-1.1337891,0.25195312,0.2861328,8.53125,-41.59375,-95.0625,-43.5,-9.4375,-88.6875
294,1696168231105,-1.0615234,0.27539062,-0.048828125,40.9375,-90.40625,-62.9375,0.0,0.0,0.0
295,1696168231135,-1.1103516,-0.5410156,0.11328125,-41.6875,-71.0,-102.0625,0.0,0.0,0.0
296,1696168231195,-0.81640625,0.01953125,0.18359375,-37.625,-64.03125,-102.625,0.0,0.0,0.0
297,1696168231223,-0.7558594,-0.23242188,0.09765625,-1.46875,-33.21875,-85.15625,0.0,0.0,0.0
298,1696168231253,-0.70410156,-0.25390625,0.19335938,1.375,-34.0625,-74.59375,0.0,0.0,0.0
299,1696168231313,-0.57714844,-0.26660156,0.16308594,0.65625,-16.375,-50.3125,0.0,0.0,0.0
300,1696168231348,-0.3857422,-0.2109375,0.14355469,30.375,-5.03125,-25.53125,0.0,0.0,0.0
301,1696168231373,-0.5361328,-0.4423828,0.17871094,-6.71875,15.90625,6.15625,0.0,0.0,0.0
302,1696168231434,-0.6611328,-0.6582031,0.17675781,-8.5625,54.3125,-1.40625,0.0,0.0,0.0
303,1696168231464,-0.7636719,-0.72265625,0.2861328,17.75,57.34375,0.03125,0.0,0.0,0.0
304,1696168231493,-1.6054688,-0.32910156,0.5058594,61.1875,1.3125,13.03125,0.0,0.0,0.0
305,1696168231552,-0.69140625,-0.20117188,0.23046875,15.0,39.34375,0.0,0.0,0.0,0.0
306,1696168231584,-0.84277344,-0.44433594,0.2919922,-15.53125,48.5625,17.3125,-29.875,-19.3125,-81.5
307,1696168231612,-1.3759766,-0.5576172,0.1328125,-1.34375,50.15625,50.8125,0.0,0.0,0.0
308,1696168231673,-1.0800781,-0.3671875,0.17382812,0.28125,53.03125,35.8125,0.0,0.0,0.0
309,1696168231705,-0.87109375,-0.30664062,0.068359375,0.15625,58.9375,39.0,0.0,0.0,0.0
310,1696168231734,-1.0498047,-0.28515625,0.0126953125,1.75,57.84375,53.21875,0.0,0.0,0.0
311,1696168231793,-1.1015625,-0.15039062,-0.06738281,-3.5,53.09375,52.40625,0.0,0.0,0.0
312,1696168231823,-1.0400391,-0.061523438,-0.0068359375,-2.6875,29.78125,42.21875,0.0,0.0,0.0
313,1696168231853,-0.91308594,0.001953125,-0.13183594,-31.15625,36.71875,47.34375,0.0,0.0,0.0
314,1696168231912,-0.98046875,-0.053710938,-0.18847656,-41.9375,27.5625,63.9375,0.0,0.0,0.0
315,1696168231943,-1.2119141,-0.33789062,-0.17871094,-30.09375,19.6875,57.59375,0.0,0.0,0.0
316,1696168231972,-0.96875,-0.28320312,-0.14648438,-12.46875,9.5,47.84375,0.0,0.0,0.0
317,1696168232062,-0.9111328,-0.15722656,-0.099609375,19.8125,2.3125,49.0625,-44.125,-6.6875,-94.125
318,1696168232064,-0.88183594,-0.16796875,-0.115234375,42.96875,-2.28125,47.59375,0.0,0.0,0.0
319,1696168232093,-0.8847656,-0.080078125,-0.060546875,35.25,7.8125,35.6875,0.0,0.0,0.0
320,1696168232153,-0.9111328,0.034179688,-0.091796875,20.375,4.125,28.375,0.0,0.0,0.0
321,1696168232183,-0.9013672,-0.0126953125,-0.055664062,-7.71875,9.75,19.09375,0.0,0.0,0.0
322,1696168232213,-0.99121094,-0.17285156,-0.07714844,-8.8125,14.5625,26.28125,0.0,0.0,0.0
323,1696168232273,-1.0126953,-0.078125,-0.072265625,-3.5,18.78125,13.71875,0.0,0.0,0.0
324,1696168232303,-1.0761719,0.053710938,-0.16015625,-17.34375,11.75,10.84375,0.0,0.0,0.0
325,1696168232333,-1.0556641,-0.052734375,-0.24609375,-17.78125,13.0,17.0,0.0,0.0,0.0
326,1696168232424,-1.0429688,0.08886719,-0.19921875,-10.875,11.21875,12.625,0.0,0.0,0.0
327,1696168232428,-1.1962891,-0.0146484375,-0.16601562,-1.34375,12.125,20.125,0.0,0.0,0.0
328,1696168232456,-1.1318359,-0.08984375,-0.12109375,-9.59375,3.28125,15.0625,0.0,0.0,0.0
329,1696168232513,-1.3320312,0.095703125,-0.046875,-0.4375,-5.6875,1.03125,0.0,0.0,0.0
330,1696168232545,-1.3388672,0.10839844,-0.047851562,-1.125,-31.5,-8.1875,0.0,0.0,0.0
331,1696168232573,-1.1787109,-0.024414062,0.0078125,-31.5,-59.78125,-23.09375,-47.375,2.125,-95.625
332,1696168232636,-0.9433594,-0.024414062,0.026367188,-62.46875,-66.78125,-37.96875,0.0,0.0,0.0
333,1696168232663,-0.9326172,-0.1953125,0.047851562,-55.125,-57.6875,-64.78125,0.0,0.0,0.0
334,1696168232693,-1.1777344,-0.3125,0.07714844,-27.78125,-32.0,-96.8125,0.0,0.0,0.0
335,1696168232753,-1.1396484,-0.06347656,0.16308594,-32.5625,-42.75,-115.125,0.0,0.0,0.0
336,1696168232783,-1.1865234,0.2421875,0.01953125,34.59375,-57.625,-93.65625,0.0,0.0,0.0
337,1696168232813,-1.0664062,-0.2763672,0.018554688,20.1875,-62.6875,-94.625,0.0,0.0,0.0
338,1696168232873,-0.92871094,-0.11425781,0.14941406,-40.96875,-50.96875,-121.59375,0.0,0.0,0.0
339,1696168232904,-0.69628906,-0.14355469,0.17578125,-5.6875,-43.65625,-104.3125,0.0,0.0,0.0
340,1696168232933,-0.7080078,-0.24023438,0.13378906,-11.5625,-32.65625,-88.6875,0.0,0.0,0.0
341,1696168232995,-0.63671875,-0.31347656,0.14160156,3.15625,-20.34375,-59.84375,0.0,0.0,0.0
342,1696168233024,-0.56640625,-0.3515625,0.15722656,16.90625,-9.53125,-26.3125,0.0,0.0,0.0
343,1696168233054,-0.54296875,-0.40234375,0.09765625,-5.3125,21.59375,-6.78125,-27.625,-23.5,-83.0
344,1696168233114,-0.64160156,-0.46972656,0.24707031,10.84375,29.59375,7.375,0.0,0.0,0.0
345,1696168233144,-0.67089844,-0.609375,0.12695312,38.75,44.125,19.625,0.0,0.0,0.0
346,1696168233176,-1.1005859,-0.61816406,0.14355469,14.625,28.3125,14.15625,0.0,0.0,0.0
347,1696168233235,-1.1875,-0.24804688,0.3095703,8.84375,22.03125,16.9375,0.0,0.0,0.0
348,1696168233264,-0.64941406,-0.4296875,0.17089844,22.03125,49.375,8.59375,0.0,0.0,0.0
349,1696168233294,-1.0605469,-0.5566406,0.17773438,1.15625,46.3125,42.71875,0.0,0.0,0.0
350,1696168233355,-1.3261719,-0.328125,0.17089844,-0.8125,40.625,38.8125,0.0,0.0,0.0
351,1696168233389,-0.8935547,-0.27441406,0.08203125,4.0625,51.6875,43.9375,0.0,0.0,0.0
352,1696168233413,-1.0126953,-0.4091797,0.047851562,-15.21875,57.90625,56.875,0.0,0.0,0.0
353,1696168233473,-1.0810547,-0.27539062,-0.0625,3.59375,40.03125,50.46875,0.0,0.0,0.0
354,1696168233503,-1.0146484,-0.123046875,-0.11328125,0.84375,41.375,44.65625,0.0,0.0,0.0
355,1696168233535,-0.9658203,-0.13574219,-0.076171875,-24.0625,41.5625,49.4375,0.0,0.0,0.0
356,1696168233593,-1.0556641,-0.171875,-0.12109375,-31.6875,29.28125,52.0,-41.6875,-12.25,-92.875
357,1696168233625,-1.0878906,-0.21582031,-0.15234375,-24.25,19.75,45.5625,0.0,0.0,0.0
358,1696168233653,-0.9082031,-0.14941406,-0.13378906,-1.71875,3.34375,43.4375,0.0,0.0,0.0
359,1696168233713,-0.97753906,-0.17285156,-0.16699219,21.15625,16.40625,50.15625,0.0,0.0,0.0
360,1696168233745,-0.8935547,-0.14355469,-0.0546875,37.46875,-0.75,42.21875,0.0,0.0,0.0
361,1696168233773,-0.8964844,-0.111328125,-0.09082031,24.65625,0.46875,31.1875,0.0,0.0,0.0
362,1696168233833,-0.86816406,-0.080078125,-0.06933594,18.40625,9.8125,25.4375,0.0,0.0,0.0
363,1696168233864,-0.95410156,-0.10058594,-0.103515625,3.90625,17.875,22.1875,0.0,0.0,0.0
364,1696168233893,-1.0175781,-0.18066406,-0.060546875,-2.03125,16.34375,19.875,0.0,0.0,0.0
365,1696168233953,-0.98828125,-0.12402344,-0.10253906,0.53125,2.78125,16.40625,0.0,0.0,0.0
366,1696168233986,-0.9921875,-0.076171875,-0.123046875,4.5625,10.59375,13.15625,0.0,0.0,0.0
367,1696168234014,-1.0292969,-0.09667969,-0.17773438,-12.65625,9.625,13.03125,0.0,0.0,0.0
368,1696168234075,-0.95410156,0.040039062,-0.12011719,27.15625,9.25,6.6875,-48.75,-1.3125,-97.125
369,1696168234108,-1.1269531,0.21972656,-0.18847656,-7.875,4.125,11.9375,0.0,0.0,0.0
370,1696168234135,-1.0566406,0.026367188,-0.15917969,-41.40625,-8.9375,13.40625,0.0,0.0,0.0
371,1696168234194,-1.0917969,-0.10839844,-0.14746094,-24.0,-3.125,20.0,0.0,0.0,0.0
372,1696168234225,-1.0664062,0.0009765625,-0.13085938,-0.5,3.40625,19.8125,0.0,0.0,0.0
373,1696168234254,-1.3574219,0.0029296875,-0.15527344,7.25,12.375,23.0,0.0,0.0,0.0
374,1696168234313,-1.3847656,0.17285156,0.020507812,-8.3125,-14.3125,6.6875,0.0,0.0,0.0
375,1696168234343,-1.1425781,-0.03125,0.076171875,-38.21875,-76.0625,-12.90625,0.0,0.0,0.0
376,1696168234374,-1.0146484,-0.0546875,0.09472656,-58.78125,-86.8125,-43.78125,0.0,0.0,0.0
377,1696168234433,-1.0214844,-0.12792969,0.1171875,-75.8125,-35.15625,-63.625,0.0,0.0,0.0
378,1696168234464,-1.0654297,-0.20605469,-0.052734375,-39.3125,-10.6875,-88.03125,0.0,0.0,0.0
379,1696168234493,-1.2265625,-0.16308594,0.140625,-11.4375,-29.0,-93.03125,0.0,0.0,0.0
380,1696168234553,-1.2753906,-0.19042969,0.15917969,36.0,-57.5625,-100.125,0.0,0.0,0.0
381,1696168234585,-0.92578125,0.0390625,0.034179688,42.46875,-83.5,-110.90625,-39.75,-11.375,-88.875
382,1696168234613,-0.875,0.038085938,0.18847656,-30.09375,-60.1875,-108.28125,0.0,0.0,0.0
383,1696168234673,-0.7285156,-0.15527344,0.11230469,-32.125,-41.53125,-83.28125,0.0,0.0,0.0
384,1696168234703,-0.7626953,-0.29492188,0.234375,-23.8125,-43.71875,-75.75,0.0,0.0,0.0
385,1696168234733,-0.6826172,-0.3173828,0.07910156,-12.34375,-23.5,-52.375,0.0,0.0,0.0
386,1696168234794,-0.5917969,-0.33007812,0.15917969,8.15625,-14.1875,-19.0625,0.0,0.0,0.0
387,1696168234823,-0.5390625,-0.4892578,0.15429688,7.625,17.6875,-2.6875,0.0,0.0,0.0
388,1696168234854,-0.6074219,-0.5332031,0.24609375,38.875,43.75,1.6875,0.0,0.0,0.0
389,1696168234913,-0.546875,-0.47460938,0.123046875,30.3125,40.9375,-1.0,0.0,0.0,0.0
390,1696168234943,-1.2822266,-0.23339844,0.27148438,28.125,22.4375,24.59375,0.0,0.0,0.0
391,1696168234973,-0.94140625,-0.38183594,0.23925781,-0.875,55.84375,-9.21875,0.0,0.0,0.0
392,1696168235033,-0.7324219,-0.4375,0.23632812,2.0,33.96875,3.59375,0.0,0.0,0.0
393,1696168235063,-1.3476562,-0.5595703,0.23730469,11.53125,41.0,42.28125,-31.375,-21.5625,-86.0
394,1696168235093,-1.1435547,-0.28515625,0.1875,13.65625,39.65625,32.46875,0.0,0.0,0.0
395,1696168235156,-0.9589844,-0.25878906,0.10839844,-21.0,61.375,55.53125,0.0,0.0,0.0
396,1696168235185,-1.1259766,-0.38867188,0.01171875,-14.40625,54.96875,64.5,0.0,0.0,0.0
397,1696168235218,-1.0175781,-0.2783203,-0.1015625,-4.03125,54.90625,56.0,0.0,0.0,0.0
398,1696168235273,-0.921875,-0.18554688,-0.12207031,10.46875,40.28125,46.1875,0.0,0.0,0.0
399,1696168235304,-0.9394531,0.013671875,-0.14160156,-13.375,46.0625,38.8125,0.0,0.0,0.0
400,1696168235337,-0.984375,0.0068359375,-0.10253906,-32.71875,37.65625,42.34375,0.0,0.0,0.0
401,1696168235396,-1.1230469,-0.24804688,-0.16015625,-31.15625,19.6875,43.375,0.0,0.0,0.0
402,1696168235424,-0.9638672,-0.20507812,-0.12988281,-26.5625,7.0625,39.0,0.0,0.0,0.0
403,1696168235453,-0.96191406,-0.17578125,-0.15917969,22.5625,-2.8125,43.375,0.0,0.0,0.0
404,1696168235513,-0.8935547,-0.203125,-0.07519531,28.3125,2.4375,38.0,0.0,0.0,0.0
405,1696168235544,-0.98828125,-0.15136719,-0.034179688,37.03125,5.0625,33.0625,0.0,0.0,0.0
406,1696168235572,-0.92871094,-0.026367188,-0.09472656,13.03125,3.21875,25.25,-45.625,-6.125,-96.375
407,1696168235633,-0.9355469,-0.037109375,-0.07324219,3.21875,8.59375,25.75,0.0,0.0,0.0
408,1696168235663,-0.9511719,-0.20214844,-0.07714844,12.25,4.1875,25.125,0.0,0.0,0.0
409,1696168235694,-0.8955078,-0.11230469,-0.099609375,14.8125,10.1875,16.15625,0.0,0.0,0.0
410,1696168235754,-1.0419922,-0.05859375,-0.13378906,1.8125,18.53125,8.59375,0.0,0.0,0.0
411,1696168235783,-1.1484375,0.025390625,-0.18945312,-3.3125,14.28125,6.46875,0.0,0.0,0.0
412,1696168235812,-0.9814453,0.053710938,-0.20507812,9.375,13.28125,10.71875,0.0,0.0,0.0
413,1696168235873,-1.2050781,0.14648438,-0.19042969,4.375,20.125,24.46875,0.0,0.0,0.0
414,1696168235905,-1.078125,0.009765625,-0.16894531,-23.8125,2.90625,26.21875,0.0,0.0,0.0
415,1696168235932,-1.0527344,-0.0390625,-0.15332031,-10.875,-1.71875,23.78125,0.0,0.0,0.0
416,1696168235993,-1.2050781,-0.0078125,-0.18359375,3.59375,7.375,21.28125,0.0,0.0,0.0
417,1696168236027,-1.2236328,0.01953125,-0.18652344,4.5,-3.875,24.46875,0.0,0.0,0.0
418,1696168236054,-1.2246094,0.13964844,-0.07714844,0.65625,-20.28125,10.71875,-48.625,2.875,-98.75
419,1696168236113,-1.0712891,0.033203125,0.041015625,-33.53125,-65.6875,-15.625,0.0,0.0,0.0
420,1696168236146,-1.1005859,-0.017578125,0.15429688,-60.1875,-74.59375,-50.75,0.0,0.0,0.0
421,1696168236173,-0.9169922,-0.18261719,-0.16308594,-71.78125,-48.0625,-81.9375,0.0,0.0,0.0
422,1696168236233,-1.1269531,-0.1875,0.17382812,-51.40625,-38.09375,-112.6875,0.0,0.0,0.0
423,1696168236283,-1.2021484,0.015625,0.14550781,-29.6875,-38.96875,-108.84375,0.0,0.0,0.0
424,1696168236293,-1.2734375,-0.07910156,0.064453125,33.96875,-73.8125,-99.625,0.0,0.0,0.0
425,1696168236353,-1.0234375,-0.15234375,0.043945312,0.46875,-85.15625,-123.78125,0.0,0.0,0.0
426,1696168236385,-0.7832031,0.13964844,0.11230469,-46.53125,-62.03125,-119.78125,0.0,0.0,0.0
427,1696168236413,-0.7216797,-0.2685547,0.25585938,-37.125,-42.9375,-103.09375,0.0,0.0,0.0
428,1696168236472,-0.71875,-0.3671875,0.11035156,-20.875,-39.25,-85.59375,0.0,0.0,0.0
429,1696168236507,-0.58203125,-0.38183594,0.06738281,17.4375,-26.6875,-59.84375,0.0,0.0,0.0
430,1696168236533,-0.3408203,-0.3798828,0.15332031,37.59375,-11.96875,-14.78125,0.0,0.0,0.0
431,1696168236594,-0.42382812,-0.66796875,0.036132812,19.875,42.40625,14.5,-28.5,-23.9375,-84.5
432,1696168236624,-0.4970703,-0.42382812,0.4609375,31.0625,50.40625,21.65625,0.0,0.0,0.0
433,1696168236652,-1.1689453,-0.3779297,0.0625,5.21875,54.0625,26.03125,0.0,0.0,0.0
434,1696168236711,-1.4365234,-0.46777344,0.28710938,19.5625,58.875,13.28125,0.0,0.0,0.0
435,1696168236752,-0.5488281,-0.31445312,0.20898438,7.625,28.0,-1.0,0.0,0.0,0.0
436,1696168236772,-1.2548828,-0.40527344,0.1796875,2.1875,43.6875,55.59375,0.0,0.0,0.0
437,1696168236832,-1.265625,-0.45117188,0.13964844,-11.6875,49.46875,46.625,0.0,0.0,0.0
438,1696168236861,-0.8720703,-0.15332031,0.037109375,-9.34375,44.40625,41.1875,0.0,0.0,0.0
439,1696168236891,-1.0830078,-0.21777344,-0.12890625,-11.78125,70.78125,79.21875,0.0,0.0,0.0
440,1696168236951,-1.1044922,-0.21679688,-0.11816406,-17.28125,47.59375,55.84375,0.0,0.0,0.0
441,1696168236982,-1.0419922,-0.14648438,-0.07324219,-7.40625,14.875,40.75,0.0,0.0,0.0
442,1696168237012,-0.91503906,-0.2109375,-0.080078125,-27.53125,25.75,53.375,0.0,0.0,0.0
443,1696168237071,-1.0029297,-0.27246094,-0.1015625,-20.03125,27.03125,57.1875,-43.375,-13.1875,-94.6875
444,1696168237102,-1.0947266,-0.18652344,-0.11328125,15.0625,4.0,57.0625,0.0,0.0,0.0
445,1696168237138,-0.9189453,-0.091796875,-0.125,10.84375,0.21875,52.53125,0.0,0.0,0.0
446,1696168237192,-0.8925781,-0.09375,-0.12109375,37.09375,4.6875,46.875,0.0,0.0,0.0
447,1696168237222,-0.9082031,-0.14355469,-0.10449219,33.96875,9.6875,40.9375,0.0,0.0,0.0
448,1696168237252,-0.9560547,-0.17578125,-0.057617188,31.53125,20.8125,28.4375,0.0,0.0,0.0
449,1696168237312,-0.94433594,-0.055664062,-0.08300781,26.90625,10.0625,19.53125,0.0,0.0,0.0
450,1696168237343,-0.99121094,-0.10253906,-0.045898438,9.03125,13.40625,14.15625,0.0,0.0,0.0
451,1696168237371,-0.9345703,-0.18261719,-0.06933594,6.46875,8.46875,15.3125,0.0,0.0,0.0
452,1696168237434,-0.97753906,-0.091796875,-0.10546875,18.53125,23.125,14.9375,0.0,0.0,0.0
453,1696168237461,-1.0761719,0.1328125,-0.09765625,5.125,29.65625,19.34375,0.0,0.0,0.0
454,1696168237493,-1.078125,0.021484375,-0.18066406,13.40625,22.1875,28.125,0.0,0.0,0.0
455,1696168237553,-1.0351562,0.024414062,-0.20507812,9.375,5.90625,27.09375,0.0,0.0,0.0
456,1696168237583,-1.0859375,-0.001953125,-0.15527344,-15.28125,2.96875,18.1875,-50.125,1.5625,-98.875
457,1696168237612,-1.109375,0.022460938,-0.14746094,10.40625,-1.34375,15.0625,0.0,0.0,0.0
458,1696168237673,-1.2226562,0.09082031,-0.14648438,19.46875,-0.6875,11.8125,0.0,0.0,0.0
459,1696168237704,-1.4677734,0.11816406,-0.1171875,-6.71875,-14.3125,1.09375,0.0,0.0,0.0
460,1696168237734,-1.1621094,0.18164062,0.0,-31.375,-38.59375,-13.125,0.0,0.0,0.0
461,1696168237798,-1.015625,0.030273438,0.125,-50.75,-66.90625,-34.4375,0.0,0.0,0.0
462,1696168237825,-0.9355469,-0.20898438,0.0048828125,-43.84375,-71.0625,-69.90625,0.0,0.0,0.0
463,1696168237854,-1.1259766,-0.052734375,0.06640625,-22.90625,-39.4375,-95.46875,0.0,0.0,0.0
464,1696168237913,-1.2099609,0.19042969,0.09375,-53.0,-34.6875,-85.34375,0.0,0.0,0.0
465,1696168237947,-1.1455078,-0.018554688,0.060546875,-53.0625,-56.71875,-81.4375,0.0,0.0,0.0
466,1696168237972,-1.0898438,-0.21582031,0.07910156,-21.4375,-56.34375,-101.21875,0.0,0.0,0.0
467,1696168238036,-1.0,-0.19628906,0.109375,-4.53125,-54.40625,-124.59375,0.0,0.0,0.0
468,1696168238065,-0.89941406,-0.16015625,0.13085938,-2.875,-45.78125,-113.65625,-38.875,-16.9375,-86.625
469,1696168238097,-0.75,-0.11621094,0.16113281,-14.90625,-36.34375,-96.875,0.0,0.0,0.0
470,1696168238156,-0.6748047,-0.18945312,0.10839844,-21.6875,-24.5625,-82.09375,0.0,0.0,0.0
471,1696168238185,-0.58691406,-0.31347656,0.12011719,-7.9375,-17.46875,-57.09375,0.0,0.0,0.0
472,1696168238216,-0.5673828,-0.4921875,0.13574219,12.5625,-8.25,-20.15625,0.0,0.0,0.0
473,1696168238276,-0.4482422,-0.5097656,0.20800781,14.15625,23.84375,-2.53125,0.0,0.0,0.0
474,1696168238305,-0.5957031,-0.4765625,0.24707031,11.59375,33.75,17.75,0.0,0.0,0.0
475,1696168238334,-0.7216797,-0.44140625,0.21777344,25.5625,32.46875,26.15625,0.0,0.0,0.0
476,1696168238393,-1.4355469,-0.6826172,0.2783203,8.71875,30.0,-2.40625,0.0,0.0,0.0
477,1696168238422,-0.82910156,-0.43359375,0.36523438,12.0625,11.40625,10.46875,0.0,0.0,0.0
478,1696168238453,-0.7324219,-0.5595703,0.125,-7.78125,38.8125,26.71875,0.0,0.0,0.0
479,1696168238514,-1.3818359,-0.5839844,0.15917969,10.0625,28.78125,57.71875,0.0,0.0,0.0
480,1696168238545,-1.0214844,-0.40820312,0.123046875,-1.46875,37.53125,41.84375,0.0,0.0,0.0
481,1696168238576,-0.85839844,-0.27734375,0.07910156,-15.09375,58.75,49.78125,-35.875,-22.3125,-87.5
482,1696168238636,-1.0087891,-0.36328125,-0.0087890625,-9.59375,61.3125,65.84375,0.0,0.0,0.0
483,1696168238664,-1.0537109,-0.2607422,-0.0087890625,-7.03125,46.0625,51.8125,0.0,0.0,0.0
484,1696168238693,-1.0566406,-0.1640625,-0.091796875,2.0625,35.625,48.375,0.0,0.0,0.0
485,1696168238753,-0.8964844,-0.022460938,-0.10546875,-19.3125,31.53125,52.21875,0.0,0.0,0.0
486,1696168238784,-1.0068359,-0.13867188,-0.14648438,-16.375,27.15625,60.84375,0.0,0.0,0.0
487,1696168238818,-1.1494141,-0.27441406,-0.16210938,-16.625,18.84375,59.0,0.0,0.0,0.0
488,1696168238875,-0.9511719,-0.16699219,-0.095703125,7.90625,11.40625,48.875,0.0,0.0,0.0
489,1696168238904,-0.9609375,-0.13378906,-0.12988281,42.15625,8.15625,55.90625,0.0,0.0,0.0
490,1696168238933,-0.9296875,-0.052734375,-0.12011719,28.5625,6.8125,43.75,0.0,0.0,0.0
491,1696168238993,-0.90527344,-0.13183594,-0.07128906,13.40625,0.71875,38.3125,0.0,0.0,0.0
492,1696168239025,-0.921875,-0.055664062,-0.09082031,-0.0625,-2.28125,28.84375,0.0,0.0,0.0
493,1696168239054,-0.9375,-0.16113281,-0.068359375,-7.28125,9.5,21.90625,-48.625,-7.1875,-95.625
494,1696168239116,-0.94628906,-0.14648438,-0.04296875,-0.625,14.3125,15.65625,0.0,0.0,0.0
495,1696168239145,-0.96191406,-0.046875,-0.05859375,-2.875,8.53125,2.96875,0.0,0.0,0.0
496,1696168239174,-1.0869141,0.111328125,-0.17480469,1.4375,15.96875,12.75,0.0,0.0,0.0
497,1696168239236,-1.0361328,0.12792969,-0.15429688,-8.75,10.0,13.28125,0.0,0.0,0.0
498,1696168239270,-1.1933594,0.08203125,-0.15429688,-5.25,3.53125,22.125,0.0,0.0,0.0
499,1696168239296,-1.0097656,-0.0625,-0.18945312,-29.625,0.28125,21.21875,0.0,0.0,0.0
500,1696168239359,-1.0986328,-0.005859375,-0.11035156,-3.0,9.09375,19.875,0.0,0.0,0.0
501,1696168239385,-1.3378906,-0.13964844,-0.06347656,18.40625,10.71875,19.5625,0.0,0.0,0.0
502,1696168239414,-1.5166016,0.09863281,0.0048828125,13.59375,-27.65625,-1.3125,0.0,0.0,0.0
503,1696168239474,-1.1845703,-0.07910156,0.0546875,-26.4375,-97.65625,-42.5625,0.0,0.0,0.0
504,1696168239507,-0.87597656,-0.022460938,0.16113281,-60.1875,-89.5,-74.0,0.0,0.0,0.0
505,1696168239532,-0.9814453,-0.1640625,0.0625,-76.4375,-34.5625,-93.9375,0.0,0.0,0.0
506,1696168239591,-1.0771484,-0.26757812,0.0068359375,-29.9375,1.03125,-92.96875,-45.0,-7.9375,-91.875
507,1696168239622,-1.2275391,-0.13085938,0.37109375,28.96875,-46.53125,-85.9375,0.0,0.0,0.0
508,1696168239652,-1.265625,0.05078125,-0.099609375,36.53125,-64.40625,-102.875,0.0,0.0,0.0
509,1696168239713,-0.9667969,-0.13476562,0.14160156,-23.8125,-67.53125,-119.09375,0.0,0.0,0.0
510,1696168239743,-0.7705078,0.0126953125,0.11328125,-37.5625,-45.59375,-100.125,0.0,0.0,0.0
511,1696168239773,-0.75,-0.18359375,0.14746094,-26.375,-22.96875,-76.5,0.0,0.0,0.0
512,1696168239833,-0.7519531,-0.328125,0.13574219,-4.15625,-24.75,-59.15625,0.0,0.0,0.0
513,1696168239862,-0.55566406,-0.24023438,0.11816406,20.6875,-28.15625,-39.625,0.0,0.0,0.0
514,1696168239895,-0.47558594,-0.2705078,0.12402344,3.03125,7.5,-13.1875,0.0,0.0,0.0
515,1696168239953,-0.60058594,-0.49414062,0.080078125,-15.59375,29.71875,6.15625,0.0,0.0,0.0
516,1696168239983,-0.62109375,-0.53125,0.12011719,7.125,43.375,7.6875,0.0,0.0,0.0
517,1696168240013,-0.58496094,-0.57714844,0.35253906,9.03125,48.375,19.9375,0.0,0.0,0.0
518,1696168240072,-1.6455078,-0.7246094,0.12207031,-3.3125,35.75,3.03125,-31.1875,-25.3125,-87.1875
519,1696168240103,-0.87109375,-0.37402344,0.25585938,45.21875,12.5,-3.96875,0.0,0.0,0.0
520,1696168240132,-0.6933594,-0.3095703,0.17089844,21.65625,30.8125,26.21875,0.0,0.0,0.0
521,1696168240192,-1.3027344,-0.3857422,0.08496094,-17.65625,61.8125,59.6875,0.0,0.0,0.0
522,1696168240234,-1.1992188,-0.5019531,0.07519531,2.0625,53.8125,47.21875,0.0,0.0,0.0
523,1696168240252,-0.98828125,-0.30664062,-0.017578125,12.625,53.8125,46.625,0.0,0.0,0.0
524,1696168240313,-0.9121094,-0.12109375,-0.040039062,4.25,58.28125,57.0,0.0,0.0,0.0
525,1696168240343,-1.1650391,-0.055664062,-0.08300781,-14.96875,52.09375,53.375,0.0,0.0,0.0
526,1696168240372,-0.9658203,-0.12695312,-0.0234375,-30.96875,23.53125,50.8125,0.0,0.0,0.0
527,1696168240433,-0.9638672,-0.06933594,-0.15722656,-55.5625,35.9375,55.03125,0.0,0.0,0.0
528,1696168240464,-1.1416016,-0.22558594,-0.26953125,-34.3125,13.78125,56.375,0.0,0.0,0.0
529,1696168240496,-0.9238281,-0.27734375,-0.16113281,-10.03125,-3.75,51.5625,0.0,0.0,0.0
530,1696168240556,-0.94433594,-0.24023438,-0.13867188,25.0,3.40625,44.0,0.0,0.0,0.0
531,1696168240586,-0.92578125,-0.0703125,-0.12792969,38.0625,-0.75,37.75,-45.125,-9.875,-97.5625
532,1696168240617,-0.8984375,-0.053710938,-0.12988281,39.46875,-2.875,37.75,0.0,0.0,0.0
533,1696168240676,-0.9042969,0.029296875,-0.09472656,14.28125,5.65625,24.9375,0.0,0.0,0.0
534,1696168240707,-0.9785156,-0.12890625,-0.08691406,-3.875,6.75,30.875,0.0,0.0,0.0
535,1696168240741,-0.99902344,-0.11230469,-0.048828125,-2.40625,8.40625,17.5,0.0,0.0,0.0
536,1696168240795,-1.0175781,-0.068359375,-0.06738281,-1.84375,9.3125,13.15625,0.0,0.0,0.0
537,1696168240824,-0.9716797,-0.06542969,-0.10839844,1.8125,10.46875,14.625,0.0,0.0,0.0
538,1696168240855,-0.9736328,0.045898438,-0.095703125,-10.625,9.875,18.40625,0.0,0.0,0.0
539,1696168240916,-1.0195312,0.032226562,-0.23046875,3.46875,12.75,32.53125,0.0,0.0,0.0
540,1696168240950,-1.0458984,0.0078125,-0.16210938,9.5,12.9375,29.03125,0.0,0.0,0.0
541,1696168240974,-1.2939453,-0.00390625,-0.19238281,14.375,16.09375,19.6875,0.0,0.0,0.0
542,1696168241035,-1.2900391,-0.024414062,-0.15332031,7.5625,-0.875,6.15625,0.0,0.0,0.0
543,1696168241069,-1.2666016,0.12890625,-0.07910156,15.5,-13.375,-2.625,-48.3125,0.1875,-98.625
544,1696168241095,-1.1289062,0.032226562,-0.06640625,1.75,-36.5625,-18.3125,0.0,0.0,0.0
545,1696168241155,-1.0429688,0.107421875,0.040039062,-57.3125,-61.21875,-49.21875,0.0,0.0,0.0
546,1696168241189,-1.1367188,-0.02734375,-0.08300781,-73.8125,-40.84375,-61.59375,0.0,0.0,0.0
547,1696168241215,-1.0175781,-0.30664062,0.10253906,-37.25,-42.9375,-76.625,0.0,0.0,0.0
548,1696168241276,-1.0966797,-0.25585938,0.076171875,-49.875,-28.34375,-106.59375,0.0,0.0,0.0
549,1696168241308,-1.2929688,0.1484375,0.12597656,27.75,-45.3125,-89.0,0.0,0.0,0.0
550,1696168241336,-1.1240234,-0.09667969,-0.036132812,31.71875,-66.78125,-100.78125,0.0,0.0,0.0
551,1696168241395,-1.0234375,-0.18945312,0.038085938,-4.78125,-71.625,-114.28125,0.0,0.0,0.0
552,1696168241427,-0.82714844,-0.07324219,0.17089844,-18.875,-47.75,-110.90625,0.0,0.0,0.0
553,1696168241457,-0.8144531,-0.20019531,0.17382812,-20.46875,-27.59375,-89.90625,0.0,0.0,0.0
554,1696168241516,-0.6816406,-0.2763672,0.18945312,-1.65625,-26.6875,-53.46875,0.0,0.0,0.0
555,1696168241549,-0.67578125,-0.45117188,0.09277344,11.34375,-11.90625,-13.4375,0.0,0.0,0.0
556,1696168241606,-0.4970703,-0.29492188,0.123046875,15.5625,5.40625,0.34375,-28.8125,-24.6875,-85.5625
557,1696168241636,-0.59472656,-0.4033203,0.044921875,3.03125,36.375,3.59375,0.0,0.0,0.0
558,1696168241666,-0.69628906,-0.3857422,0.091796875,29.84375,27.375,8.84375,0.0,0.0,0.0
559,1696168241696,-0.60839844,-0.21582031,0.20800781,44.71875,35.8125,29.09375,0.0,0.0,0.0
560,1696168241755,-1.0966797,-0.4140625,0.12890625,7.90625,26.59375,20.8125,0.0,0.0,0.0
561,1696168241790,-1.2998047,-0.51660156,0.19238281,3.46875,29.28125,0.78125,0.0,0.0,0.0
562,1696168241815,-0.8701172,-0.3486328,0.11035156,6.6875,32.8125,20.3125,0.0,0.0,0.0
563,1696168241876,-1.0820312,-0.33789062,0.14746094,-16.75,60.21875,51.5625,0.0,0.0,0.0
564,1696168241909,-1.3867188,-0.3828125,0.08105469,-23.03125,56.5,52.0625,0.0,0.0,0.0
565,1696168241936,-0.84472656,-0.2109375,0.021484375,-5.3125,32.40625,45.53125,0.0,0.0,0.0
566,1696168241993,-0.96191406,-0.18066406,-0.06542969,-21.5625,46.0,61.4375,0.0,0.0,0.0
567,1696168242025,-1.0625,-0.20019531,-0.15136719,-22.40625,43.625,49.46875,0.0,0.0,0.0
568,1696168242089,-0.9238281,-0.025390625,-0.12011719,-22.59375,32.75,42.28125,-40.625,-15.4375,-95.3125
569,1696168242115,-0.9980469,-0.059570312,-0.21679688,-30.65625,22.625,53.875,0.0,0.0,0.0
570,1696168242148,-1.1152344,-0.29589844,-0.14355469,-12.65625,17.375,54.78125,0.0,0.0,0.0
571,1696168242175,-0.9472656,-0.25683594,-0.1484375,4.25,5.90625,43.5,0.0,0.0,0.0
572,1696168242237,-0.9560547,-0.087890625,-0.15625,38.75,6.5625,41.125,0.0,0.0,0.0
573,1696168242263,-0.9423828,0.0,-0.11816406,43.375,-8.4375,40.21875,0.0,0.0,0.0
574,1696168242293,-0.93359375,-0.13964844,-0.09082031,23.59375,-1.96875,35.25,0.0,0.0,0.0
575,1696168242353,-0.953125,-0.022460938,-0.07324219,14.5,10.84375,22.8125,0.0,0.0,0.0
576,1696168242385,-0.9248047,-0.026367188,-0.1015625,-11.90625,4.9375,22.9375,0.0,0.0,0.0
577,1696168242418,-0.9628906,-0.056640625,-0.14648438,-7.21875,11.75,20.90625,0.0,0.0,0.0
578,1696168242473,-0.95214844,-0.053710938,-0.12109375,3.90625,15.84375,18.40625,0.0,0.0,0.0
579,1696168242503,-1.0117188,-0.057617188,-0.109375,3.71875,17.3125,13.0,0.0,0.0,0.0
580,1696168242533,-1.0214844,-0.048828125,-0.15820312,-14.84375,10.78125,7.25,0.0,0.0,0.0
581,1696168242593,-1.0634766,-0.0107421875,-0.18066406,10.46875,13.71875,7.90625,-47.375,-4.0,-101.4375
582,1696168242624,-1.1103516,0.10058594,-0.2265625,1.5,14.5,24.28125,0.0,0.0,0.0
583,1696168242653,-1.0810547,-0.055664062,-0.20800781,-7.71875,4.5,18.53125,0.0,0.0,0.0
584,1696168242713,-1.1992188,-0.07128906,-0.16796875,7.375,8.71875,7.375,0.0,0.0,0.0
585,1696168242745,-1.3261719,0.09863281,-0.107421875,27.09375,1.21875,3.03125,0.0,0.0,0.0
586,1696168242772,-1.2763672,0.24414062,-0.11035156,13.21875,-19.125,-0.25,0.0,0.0,0.0
587,1696168242835,-1.1347656,0.095703125,-0.052734375,-62.5625,-54.8125,-21.4375,0.0,0.0,0.0
588,1696168242863,-0.9589844,-0.07910156,0.13867188,-71.3125,-94.5,-42.96875,0.0,0.0,0.0
589,1696168242894,-0.9394531,-0.34765625,0.09863281,-54.6875,-50.78125,-84.96875,0.0,0.0,0.0
590,1696168242953,-1.2763672,-0.0546875,0.01953125,-60.125,-36.34375,-120.8125,0.0,0.0,0.0
591,1696168242982,-1.1269531,0.053710938,0.14550781,-28.8125,-55.0625,-99.4375,0.0,0.0,0.0
592,1696168243013,-1.2304688,-0.053710938,0.03125,21.59375,-73.875,-92.90625,0.0,0.0,0.0
593,1696168243073,-0.99121094,-0.37402344,0.005859375,19.8125,-75.5625,-110.4375,-39.4375,-16.3125,-89.625
594,1696168243103,-0.8798828,-0.028320312,0.17675781,-32.84375,-61.78125,-121.71875,0.0,0.0,0.0
595,1696168243133,-0.7373047,-0.171875,0.12988281,-2.46875,-32.4375,-94.1875,0.0,0.0,0.0
596,1696168243193,-0.81933594,-0.29296875,0.1796875,-12.21875,-28.53125,-79.125,0.0,0.0,0.0
597,1696168243226,-0.59277344,-0.2841797,0.15527344,0.28125,-16.3125,-55.8125,0.0,0.0,0.0
598,1696168243253,-0.38964844,-0.26660156,0.11035156,27.15625,-10.09375,-24.75,0.0,0.0,0.0
599,1696168243316,-0.54785156,-0.4736328,0.091796875,1.5,11.53125,0.34375,0.0,0.0,0.0
600,1696168243344,-0.55566406,-0.4794922,0.18164062,2.25,41.71875,-2.34375,0.0,0.0,0.0
601,1696168243372,-0.5859375,-0.4404297,0.125,6.15625,50.15625,10.46875,0.0,0.0,0.0
602,1696168243433,-1.0292969,-0.6640625,0.43652344,-2.28125,46.90625,21.96875,0.0,0.0,0.0
603,1696168243463,-1.5810547,-0.6376953,0.4169922,11.40625,36.1875,11.9375,0.0,0.0,0.0
604,1696168243494,-0.8251953,-0.33203125,0.16210938,25.0625,26.65625,23.0,0.0,0.0,0.0
605,1696168243552,-0.9355469,-0.37695312,0.0546875,-19.0,37.9375,61.875,0.0,0.0,0.0
606,1696168243582,-1.4082031,-0.5253906,0.16503906,-39.0625,70.96875,66.75,-32.125,-23.1875,-88.6875
607,1696168243613,-0.89453125,-0.37109375,-0.015625,18.40625,37.9375,49.375,0.0,0.0,0.0
608,1696168243672,-0.78808594,-0.10839844,0.0009765625,6.03125,43.5625,51.5,0.0,0.0,0.0
609,1696168243703,-1.1533203,-0.19628906,-0.025390625,-16.6875,49.65625,52.34375,0.0,0.0,0.0
610,1696168243732,-0.9472656,-0.041015625,-0.044921875,-22.53125,37.03125,40.03125,0.0,0.0,0.0
611,1696168243792,-0.9609375,-0.15332031,-0.15332031,-39.875,40.625,60.65625,0.0,0.0,0.0
612,1696168243824,-1.1162109,-0.26171875,-0.23339844,-38.59375,23.25,62.59375,0.0,0.0,0.0
613,1696168243855,-1.0185547,-0.32617188,-0.15429688,-4.34375,7.4375,46.5625,0.0,0.0,0.0
614,1696168243914,-0.9296875,-0.15625,-0.16601562,30.3125,-0.125,46.4375,0.0,0.0,0.0
615,1696168243948,-0.9814453,-0.08300781,-0.14453125,47.53125,-7.65625,48.15625,0.0,0.0,0.0
616,1696168243974,-0.95703125,-0.14550781,-0.12695312,31.34375,-5.15625,40.21875,0.0,0.0,0.0
617,1696168244036,-0.9091797,-0.10058594,-0.091796875,29.59375,4.8125,25.25,0.0,0.0,0.0
618,1696168244072,-0.9589844,0.0029296875,-0.05859375,5.90625,9.5625,28.78125,-44.6875,-9.875,-96.5
619,1696168244096,-0.9824219,-0.12695312,-0.08886719,-0.125,10.65625,31.0,0.0,0.0,0.0
620,1696168244154,-0.9003906,-0.09765625,-0.051757812,1.875,0.28125,19.03125,0.0,0.0,0.0
621,1696168244188,-0.93359375,-0.10546875,-0.11621094,0.0,11.71875,18.0,0.0,0.0,0.0
622,1696168244216,-0.9003906,-0.037109375,-0.078125,-3.4375,10.40625,8.28125,0.0,0.0,0.0
623,1696168244276,-1.0683594,0.044921875,-0.123046875,5.90625,13.53125,21.46875,0.0,0.0,0.0
624,1696168244306,-1.0439453,-0.057617188,-0.11230469,-15.46875,17.375,18.34375,0.0,0.0,0.0
625,1696168244335,-1.0361328,-0.028320312,-0.171875,-22.53125,12.4375,10.1875,0.0,0.0,0.0
626,1696168244395,-1.0654297,-0.033203125,-0.24023438,-22.84375,10.3125,1.375,0.0,0.0,0.0
627,1696168244423,-1.4433594,-0.001953125,-0.080078125,0.21875,21.96875,8.03125,0.0,0.0,0.0
628,1696168244485,-1.3535156,-0.043945312,-0.23144531,7.625,-11.0625,28.5,0.0,0.0,0.0
629,1696168244515,-1.3330078,0.45703125,-0.17089844,12.3125,-4.03125,40.09375,0.0,0.0,0.0
630,1696168244546,-1.09375,0.10546875,-0.10058594,-38.96875,-41.9375,30.5625,0.0,0.0,0.0
631,1696168244604,-0.8701172,0.18945312,-0.087890625,-69.34375,-53.46875,-10.34375,-47.6875,-0.25,-98.875
632,1696168244634,-0.8496094,-0.19628906,-0.034179688,-38.28125,-37.84375,-31.4375,0.0,0.0,0.0
633,1696168244665,-0.83984375,-0.17089844,0.14453125,11.53125,-55.3125,-81.1875,0.0,0.0,0.0
634,1696168244729,-1.1914062,0.24511719,0.078125,-4.21875,-44.09375,-91.4375,0.0,0.0,0.0
635,1696168244756,-1.0273438,0.56640625,0.07910156,-1.25,-32.1875,-47.75,0.0,0.0,0.0
636,1696168244783,-0.9980469,0.2998047,-0.03125,13.90625,-58.65625,-16.875,0.0,0.0,0.0
637,1696168244842,-0.93847656,-0.2861328,-0.020507812,-35.90625,-26.5,-34.9375,0.0,0.0,0.0
638,1696168244872,-0.9560547,-0.0703125,0.091796875,-70.6875,-12.21875,-72.21875,0.0,0.0,0.0
639,1696168244901,-0.91308594,0.11816406,0.11035156,22.5625,-0.5625,-38.28125,0.0,0.0,0.0
640,1696168244962,-0.9277344,0.07128906,0.095703125,18.40625,17.875,-18.15625,0.0,0.0,0.0
641,1696168244993,-0.81347656,0.13964844,0.091796875,14.8125,13.15625,2.96875,0.0,0.0,0.0
642,1696168245023,-0.84472656,0.0126953125,0.13476562,21.84375,13.0,28.3125,0.0,0.0,0.0
643,1696168245082,-0.86621094,-0.06542969,0.017578125,14.15625,30.125,42.78125,-40.0625,-13.4375,-90.625
644,1696168245112,-0.9111328,-0.24414062,0.041015625,41.5,8.03125,32.15625,0.0,0.0,0.0
645,1696168245143,-0.9423828,-0.19824219,0.06738281,45.34375,19.8125,7.375,0.0,0.0,0.0
646,1696168245202,-1.1308594,0.025390625,0.0087890625,23.1875,23.25,3.21875,0.0,0.0,0.0
647,1696168245232,-1.0898438,0.21777344,0.015625,3.40625,33.84375,12.75,0.0,0.0,0.0
648,1696168245263,-1.0283203,-0.0078125,0.0068359375,20.96875,11.9375,29.59375,0.0,0.0,0.0
649,1696168245322,-0.9326172,-0.16308594,0.059570312,10.1875,5.21875,-1.40625,0.0,0.0,0.0
650,1696168245352,-0.98339844,0.171875,-0.038085938,23.0625,13.71875,1.3125,0.0,0.0,0.0
651,1696168245382,-1.0205078,0.10449219,-0.034179688,10.0625,7.125,9.8125,0.0,0.0,0.0
652,1696168245472,-1.0292969,-0.064453125,-0.09863281,-7.78125,9.875,10.59375,0.0,0.0,0.0
653,1696168245474,-1.0087891,-0.055664062,0.0146484375,10.46875,9.25,2.90625,0.0,0.0,0.0
654,1696168245502,-1.0214844,0.01953125,-0.024414062,3.03125,2.0,-1.84375,0.0,0.0,0.0
655,1696168245562,-1.03125,0.018554688,-0.037109375,7.5,8.84375,-2.03125,0.0,0.0,0.0
656,1696168245593,-0.9921875,0.032226562,-0.06347656,-0.9375,6.625,-2.03125,-44.6875,-6.6875,-92.75
657,1696168245623,-1.0527344,0.0625,-0.026367188,-2.46875,4.25,0.84375,0.0,0.0,0.0
658,1696168245682,-0.9892578,-0.0234375,-0.07910156,-5.75,0.59375,2.0,0.0,0.0,0.0
659,1696168245713,-0.9824219,-0.025390625,-0.029296875,-14.25,2.96875,-2.21875,0.0,0.0,0.0
660,1696168245741,-1.0234375,-0.009765625,-0.0625,-0.25,4.9375,-1.78125,0.0,0.0,0.0
661,1696168245803,-1.0195312,0.0078125,-0.047851562,-9.21875,3.28125,-1.71875,0.0,0.0,0.0
662,1696168245832,-1.0292969,-0.013671875,-0.0048828125,-4.34375,0.59375,0.84375,0.0,0.0,0.0
663,1696168245862,-0.99902344,-0.015625,-0.0703125,-4.90625,1.03125,-0.875,0.0,0.0,0.0
664,1696168245923,-1.0214844,-0.024414062,-0.046875,-2.9375,2.59375,-1.84375,0.0,0.0,0.0
665,1696168245952,-1.0292969,-0.0126953125,-0.04296875,-1.90625,0.46875,-2.03125,0.0,0.0,0.0
666,1696168245982,-1.0097656,0.0,-0.041992188,0.34375,0.03125,-3.0625,0.0,0.0,0.0
667,1696168246044,-1.0224609,0.0087890625,-0.047851562,-4.03125,0.71875,-3.0,0.0,0.0,0.0
668,1696168246072,-1.0107422,-0.016601562,-0.032226562,-5.5625,-0.25,-2.15625,-45.0,-6.4375,-95.3125
669,1696168246103,-1.0126953,-0.0029296875,-0.04296875,-1.78125,-0.625,-2.6875,0.0,0.0,0.0
670,1696168246162,-1.0097656,-0.0078125,-0.05078125,-3.875,-0.625,-2.15625,0.0,0.0,0.0
671,1696168246193,-1.0097656,-0.009765625,-0.020507812,-1.65625,1.28125,-1.34375,0.0,0.0,0.0
672,1696168246223,-1.0166016,0.0048828125,-0.028320312,0.0,0.84375,-0.875,0.0,0.0,0.0
673,1696168246284,-1.0107422,-0.0048828125,-0.044921875,-0.5625,-0.0625,-0.625,0.0,0.0,0.0
674,1696168246312,-1.0195312,-0.0009765625,-0.044921875,-1.40625,0.34375,-0.1875,0.0,0.0,0.0
675,1696168246343,-1.0205078,0.001953125,-0.046875,0.46875,0.21875,0.53125,0.0,0.0,0.0
676,1696168246402,-1.0224609,-0.001953125,-0.045898438,0.78125,-1.78125,1.8125,0.0,0.0,0.0
677,1696168246433,-1.0166016,-0.001953125,-0.043945312,-4.96875,-2.875,0.0,0.0,0.0,0.0
678,1696168246462,-1.0019531,-0.0146484375,-0.045898438,-5.625,-2.625,-0.3125,0.0,0.0,0.0
679,1696168246553,-1.0097656,-0.017578125,-0.021484375,-1.25,-2.34375,1.21875,0.0,0.0,0.0
680,1696168246555,-1.0224609,-0.018554688,-0.034179688,-3.0625,-3.375,2.125,0.0,0.0,0.0
681,1696168246582,-1.0087891,-0.0078125,-0.046875,-1.84375,-4.03125,4.0,-44.125,-8.5,-93.0625
682,1696168246643,-1.0263672,-0.030273438,-0.0009765625,-6.59375,-5.5,6.15625,0.0,0.0,0.0
683,1696168246672,-1.0117188,-0.048828125,0.01171875,-6.3125,-6.375,5.59375,0.0,0.0,0.0
684,1696168246701,-1.0,-0.08984375,-0.032226562,-3.125,-9.40625,4.5625,0.0,0.0,0.0
685,1696168246792,-1.0458984,-0.08105469,0.018554688,-2.9375,-9.40625,0.65625,0.0,0.0,0.0
686,1696168246794,-1.0107422,-0.11230469,0.026367188,-0.625,-13.9375,-3.375,0.0,0.0,0.0
687,1696168246821,-1.0039062,-0.14648438,0.068359375,1.625,-14.3125,-9.78125,0.0,0.0,0.0
688,1696168246883,-0.9453125,-0.21972656,0.06933594,2.90625,-17.65625,-19.78125,0.0,0.0,0.0
689,1696168246912,-0.93652344,-0.31347656,0.11425781,-6.90625,-10.625,-47.375,0.0,0.0,0.0
690,1696168246943,-1.0917969,-0.3232422,0.14550781,5.59375,6.5625,-80.46875,0.0,0.0,0.0
691,1696168247003,-1.1416016,-0.29296875,0.2685547,37.40625,1.15625,-85.03125,0.0,0.0,0.0
692,1696168247034,-1.2626953,0.047851562,0.21582031,8.40625,-31.6875,-91.375,0.0,0.0,0.0
693,1696168247062,-0.9609375,0.095703125,-0.13964844,8.53125,-18.6875,-32.96875,-39.875,-15.4375,-88.375
694,1696168247127,-1.0039062,-0.5878906,0.1640625,-30.09375,-20.84375,-35.78125,0.0,0.0,0.0
695,1696168247156,-0.82128906,-0.25,0.080078125,-11.4375,-8.75,-45.1875,0.0,0.0,0.0
696,1696168247183,-0.8173828,-0.33691406,0.16503906,28.1875,-1.40625,-30.40625,0.0,0.0,0.0
697,1696168247253,-0.8173828,-0.26953125,0.18945312,40.375,5.53125,-9.0,0.0,0.0,0.0
698,1696168247275,-0.7607422,-0.1953125,0.19628906,35.5,5.21875,10.375,0.0,0.0,0.0
699,1696168247305,-0.75683594,-0.2626953,0.13964844,33.6875,23.84375,36.46875,0.0,0.0,0.0
700,1696168247369,-0.88671875,-0.39648438,0.23144531,41.5625,26.15625,52.84375,0.0,0.0,0.0
701,1696168247396,-1.1279297,-0.53027344,0.25585938,37.21875,4.9375,39.71875,0.0,0.0,0.0
702,1696168247425,-1.1621094,-0.5498047,0.26757812,18.78125,-0.4375,-14.40625,0.0,0.0,0.0
703,1696168247487,-1.078125,-0.28125,0.24902344,-35.90625,33.625,-39.03125,0.0,0.0,0.0
704,1696168247517,-1.3798828,0.10449219,0.16308594,4.875,57.65625,7.125,0.0,0.0,0.0
705,1696168247544,-1.1650391,-0.49121094,-0.0625,16.15625,6.03125,-1.84375,0.0,0.0,0.0
706,1696168247609,-0.8046875,-0.18945312,0.08691406,-41.15625,31.0,-38.15625,-39.625,-13.9375,-87.9375
707,1696168247635,-0.68847656,0.29296875,-0.059570312,28.96875,13.71875,30.1875,0.0,0.0,0.0
708,1696168247666,-1.0791016,0.07910156,-0.30664062,-0.0625,37.21875,59.4375,0.0,0.0,0.0
709,1696168247759,-1.2050781,-0.2705078,-0.018554688,-9.90625,18.71875,26.53125,0.0,0.0,0.0
710,1696168247763,-0.8964844,-0.12402344,-0.08496094,-40.0625,10.65625,2.3125,0.0,0.0,0.0
711,1696168247786,-1.0253906,-0.05078125,-0.23339844,8.59375,32.34375,31.1875,0.0,0.0,0.0
712,1696168247849,-1.0830078,-0.095703125,-0.0859375,-27.125,16.84375,24.15625,0.0,0.0,0.0
713,1696168247878,-0.9951172,-0.09375,-0.14355469,-5.9375,-6.375,23.71875,0.0,0.0,0.0
714,1696168247904,-0.91015625,-0.09277344,-0.1484375,-24.3125,1.3125,19.9375,0.0,0.0,0.0
715,1696168247967,-0.9667969,-0.09082031,-0.1015625,0.65625,17.0625,19.34375,0.0,0.0,0.0
716,1696168247997,-0.99316406,-0.052734375,-0.08203125,-11.1875,13.0,11.8125,0.0,0.0,0.0
717,1696168248025,-1.0390625,-0.028320312,-0.08886719,-17.96875,12.0,12.5,0.0,0.0,0.0
718,1696168248087,-1.0185547,-0.09082031,-0.07714844,-21.5,4.375,12.75,-44.25,-9.4375,-95.3125
719,1696168248116,-1.015625,-0.16113281,-0.06347656,-18.4375,6.9375,8.21875,0.0,0.0,0.0
720,1696168248144,-0.984375,-0.19335938,-0.08691406,-15.03125,12.0,7.25,0.0,0.0,0.0
721,1696168248207,-0.9667969,-0.21386719,-0.125,2.25,14.8125,6.09375,0.0,0.0,0.0
722,1696168248238,-1.0,-0.123046875,-0.12402344,13.40625,18.78125,4.3125,0.0,0.0,0.0
723,1696168248270,-1.0498047,-0.00390625,-0.13183594,8.71875,14.375,10.1875,0.0,0.0,0.0
724,1696168248325,-1.0517578,-0.10546875,-0.23046875,-16.8125,6.875,11.40625,0.0,0.0,0.0
725,1696168248356,-0.9892578,-0.111328125,-0.21679688,-23.5625,6.5,-9.65625,0.0,0.0,0.0
726,1696168248390,-1.1025391,0.036132812,-0.16015625,-4.96875,-0.9375,-21.875,0.0,0.0,0.0
727,1696168248445,-1.1171875,0.099609375,-0.123046875,-20.9375,-17.59375,-5.625,0.0,0.0,0.0
728,1696168248474,-1.0039062,-0.059570312,-0.05078125,-42.8125,-26.625,-2.46875,0.0,0.0,0.0
729,1696168248508,-0.9638672,-0.095703125,-0.0126953125,-21.8125,-31.21875,-12.21875,0.0,0.0,0.0
730,1696168248566,-1.0332031,-0.099609375,0.017578125,-4.96875,-37.75,-24.1875,0.0,0.0,0.0
731,1696168248597,-1.0595703,-0.022460938,-0.053710938,-1.96875,-43.59375,-33.84375,-44.5625,-10.75,-97.375
732,1696168248627,-1.0341797,0.032226562,0.049804688,-10.5,-46.71875,-36.15625,0.0,0.0,0.0
733,1696168248686,-1.0361328,0.07519531,0.0048828125,-16.25,-39.25,-30.71875,0.0,0.0,0.0
734,1696168248716,-1.0214844,-0.0146484375,0.046875,-18.625,-26.5,-19.84375,0.0,0.0,0.0
735,1696168248751,-1.0195312,-0.08203125,0.047851562,-31.4375,-22.28125,-22.0625,0.0,0.0,0.0
736,1696168248806,-0.95410156,-0.0625,0.06933594,-24.0625,-26.4375,-22.34375,0.0,0.0,0.0
737,1696168248840,-1.0097656,-0.0625,0.06640625,-15.9375,-13.5625,-15.46875,0.0,0.0,0.0
738,1696168248868,-0.99902344,-0.15429688,0.08691406,-16.0,-4.78125,-8.4375,0.0,0.0,0.0
739,1696168248926,-0.92285156,-0.060546875,0.056640625,-13.0625,1.15625,-2.8125,0.0,0.0,0.0
740,1696168248955,-0.94921875,-0.12792969,0.08886719,-6.84375,7.4375,6.28125,0.0,0.0,0.0
741,1696168248988,-0.984375,-0.18261719,0.11621094,-5.5,11.21875,10.0625,0.0,0.0,0.0
742,1696168249045,-0.91796875,-0.20214844,0.13671875,7.25,7.375,11.9375,0.0,0.0,0.0
743,1696168249074,-0.9277344,-0.18945312,0.14257812,29.15625,6.8125,11.9375,-40.5,-16.0,-93.375
744,1696168249105,-0.9609375,-0.17089844,0.076171875,36.90625,9.9375,15.5,0.0,0.0,0.0
745,1696168249165,-0.94921875,-0.19824219,0.09863281,7.5,5.90625,6.9375,0.0,0.0,0.0
746,1696168249197,-0.9794922,-0.19921875,0.072265625,9.8125,13.59375,1.6875,0.0,0.0,0.0
747,1696168249227,-1.0820312,-0.0859375,0.05078125,28.3125,23.125,6.875,0.0,0.0,0.0
748,1696168249284,-1.1113281,0.052734375,0.11035156,29.34375,9.03125,22.9375,0.0,0.0,0.0
749,1696168249315,-1.0253906,-0.18847656,-0.0048828125,8.46875,3.90625,19.53125,0.0,0.0,0.0
750,1696168249345,-0.94433594,-0.265625,-0.015625,4.3125,23.1875,0.65625,0.0,0.0,0.0
751,1696168249408,-1.0214844,0.01953125,-0.06640625,33.0625,32.09375,9.5,0.0,0.0,0.0
752,1696168249435,-1.0654297,0.029296875,-0.06640625,24.28125,21.15625,9.9375,0.0,0.0,0.0
753,1696168249464,-0.9765625,-0.03125,-0.083984375,4.5625,13.96875,13.71875,0.0,0.0,0.0
754,1696168249530,-1.0175781,-0.0146484375,-0.064453125,12.5,16.40625,13.15625,0.0,0.0,0.0
755,1696168249557,-1.0292969,-0.08691406,0.0087890625,11.59375,15.1875,14.15625,0.0,0.0,0.0
756,1696168249585,-1.0029297,-0.10253906,-0.11328125,4.5625,10.0625,6.03125,-45.0,-10.0,-93.9375
757,1696168249647,-1.0419922,-0.08984375,-0.091796875,5.90625,13.15625,0.34375,0.0,0.0,0.0
758,1696168249675,-1.0185547,-0.017578125,-0.044921875,12.0625,9.9375,-1.65625,0.0,0.0,0.0
759,1696168249705,-0.9892578,-0.061523438,-0.0859375,7.90625,3.71875,-4.65625,0.0,0.0,0.0
760,1696168249768,-1.0185547,-0.053710938,-0.103515625,1.09375,7.375,-8.0,0.0,0.0,0.0
761,1696168249797,-1.0097656,-0.06542969,-0.103515625,3.21875,10.1875,-5.5,0.0,0.0,0.0
762,1696168249825,-1.0029297,-0.037109375,-0.06542969,4.9375,8.03125,-2.15625,0.0,0.0,0.0
763,1696168249887,-0.9951172,-0.046875,-0.07421875,8.28125,4.6875,0.96875,0.0,0.0,0.0
764,1696168249916,-1.046875,-0.06347656,-0.08496094,6.5625,10.71875,1.09375,0.0,0.0,0.0
765,1696168249944,-1.0273438,-0.06347656,-0.087890625,4.5625,4.3125,-0.5625,0.0,0.0,0.0
766,1696168250050,-0.9941406,-0.041015625,-0.087890625,1.875,3.34375,-1.1875,0.0,0.0,0.0
767,1696168250054,-1.0078125,-0.1015625,-0.07714844,4.125,6.28125,-1.125,0.0,0.0,0.0
768,1696168250068,-1.0068359,-0.091796875,-0.0859375,5.90625,6.8125,-1.0,-45.0,-8.6875,-95.3125
769,1696168250132,-1.015625,-0.04296875,-0.1015625,6.8125,8.15625,0.0,0.0,0.0,0.0
770,1696168250154,-1.0009766,-0.041015625,-0.080078125,8.03125,9.6875,1.375,0.0,0.0,0.0
771,1696168250184,-1.0009766,-0.03125,-0.08496094,3.34375,9.25,-0.3125,0.0,0.0,0.0
772,1696168250248,-1.0126953,-0.0146484375,-0.09765625,-3.125,8.21875,-2.09375,0.0,0.0,0.0
773,1696168250276,-1.0039062,-0.06738281,-0.10839844,-8.25,7.1875,-0.8125,0.0,0.0,0.0
774,1696168250308,-1.0117188,-0.056640625,-0.09277344,-7.40625,7.84375,0.21875,0.0,0.0,0.0
775,1696168250374,-0.99316406,-0.080078125,-0.09277344,-5.09375,7.5,-0.4375,0.0,0.0,0.0
776,1696168250396,-1.0009766,-0.0625,-0.107421875,-2.59375,8.65625,-1.96875,0.0,0.0,0.0
777,1696168250425,-1.0019531,-0.0859375,-0.11230469,-2.8125,8.78125,-2.8125,0.0,0.0,0.0
778,1696168250490,-0.98535156,-0.07519531,-0.171875,-0.1875,5.1875,-2.625,0.0,0.0,0.0
779,1696168250518,-1.0166016,-0.041015625,-0.18261719,-1.59375,6.21875,-4.53125,0.0,0.0,0.0
780,1696168250545,-0.953125,-0.08300781,-0.22460938,-1.125,3.40625,-0.1875,0.0,0.0,0.0
781,1696168250607,-0.9980469,-0.064453125,-0.24804688,6.5,-3.5,1.09375,-44.6875,-8.5,-98.125
782,1696168250635,-1.0791016,-0.080078125,-0.20410156,-0.9375,-1.90625,4.6875,0.0,0.0,0.0
783,1696168250665,-1.0136719,-0.06347656,-0.16113281,-2.40625,0.59375,5.90625,0.0,0.0,0.0
784,1696168250728,-0.9980469,-0.09277344,-0.16210938,-6.375,-3.375,2.0,0.0,0.0,0.0
785,1696168250753,-1.0078125,-0.115234375,-0.095703125,1.625,0.28125,4.5625,0.0,0.0,0.0
786,1696168250788,-0.9980469,-0.18847656,-0.12890625,-3.90625,-2.59375,6.875,0.0,0.0,0.0
787,1696168250844,-1.0087891,-0.15722656,-0.09375,11.59375,6.8125,4.0625,0.0,0.0,0.0
788,1696168250876,-1.0205078,-0.13769531,-0.09765625,3.21875,0.78125,2.0,0.0,0.0,0.0
789,1696168250906,-1.0029297,-0.14941406,-0.076171875,2.65625,2.3125,9.8125,0.0,0.0,0.0
790,1696168250965,-0.99902344,-0.10449219,-0.13085938,10.46875,6.46875,14.15625,0.0,0.0,0.0
791,1696168250998,-1.0039062,-0.05859375,-0.15820312,6.03125,10.84375,14.9375,0.0,0.0,0.0
792,1696168251025,-0.9970703,-0.09277344,-0.16503906,-5.5,2.0,11.40625,0.0,0.0,0.0
793,1696168251084,-1.0234375,-0.103515625,-0.20410156,-15.53125,8.84375,6.09375,-46.1875,-5.1875,-97.125
794,1696168251116,-1.0195312,-0.049804688,-0.22070312,-1.40625,7.96875,14.625,0.0,0.0,0.0
795,1696168251148,-0.9941406,-0.091796875,-0.19628906,10.59375,5.46875,20.375,0.0,0.0,0.0
796,1696168251204,-0.9814453,-0.08300781,-0.17675781,11.28125,6.34375,10.1875,0.0,0.0,0.0
797,1696168251234,-1.0878906,0.0859375,-0.1875,-1.59375,12.5625,13.40625,0.0,0.0,0.0
798,1696168251266,-1.1689453,-0.060546875,-0.22167969,1.15625,2.25,15.0,0.0,0.0,0.0
799,1696168251326,-1.3037109,-0.07519531,-0.17382812,13.21875,-4.46875,1.875,0.0,0.0,0.0
800,1696168251360,-1.5087891,-0.00390625,-0.16308594,24.28125,-4.65625,0.09375,0.0,0.0,0.0
801,1696168251384,-1.3330078,0.0,-0.060546875,7.5,-43.09375,-7.59375,0.0,0.0,0.0
802,1696168251447,-1.0839844,0.08886719,0.12597656,-32.1875,-72.15625,-27.125,0.0,0.0,0.0
803,1696168251475,-1.0332031,-0.06542969,-0.12597656,-64.03125,-98.03125,-47.625,0.0,0.0,0.0
804,1696168251508,-0.96777344,-0.30566406,0.13378906,-94.875,-69.96875,-83.75,0.0,0.0,0.0
805,1696168251565,-1.1923828,-0.052734375,0.09472656,-94.0625,-35.40625,-113.59375,0.0,0.0,0.0
806,1696168251593,-1.2167969,-0.13476562,0.12890625,6.40625,-70.3125,-98.90625,-40.9375,-12.25,-92.125
807,1696168251629,-1.1025391,-0.026367188,0.091796875,38.6875,-98.84375,-121.46875,0.0,0.0,0.0
808,1696168251685,-0.89453125,-0.14648438,0.11328125,18.125,-95.40625,-113.25,0.0,0.0,0.0
809,1696168251715,-0.76660156,0.0068359375,0.1640625,-36.75,-59.40625,-105.3125,0.0,0.0,0.0
810,1696168251745,-0.59375,-0.22558594,0.13867188,-23.15625,-35.40625,-80.65625,0.0,0.0,0.0
811,1696168251808,-0.6640625,-0.4111328,0.18457031,-11.90625,-32.0625,-60.25,0.0,0.0,0.0
812,1696168251836,-0.59277344,-0.32128906,0.13183594,9.5,-12.53125,-36.28125,0.0,0.0,0.0
813,1696168251863,-0.3623047,-0.29785156,0.15429688,17.6875,-3.5625,-11.25,0.0,0.0,0.0
814,1696168251928,-0.4453125,-0.5566406,0.21289062,9.375,22.5,-1.3125,0.0,0.0,0.0
815,1696168251958,-0.6269531,-0.5644531,0.21386719,13.71875,38.875,-1.71875,0.0,0.0,0.0
816,1696168251993,-0.67285156,-0.29296875,0.3154297,23.125,42.03125,17.625,0.0,0.0,0.0
817,1696168252047,-1.3818359,-0.7685547,0.57714844,5.90625,9.03125,28.0625,0.0,0.0,0.0
818,1696168252076,-1.0263672,-0.55566406,0.41601562,10.90625,47.96875,-17.90625,-26.125,-25.3125,-83.3125
819,1696168252103,-0.48632812,-0.27734375,0.38867188,36.65625,2.125,16.15625,0.0,0.0,0.0
820,1696168252170,-0.85253906,-0.45507812,0.29785156,-11.90625,38.1875,37.40625,0.0,0.0,0.0
821,1696168252199,-1.5400391,-0.5917969,0.28027344,-23.21875,42.84375,52.84375,0.0,0.0,0.0
822,1696168252226,-1.0517578,-0.4296875,0.16796875,5.53125,58.03125,49.25,0.0,0.0,0.0
823,1696168252318,-1.0634766,-0.25195312,0.08496094,-11.1875,66.15625,62.3125,0.0,0.0,0.0
824,1696168252323,-0.8652344,-0.19726562,-0.0146484375,-23.09375,73.78125,60.65625,0.0,0.0,0.0
825,1696168252344,-1.0703125,-0.19628906,-0.01171875,-7.875,51.8125,57.59375,0.0,0.0,0.0
826,1696168252409,-0.9863281,-0.24121094,-0.044921875,-8.5,24.46875,45.625,0.0,0.0,0.0
827,1696168252435,-0.8017578,-0.032226562,-0.17285156,-25.78125,23.71875,41.3125,0.0,0.0,0.0
828,1696168252467,-1.0322266,-0.14453125,-0.16015625,-23.8125,29.53125,54.78125,0.0,0.0,0.0
829,1696168252526,-1.1074219,-0.38183594,-0.1484375,-30.84375,20.5,44.0625,0.0,0.0,0.0
830,1696168252555,-0.9248047,-0.19824219,-0.09472656,24.59375,-3.0625,38.875,0.0,0.0,0.0
831,1696168252583,-0.97265625,-0.064453125,-0.08300781,43.5625,6.5625,41.78125,-42.4375,-10.75,-95.625
832,1696168252647,-0.93066406,-0.203125,-0.115234375,29.84375,17.0625,39.40625,0.0,0.0,0.0
833,1696168252678,-0.9453125,-0.15234375,-0.036132812,32.34375,20.90625,27.75,0.0,0.0,0.0
834,1696168252707,-0.9589844,-0.0087890625,-0.005859375,9.5,14.9375,20.125,0.0,0.0,0.0
835,1696168252768,-0.9550781,-0.19238281,-0.08984375,-1.3125,13.53125,31.59375,0.0,0.0,0.0
836,1696168252796,-0.8642578,-0.140625,-0.028320312,6.28125,7.90625,18.96875,0.0,0.0,0.0
837,1696168252826,-0.94433594,-0.08300781,-0.1015625,-3.75,16.03125,15.71875,0.0,0.0,0.0
838,1696168252888,-1.0009766,-0.17480469,-0.0390625,-6.25,26.15625,13.03125,0.0,0.0,0.0
839,1696168252915,-1.0654297,-0.06347656,-0.15820312,0.0,18.0625,8.15625,0.0,0.0,0.0
840,1696168252946,-1.078125,0.09765625,-0.11425781,23.3125,22.4375,13.03125,0.0,0.0,0.0
841,1696168253008,-1.1552734,-0.0048828125,-0.22363281,19.21875,18.28125,26.53125,0.0,0.0,0.0
842,1696168253047,-1.140625,-0.0068359375,-0.16210938,10.46875,13.28125,28.0,0.0,0.0,0.0
843,1696168253065,-1.2958984,0.032226562,-0.12890625,10.84375,15.5,20.96875,-47.6875,-2.375,-99.625
844,1696168253125,-1.3896484,-0.08886719,-0.14453125,10.53125,-10.28125,4.9375,0.0,0.0,0.0
845,1696168253154,-1.1875,0.11035156,-0.12988281,3.15625,-37.0,-9.59375,0.0,0.0,0.0
846,1696168253186,-1.0419922,0.16796875,0.024414062,-39.4375,-60.875,-23.5,0.0,0.0,0.0
847,1696168253245,-0.9902344,-0.029296875,0.05078125,-76.25,-90.46875,-45.4375,0.0,0.0,0.0
848,1696168253275,-0.9238281,-0.2783203,0.08496094,-80.28125,-68.25,-83.03125,0.0,0.0,0.0
849,1696168253306,-1.1943359,-0.16210938,0.20996094,-55.0625,-56.40625,-106.9375,0.0,0.0,0.0
850,1696168253365,-1.2509766,0.061523438,0.15527344,-41.8125,-60.4375,-94.25,0.0,0.0,0.0
851,1696168253395,-1.1171875,0.14355469,-0.0029296875,19.40625,-97.78125,-87.65625,0.0,0.0,0.0
852,1696168253426,-0.984375,-0.3310547,0.119140625,-7.53125,-87.25,-95.90625,0.0,0.0,0.0
853,1696168253485,-0.89941406,-0.14453125,0.25683594,-66.25,-61.34375,-125.9375,0.0,0.0,0.0
854,1696168253516,-0.703125,-0.21484375,0.14550781,3.15625,-44.75,-94.375,0.0,0.0,0.0
855,1696168253545,-0.6894531,-0.27734375,0.22558594,4.375,-39.375,-69.40625,0.0,0.0,0.0
856,1696168253606,-0.5576172,-0.23242188,0.16503906,1.8125,-29.1875,-43.28125,-26.875,-25.625,-85.125
857,1696168253637,-0.4326172,-0.2734375,0.20800781,29.84375,-15.875,-22.40625,0.0,0.0,0.0
858,1696168253662,-0.4892578,-0.4013672,0.21386719,15.71875,11.03125,-3.375,0.0,0.0,0.0
859,1696168253725,-0.54296875,-0.67285156,0.2529297,6.21875,39.59375,7.125,0.0,0.0,0.0
860,1696168253756,-0.58496094,-0.6533203,0.23535156,8.71875,51.6875,13.71875,0.0,0.0,0.0
861,1696168253785,-1.3125,-0.53515625,0.28515625,2.0,43.3125,0.84375,0.0,0.0,0.0
862,1696168253845,-0.9765625,-0.38867188,0.3232422,44.71875,38.3125,5.90625,0.0,0.0,0.0
863,1696168253874,-0.5566406,-0.2529297,0.34960938,26.03125,21.09375,-7.21875,0.0,0.0,0.0
864,1696168253905,-0.953125,-0.38183594,0.2841797,-8.0625,39.40625,36.71875,0.0,0.0,0.0
865,1696168253965,-1.1269531,-0.53515625,0.33789062,-16.5625,38.6875,24.75,0.0,0.0,0.0
866,1696168253995,-0.9140625,-0.48242188,0.22851562,4.9375,35.03125,25.9375,0.0,0.0,0.0
867,1696168254025,-1.0966797,-0.45117188,0.171875,-16.25,45.875,47.53125,0.0,0.0,0.0
868,1696168254088,-0.9121094,-0.33203125,0.061523438,-21.625,49.71875,54.5625,-34.5,-22.1875,-87.625
869,1696168254115,-1.0117188,-0.265625,0.017578125,-25.03125,47.78125,50.34375,0.0,0.0,0.0
870,1696168254146,-1.1220703,-0.29296875,-0.076171875,-10.34375,51.75,54.84375,0.0,0.0,0.0
871,1696168254206,-0.98339844,-0.16601562,-0.059570312,-2.21875,41.5,39.59375,0.0,0.0,0.0
872,1696168254234,-0.9267578,-0.14648438,-0.046875,-13.875,53.5625,36.84375,0.0,0.0,0.0
873,1696168254269,-1.0625,-0.16699219,-0.055664062,-14.90625,42.03125,47.03125,0.0,0.0,0.0
874,1696168254326,-1.1748047,-0.17675781,-0.07714844,-2.21875,8.65625,48.875,0.0,0.0,0.0
875,1696168254357,-0.9628906,-0.14160156,-0.12890625,6.6875,12.5,56.0625,0.0,0.0,0.0
876,1696168254384,-1.0341797,-0.24023438,-0.057617188,32.28125,0.09375,58.9375,0.0,0.0,0.0
877,1696168254448,-0.92578125,-0.2998047,-0.12695312,45.53125,0.09375,43.0625,0.0,0.0,0.0
878,1696168254476,-0.86621094,-0.1171875,-0.052734375,51.9375,-2.75,33.5,0.0,0.0,0.0
879,1696168254505,-0.921875,-0.026367188,-0.06933594,21.84375,14.5,32.46875,0.0,0.0,0.0
880,1696168254599,-0.9453125,-0.06542969,-0.059570312,7.125,15.71875,27.21875,0.0,0.0,0.0
881,1696168254603,-0.8886719,-0.12402344,-0.09277344,-5.15625,17.125,27.28125,-47.375,-5.8125,-96.375
882,1696168254625,-0.9267578,-0.1875,-0.0546875,5.34375,25.3125,12.375,0.0,0.0,0.0
883,1696168254685,-1.0634766,-0.0107421875,-0.12402344,13.53125,24.9375,9.5625,0.0,0.0,0.0
884,1696168254716,-1.1044922,0.08496094,-0.17480469,12.75,18.96875,18.53125,0.0,0.0,0.0
885,1696168254746,-1.0732422,0.19433594,-0.17285156,-3.96875,20.125,19.53125,0.0,0.0,0.0
886,1696168254805,-1.1171875,0.10253906,-0.20019531,-12.03125,11.53125,24.65625,0.0,0.0,0.0
887,1696168254835,-1.1191406,0.0146484375,-0.12207031,-13.4375,-0.4375,20.1875,0.0,0.0,0.0
888,1696168254869,-1.1445312,0.056640625,-0.1875,-3.375,-1.96875,19.40625,0.0,0.0,0.0
889,1696168254925,-1.3828125,0.16308594,-0.037109375,-19.84375,-9.71875,6.6875,0.0,0.0,0.0
890,1696168254955,-1.1650391,0.0048828125,0.017578125,-47.75,-50.5625,-9.0625,0.0,0.0,0.0
891,1696168254984,-1.0517578,-0.08984375,0.25976562,-68.5,-85.21875,-44.21875,0.0,0.0,0.0
892,1696168255050,-0.984375,-0.2578125,0.038085938,-77.96875,-57.09375,-87.84375,0.0,0.0,0.0
893,1696168255077,-1.2099609,-0.034179688,0.10253906,-32.4375,-37.0625,-101.28125,-46.9375,-5.9375,-93.0625
894,1696168255107,-1.1650391,0.0126953125,0.16601562,-51.84375,-44.15625,-108.65625,0.0,0.0,0.0
895,1696168255169,-1.3251953,0.16796875,0.022460938,3.71875,-75.03125,-90.46875,0.0,0.0,0.0
896,1696168255198,-1.0898438,-0.33007812,0.10644531,-27.78125,-81.3125,-127.59375,0.0,0.0,0.0
897,1696168255224,-0.7988281,-0.04296875,0.09667969,-48.0,-60.5625,-131.84375,0.0,0.0,0.0
898,1696168255288,-0.6669922,-0.27441406,0.21191406,-38.65625,-29.3125,-117.5625,0.0,0.0,0.0
899,1696168255315,-0.65722656,-0.30859375,0.13574219,-4.78125,-33.03125,-86.5625,0.0,0.0,0.0
900,1696168255345,-0.6191406,-0.36914062,0.140625,17.6875,-35.0,-55.125,0.0,0.0,0.0
901,1696168255410,-0.4189453,-0.33984375,0.115234375,23.25,-4.46875,-19.4375,0.0,0.0,0.0
902,1696168255436,-0.4169922,-0.43554688,0.16113281,19.15625,18.96875,0.21875,0.0,0.0,0.0
903,1696168255465,-0.5605469,-0.59375,0.23242188,22.75,53.8125,18.71875,0.0,0.0,0.0
904,1696168255524,-0.875,-0.48046875,0.35742188,17.3125,28.96875,18.96875,0.0,0.0,0.0
905,1696168255554,-1.4335938,-0.32128906,0.12988281,5.59375,85.5625,43.75,0.0,0.0,0.0
906,1696168255616,-0.90527344,-0.578125,0.33496094,13.15625,22.03125,6.15625,-31.375,-24.4375,-87.625
907,1696168255646,-0.80566406,-0.3330078,0.20117188,15.0,45.5625,31.65625,0.0,0.0,0.0
908,1696168255674,-1.3808594,-0.4658203,0.1171875,-11.78125,51.0625,63.03125,0.0,0.0,0.0
909,1696168255705,-0.953125,-0.24023438,0.020507812,-4.59375,51.375,46.375,0.0,0.0,0.0
910,1696168255764,-0.91503906,-0.32421875,-0.059570312,-8.9375,65.40625,53.5,0.0,0.0,0.0
911,1696168255794,-1.09375,-0.3798828,-0.024414062,-13.5625,68.40625,45.8125,0.0,0.0,0.0
912,1696168255831,-1.0742188,-0.18847656,-0.044921875,2.78125,29.90625,40.09375,0.0,0.0,0.0
913,1696168255886,-0.90234375,0.0048828125,-0.033203125,-2.21875,29.09375,46.6875,0.0,0.0,0.0
914,1696168255915,-0.97265625,-0.115234375,-0.13964844,-25.78125,31.46875,52.78125,0.0,0.0,0.0
915,1696168255945,-1.0791016,-0.27441406,-0.13378906,-26.0625,23.0625,44.25,0.0,0.0,0.0
916,1696168256006,-1.0605469,-0.3076172,-0.14453125,-7.53125,8.09375,43.3125,0.0,0.0,0.0
917,1696168256037,-0.9794922,-0.076171875,-0.18164062,40.34375,-0.6875,48.1875,0.0,0.0,0.0
918,1696168256095,-0.96777344,-0.10253906,-0.16796875,40.75,4.6875,48.625,-45.875,-10.9375,-97.875
919,1696168256127,-0.921875,-0.1484375,-0.10644531,34.40625,5.78125,33.96875,0.0,0.0,0.0
920,1696168256154,-0.88378906,-0.0009765625,-0.09082031,27.9375,6.9375,28.375,0.0,0.0,0.0
921,1696168256189,-0.8964844,-0.021484375,-0.07324219,2.65625,6.5625,30.875,0.0,0.0,0.0
922,1696168256246,-0.9667969,-0.15332031,-0.087890625,-11.90625,17.6875,28.4375,0.0,0.0,0.0
923,1696168256274,-0.9355469,-0.23632812,-0.0625,-0.25,16.46875,24.34375,0.0,0.0,0.0
924,1696168256309,-0.9814453,-0.060546875,-0.1015625,12.1875,7.5625,20.3125,0.0,0.0,0.0
925,1696168256365,-0.984375,0.0107421875,-0.15527344,2.25,17.375,16.9375,0.0,0.0,0.0
926,1696168256395,-1.1757812,0.0068359375,-0.15917969,1.09375,25.5625,25.5625,0.0,0.0,0.0
927,1696168256429,-1.0615234,0.043945312,-0.16503906,2.0,9.25,24.21875,0.0,0.0,0.0
928,1696168256486,-1.1269531,0.107421875,-0.171875,-9.0625,0.78125,21.84375,0.0,0.0,0.0
929,1696168256516,-1.1855469,-0.0546875,-0.17675781,-11.6875,5.0,18.78125,0.0,0.0,0.0
930,1696168256547,-1.34375,0.072265625,-0.10058594,0.84375,-2.8125,9.25,0.0,0.0,0.0
931,1696168256605,-1.2783203,0.1953125,-0.08984375,-1.65625,-27.96875,7.5,-49.8125,-0.25,-99.1875
932,1696168256636,-1.0537109,0.030273438,0.0068359375,-53.78125,-53.0625,-19.375,0.0,0.0,0.0
933,1696168256666,-1.0107422,0.07324219,0.053710938,-61.125,-70.9375,-40.125,0.0,0.0,0.0
934,1696168256733,-1.0390625,-0.19335938,0.041015625,-54.75,-42.8125,-65.375,0.0,0.0,0.0
935,1696168256756,-1.1025391,-0.23925781,0.08691406,-44.4375,-44.28125,-95.46875,0.0,0.0,0.0
936,1696168256785,-1.1279297,-0.045898438,0.1640625,-43.96875,-49.40625,-118.5,0.0,0.0,0.0
937,1696168256874,-1.1972656,0.01171875,0.05859375,-7.8125,-50.0625,-104.375,0.0,0.0,0.0
938,1696168256878,-1.0654297,0.0078125,0.016601562,18.28125,-71.84375,-108.78125,0.0,0.0,0.0
939,1696168256909,-0.9394531,-0.26171875,0.13867188,-27.90625,-60.6875,-119.34375,0.0,0.0,0.0
940,1696168256966,-0.7480469,-0.09765625,0.19140625,-36.625,-43.96875,-112.6875,0.0,0.0,0.0
941,1696168257004,-0.6845703,-0.2529297,0.17480469,-2.53125,-39.8125,-92.53125,0.0,0.0,0.0
942,1696168257026,-0.7080078,-0.2705078,0.13183594,-12.34375,-36.625,-74.90625,0.0,0.0,0.0
943,1696168257089,-0.64453125,-0.30664062,0.076171875,4.625,-25.59375,-44.625,-26.875,-26.375,-85.375
944,1696168257116,-0.5332031,-0.42382812,0.07128906,16.40625,2.1875,-23.5625,0.0,0.0,0.0
945,1696168257145,-0.66503906,-0.5058594,0.24511719,12.25,25.4375,-10.4375,0.0,0.0,0.0
946,1696168257213,-0.64160156,-0.44921875,0.32128906,11.71875,33.6875,0.71875,0.0,0.0,0.0
947,1696168257246,-0.55371094,-0.36621094,0.21289062,1.03125,32.40625,29.9375,0.0,0.0,0.0
948,1696168257265,-0.7558594,-0.57714844,0.47460938,-7.28125,29.53125,57.25,0.0,0.0,0.0
949,1696168257330,-1.9462891,-1.0029297,0.16308594,-22.46875,83.84375,4.3125,0.0,0.0,0.0
950,1696168257355,-0.64453125,-0.36523438,0.32128906,62.1875,0.46875,-4.21875,0.0,0.0,0.0
951,1696168257386,-0.703125,-0.29785156,0.16113281,14.5,35.4375,41.625,0.0,0.0,0.0
952,1696168257446,-1.3388672,-0.40527344,0.16601562,-32.96875,60.09375,64.75,0.0,0.0,0.0
953,1696168257477,-1.0849609,-0.45996094,0.056640625,-15.875,48.15625,39.90625,0.0,0.0,0.0
954,1696168257505,-0.7294922,-0.3984375,0.041992188,-4.21875,43.8125,40.875,0.0,0.0,0.0
955,1696168257567,-1.0058594,-0.2421875,0.03125,-2.59375,50.21875,55.28125,0.0,0.0,0.0
956,1696168257598,-1.2041016,-0.23046875,-0.041015625,1.6875,33.5,49.3125,-37.625,-21.25,-93.375
957,1696168257625,-0.85253906,-0.11230469,-0.0625,2.65625,28.0,40.9375,0.0,0.0,0.0
958,1696168257686,-0.95214844,-0.09667969,-0.14355469,-33.28125,49.375,52.71875,0.0,0.0,0.0
959,1696168257715,-1.1347656,-0.29101562,-0.21386719,-18.5,32.15625,51.8125,0.0,0.0,0.0
960,1696168257812,-1.015625,-0.3359375,-0.125,12.375,14.3125,36.59375,0.0,0.0,0.0
961,1696168257816,-0.9199219,-0.06640625,-0.12402344,38.375,3.03125,37.28125,0.0,0.0,0.0
962,1696168257846,-1.0595703,-0.07128906,-0.11425781,50.03125,15.0625,52.40625,0.0,0.0,0.0
963,1696168257864,-0.93066406,-0.140625,-0.049804688,56.9375,-8.375,52.59375,0.0,0.0,0.0
964,1696168257925,-0.90722656,-0.072265625,-0.028320312,37.71875,2.0625,37.09375,0.0,0.0,0.0
965,1696168257955,-0.8857422,-0.049804688,-0.041015625,5.125,4.875,34.84375,0.0,0.0,0.0
966,1696168257986,-0.89746094,-0.19726562,-0.0859375,-5.21875,7.84375,27.625,0.0,0.0,0.0
967,1696168258046,-1.0097656,-0.14257812,-0.10449219,12.9375,14.9375,23.25,0.0,0.0,0.0
968,1696168258074,-1.0244141,-0.111328125,-0.10839844,2.3125,15.84375,19.875,-47.375,-4.75,-94.5625
969,1696168258109,-1.0498047,0.0029296875,-0.13183594,2.3125,18.90625,16.78125,0.0,0.0,0.0
970,1696168258164,-0.984375,0.09375,-0.16796875,20.1875,10.25,20.375,0.0,0.0,0.0
971,1696168258195,-1.0126953,0.01953125,-0.17285156,5.21875,10.59375,21.46875,0.0,0.0,0.0
972,1696168258226,-1.2255859,0.028320312,-0.20703125,-0.625,14.4375,16.84375,0.0,0.0,0.0
973,1696168258285,-1.3515625,0.07519531,-0.11230469,-15.28125,4.25,9.6875,0.0,0.0,0.0
974,1696168258315,-1.4267578,0.15917969,-0.044921875,-2.9375,-3.4375,12.5,0.0,0.0,0.0
975,1696168258346,-1.1914062,-0.0107421875,-0.06542969,-15.28125,-50.125,-8.75,0.0,0.0,0.0
976,1696168258405,-0.9814453,0.024414062,-0.015625,-41.15625,-57.09375,-33.28125,0.0,0.0,0.0
977,1696168258435,-0.859375,-0.009765625,0.068359375,-46.59375,-60.3125,-40.0625,0.0,0.0,0.0
978,1696168258465,-0.9394531,-0.12988281,-0.052734375,-61.65625,-33.40625,-61.65625,0.0,0.0,0.0
979,1696168258525,-1.0214844,-0.29589844,-0.0107421875,-63.0625,-24.3125,-93.71875,0.0,0.0,0.0
980,1696168258555,-1.1123047,-0.08984375,0.115234375,-24.5,-32.59375,-103.96875,-42.0,-10.4375,-92.125
981,1696168258615,-1.1513672,-0.07519531,-0.00390625,47.03125,-49.09375,-89.0,0.0,0.0,0.0
982,1696168258651,-1.0634766,-0.0068359375,0.14550781,30.5625,-75.5625,-110.71875,0.0,0.0,0.0
983,1696168258675,-0.96972656,-0.07421875,0.05078125,6.03125,-85.15625,-99.5,0.0,0.0,0.0
984,1696168258737,-0.8173828,-0.0625,0.20898438,-69.21875,-40.0625,-110.25,0.0,0.0,0.0
985,1696168258766,-0.6611328,-0.31152344,0.1015625,-40.40625,-23.03125,-84.78125,0.0,0.0,0.0
986,1696168258797,-0.79589844,-0.4658203,0.13867188,-19.53125,-18.6875,-73.5,0.0,0.0,0.0
987,1696168258856,-0.6640625,-0.38867188,0.14160156,19.625,-20.78125,-49.625,0.0,0.0,0.0
988,1696168258884,-0.4814453,-0.28027344,0.16992188,15.3125,5.53125,-31.75,0.0,0.0,0.0
989,1696168258914,-0.4609375,-0.421875,0.111328125,13.96875,19.6875,-3.96875,0.0,0.0,0.0
990,1696168258976,-0.6953125,-0.6201172,0.19238281,-0.8125,43.25,11.59375,0.0,0.0,0.0
991,1696168259005,-0.67285156,-0.5136719,0.060546875,1.03125,65.65625,20.3125,0.0,0.0,0.0
992,1696168259037,-1.2353516,-0.7861328,0.49121094,13.84375,26.53125,9.375,0.0,0.0,0.0
993,1696168259095,-1.1220703,-0.53808594,0.36035156,50.21875,20.96875,-6.90625,-28.5,-24.4375,-85.25
994,1696168259152,-0.5625,-0.24804688,0.31933594,37.9375,0.40625,14.5,0.0,0.0,0.0
995,1696168259153,-0.9638672,-0.44433594,0.13769531,-25.90625,35.5625,43.75,0.0,0.0,0.0
996,1696168259212,-1.4589844,-0.6484375,0.16015625,-23.6875,34.15625,43.0625,0.0,0.0,0.0
997,1696168259242,-0.9873047,-0.4794922,0.12792969,4.0,36.71875,42.46875,0.0,0.0,0.0
998,1696168259272,-0.9111328,-0.3779297,0.038085938,-13.25,56.25,62.96875,0.0,0.0,0.0
999,1696168259333,-0.9667969,-0.2529297,-0.0068359375,-13.8125,47.34375,62.59375,0.0,0.0,0.0
1000,1696168259364,-0.96777344,-0.29101562,-0.0126953125,-4.46875,32.6875,54.5,0.0,0.0,0.0
1001,1696168259394,-0.9873047,-0.265625,-0.080078125,-12.40625,36.0625,46.75,0.0,0.0,0.0
1002,1696168259456,-0.9111328,-0.12695312,-0.08984375,-22.34375,39.34375,48.4375,0.0,0.0,0.0
1003,1696168259489,-1.0302734,-0.11816406,-0.20507812,-20.40625,26.40625,53.4375,0.0,0.0,0.0
1004,1696168259526,-1.0458984,-0.32421875,-0.17773438,-1.3125,11.34375,49.59375,0.0,0.0,0.0
1005,1696168259575,-0.95703125,-0.22070312,-0.12109375,11.9375,8.15625,40.34375,-41.375,-11.5,-94.5625
1006,1696168259608,-0.96191406,-0.10253906,-0.123046875,23.71875,11.9375,38.6875,0.0,0.0,0.0
1007,1696168259636,-0.9628906,-0.076171875,-0.095703125,32.40625,6.15625,44.0,0.0,0.0,0.0
1008,1696168259695,-0.9277344,-0.111328125,-0.08105469,30.1875,-1.1875,40.21875,0.0,0.0,0.0
1009,1696168259729,-0.9267578,-0.091796875,-0.061523438,23.3125,4.875,32.40625,0.0,0.0,0.0
1010,1696168259755,-0.9423828,-0.18554688,-0.083984375,7.25,13.96875,32.03125,0.0,0.0,0.0
1011,1696168259814,-0.9638672,-0.091796875,-0.06640625,11.9375,13.15625,23.53125,0.0,0.0,0.0
1012,1696168259849,-0.99609375,-0.07324219,-0.09375,9.6875,8.46875,26.28125,0.0,0.0,0.0
1013,1696168259877,-0.9707031,-0.11035156,-0.10644531,-4.09375,9.5,21.34375,0.0,0.0,0.0
1014,1696168259939,-1.0292969,-0.11621094,-0.1640625,0.78125,16.78125,14.875,0.0,0.0,0.0
1015,1696168259967,-1.0957031,0.020507812,-0.20019531,8.28125,15.625,9.25,0.0,0.0,0.0
1016,1696168259996,-1.0751953,0.16796875,-0.15332031,1.625,11.59375,13.40625,0.0,0.0,0.0
1017,1696168260054,-1.0654297,0.04296875,-0.14648438,3.34375,1.8125,21.90625,0.0,0.0,0.0
1018,1696168260088,-1.0537109,-0.064453125,-0.20800781,-19.375,-3.375,14.5,-46.1875,0.5,-98.875
1019,1696168260113,-1.2216797,0.09277344,-0.12890625,-9.0,-1.3125,6.15625,0.0,0.0,0.0
1020,1696168260173,-1.390625,0.111328125,-0.10839844,-4.46875,-3.0,4.6875,0.0,0.0,0.0
1021,1696168260207,-1.2148438,0.08886719,-0.10449219,-13.03125,-32.65625,-8.9375,0.0,0.0,0.0
1022,1696168260237,-1.0087891,-0.005859375,-0.009765625,-44.28125,-48.28125,-24.375,0.0,0.0,0.0
1023,1696168260293,-1.0234375,0.11621094,0.13085938,-58.5,-61.96875,-31.8125,0.0,0.0,0.0
1024,1696168260327,-1.0742188,-0.087890625,-0.0107421875,-60.5625,-44.375,-45.90625,0.0,0.0,0.0
1025,1696168260359,-0.8486328,-0.41503906,-0.0029296875,-57.28125,-49.34375,-88.21875,0.0,0.0,0.0
1026,1696168260416,-1.1787109,-0.18554688,0.19042969,-46.03125,-21.8125,-116.65625,0.0,0.0,0.0
1027,1696168260445,-1.0820312,0.083984375,0.13476562,15.625,-37.96875,-99.8125,0.0,0.0,0.0
1028,1696168260473,-1.0175781,0.09375,0.025390625,26.53125,-59.28125,-90.34375,0.0,0.0,0.0
1029,1696168260533,-1.0117188,-0.2529297,0.051757812,-15.28125,-61.34375,-101.03125,0.0,0.0,0.0
1030,1696168260566,-0.87597656,-0.107421875,0.20898438,-41.40625,-45.71875,-111.09375,-34.5,-17.1875,-88.375
1031,1696168260595,-0.8173828,-0.42871094,0.18359375,-8.8125,-25.34375,-87.78125,0.0,0.0,0.0
1032,1696168260691,-0.81933594,-0.37304688,0.15527344,0.0,-32.1875,-78.75,0.0,0.0,0.0
1033,1696168260695,-0.6269531,-0.2578125,0.13867188,15.90625,-33.84375,-52.09375,0.0,0.0,0.0
1034,1696168260715,-0.50878906,-0.3857422,0.20996094,30.875,-14.34375,-22.59375,0.0,0.0,0.0
1035,1696168260775,-0.53515625,-0.49804688,0.103515625,8.46875,4.5625,-6.0,0.0,0.0,0.0
1036,1696168260805,-0.5449219,-0.5722656,0.03515625,7.90625,31.84375,2.71875,0.0,0.0,0.0
1037,1696168260839,-0.671875,-0.57714844,0.30078125,-13.3125,74.625,16.15625,0.0,0.0,0.0
1038,1696168260895,-1.1796875,-0.5253906,0.3623047,20.0,35.09375,16.40625,0.0,0.0,0.0
1039,1696168260927,-1.0791016,-0.5703125,0.125,29.46875,36.96875,16.53125,0.0,0.0,0.0
1040,1696168260955,-0.7158203,-0.29785156,0.30371094,28.96875,3.40625,0.71875,0.0,0.0,0.0
1041,1696168261015,-0.8857422,-0.41015625,0.21191406,-18.21875,41.1875,34.15625,0.0,0.0,0.0
1042,1696168261043,-1.1738281,-0.55566406,0.12695312,-4.59375,32.15625,46.5625,0.0,0.0,0.0
1043,1696168261074,-1.28125,-0.4501953,0.10546875,-4.40625,46.0625,44.96875,-32.25,-21.25,-87.5
1044,1696168261134,-0.8017578,-0.3310547,0.028320312,5.59375,31.53125,43.75,0.0,0.0,0.0
1045,1696168261163,-0.9082031,-0.26757812,0.0107421875,-22.59375,50.875,57.78125,0.0,0.0,0.0
1046,1696168261196,-1.0791016,-0.38964844,-0.032226562,-3.125,52.53125,50.8125,0.0,0.0,0.0
1047,1696168261256,-1.0146484,-0.27539062,-0.10546875,-0.4375,38.625,36.53125,0.0,0.0,0.0
1048,1696168261285,-0.87890625,-0.095703125,-0.07324219,5.0625,30.5625,40.34375,0.0,0.0,0.0
1049,1696168261314,-0.96875,-0.08691406,-0.13769531,4.3125,22.9375,45.40625,0.0,0.0,0.0
1050,1696168261376,-1.0830078,-0.27539062,-0.16210938,-1.25,13.0,42.46875,0.0,0.0,0.0
1051,1696168261436,-0.9746094,-0.23144531,-0.119140625,2.90625,16.65625,42.21875,0.0,0.0,0.0
1052,1696168261441,-1.0185547,-0.18847656,-0.09863281,18.96875,14.9375,39.65625,0.0,0.0,0.0
1053,1696168261495,-1.0029297,-0.15332031,-0.12109375,33.4375,6.46875,45.09375,0.0,0.0,0.0
1054,1696168261526,-0.9326172,-0.17480469,-0.051757812,49.71875,-3.5,44.40625,0.0,0.0,0.0
1055,1696168261555,-0.9746094,-0.14355469,-0.0390625,41.625,6.46875,30.25,-45.4375,-5.9375,-94.6875
1056,1696168261616,-0.90527344,-0.12207031,-0.03515625,21.90625,10.375,31.90625,0.0,0.0,0.0
1057,1696168261649,-0.9091797,-0.048828125,-0.04296875,11.15625,15.625,26.40625,0.0,0.0,0.0
1058,1696168261674,-0.92871094,-0.10449219,-0.053710938,-7.8125,11.34375,22.5625,0.0,0.0,0.0
1059,1696168261734,-1.0205078,-0.18847656,-0.08496094,-1.65625,15.375,19.75,0.0,0.0,0.0
1060,1696168261767,-1.0634766,-0.078125,-0.19042969,-3.3125,18.34375,8.28125,0.0,0.0,0.0
1061,1696168261795,-1.0058594,0.053710938,-0.17480469,7.8125,10.71875,8.28125,0.0,0.0,0.0
1062,1696168261856,-1.0458984,0.16601562,-0.11035156,9.5625,12.75,22.09375,0.0,0.0,0.0
1063,1696168261888,-1.0546875,-0.001953125,-0.14453125,5.59375,12.9375,30.375,0.0,0.0,0.0
1064,1696168261915,-1.1015625,0.015625,-0.15917969,3.34375,6.09375,24.28125,0.0,0.0,0.0
1065,1696168261981,-1.1572266,-0.029296875,-0.14453125,0.28125,0.28125,15.3125,0.0,0.0,0.0
1066,1696168262007,-1.3720703,0.034179688,-0.09375,7.5625,-1.84375,7.90625,0.0,0.0,0.0
1067,1696168262035,-1.3847656,0.15917969,-0.115234375,17.8125,-9.46875,8.34375,0.0,0.0,0.0
1068,1696168262095,-1.1503906,0.17285156,-0.029296875,-10.75,-45.5,4.8125,-48.125,0.3125,-96.625
1069,1696168262127,-0.99121094,0.060546875,0.111328125,-67.28125,-68.1875,-19.90625,0.0,0.0,0.0
1070,1696168262156,-0.9248047,-0.13964844,0.029296875,-84.125,-78.75,-52.03125,0.0,0.0,0.0
1071,1696168262216,-0.91308594,-0.33007812,0.15917969,-68.625,-45.78125,-91.8125,0.0,0.0,0.0
1072,1696168262247,-1.2333984,-0.0029296875,0.111328125,-85.28125,-23.09375,-120.1875,0.0,0.0,0.0
1073,1696168262278,-1.1142578,0.052734375,0.13671875,-34.1875,-41.28125,-89.375,0.0,0.0,0.0
1074,1696168262336,-1.0361328,-0.18066406,0.13964844,-16.3125,-71.5625,-99.0,0.0,0.0,0.0
1075,1696168262365,-0.9140625,-0.20214844,0.099609375,6.03125,-66.40625,-95.28125,0.0,0.0,0.0
1076,1696168262400,-0.9375,-0.14160156,0.21972656,-11.78125,-66.375,-103.71875,0.0,0.0,0.0
1077,1696168262455,-0.7636719,-0.07519531,0.14355469,-16.375,-48.34375,-82.71875,0.0,0.0,0.0
1078,1696168262490,-0.7558594,-0.28710938,0.20214844,-30.59375,-27.59375,-67.40625,0.0,0.0,0.0
1079,1696168262515,-0.6669922,-0.31835938,0.17871094,-16.6875,-19.65625,-50.96875,0.0,0.0,0.0
1080,1696168262577,-0.5419922,-0.4716797,0.16601562,13.78125,-7.875,-22.28125,-27.125,-25.3125,-84.375
1081,1696168262606,-0.3408203,-0.46875,0.08984375,5.40625,21.46875,-12.53125,0.0,0.0,0.0
1082,1696168262635,-0.37109375,-0.5830078,0.12597656,0.65625,66.21875,8.21875,0.0,0.0,0.0
1083,1696168262694,-0.8408203,-0.69628906,0.59472656,39.71875,18.125,31.0625,0.0,0.0,0.0
1084,1696168262730,-1.6865234,-0.5722656,0.10058594,11.40625,44.84375,13.96875,0.0,0.0,0.0
1085,1696168262757,-0.82128906,-0.20898438,0.2841797,33.625,36.0,-2.53125,0.0,0.0,0.0
1086,1696168262813,-0.6435547,-0.39746094,0.16503906,3.59375,39.09375,22.5,0.0,0.0,0.0
1087,1696168262850,-1.5380859,-0.43945312,0.20410156,-5.5625,63.9375,49.78125,0.0,0.0,0.0
1088,1696168262875,-1.0009766,-0.36621094,0.17578125,10.375,40.6875,25.125,0.0,0.0,0.0
1089,1696168262935,-0.8730469,-0.21777344,0.06542969,-2.28125,40.15625,36.4375,0.0,0.0,0.0
1090,1696168262965,-0.9921875,-0.22070312,0.0009765625,-20.40625,57.40625,62.4375,0.0,0.0,0.0
1091,1696168262997,-1.0322266,-0.3154297,-0.033203125,-25.53125,55.21875,44.90625,0.0,0.0,0.0
1092,1696168263057,-1.0458984,-0.35742188,-0.060546875,-0.875,33.3125,26.78125,0.0,0.0,0.0
1093,1696168263086,-0.9267578,-0.13183594,-0.08496094,-12.78125,30.875,34.53125,-42.75,-17.1875,-93.5
1094,1696168263115,-0.9316406,-0.06640625,-0.15722656,-17.28125,23.375,48.15625,0.0,0.0,0.0
1095,1696168263177,-1.109375,-0.2421875,-0.115234375,2.65625,10.46875,48.4375,0.0,0.0,0.0
1096,1696168263203,-1.1074219,-0.3017578,-0.17285156,-14.125,10.53125,47.34375,0.0,0.0,0.0
1097,1696168263235,-0.99902344,-0.17089844,-0.18066406,20.5625,18.0,48.15625,0.0,0.0,0.0
1098,1696168263295,-0.9892578,-0.08886719,-0.1484375,60.65625,-2.21875,44.84375,0.0,0.0,0.0
1099,1696168263324,-0.9501953,-0.15820312,-0.08300781,37.40625,10.0625,35.4375,0.0,0.0,0.0
1100,1696168263358,-0.88671875,-0.0009765625,-0.0390625,32.03125,9.8125,29.28125,0.0,0.0,0.0
1101,1696168263413,-0.9042969,0.046875,-0.076171875,6.46875,10.71875,30.5625,0.0,0.0,0.0
1102,1696168263448,-0.89746094,-0.099609375,-0.051757812,-18.25,15.0,29.59375,0.0,0.0,0.0
1103,1696168263475,-0.9404297,-0.23828125,-0.08984375,-19.375,13.59375,26.65625,0.0,0.0,0.0
1104,1696168263535,-0.9550781,-0.2265625,-0.045898438,7.5625,17.4375,16.21875,0.0,0.0,0.0
1105,1696168263566,-1.0673828,-0.034179688,-0.083984375,-0.3125,15.78125,12.5,-48.3125,-4.1875,-96.1875
1106,1696168263594,-1.0078125,-0.0126953125,-0.11230469,-6.5,12.1875,13.71875,0.0,0.0,0.0
1107,1696168263657,-1.0595703,0.064453125,-0.23730469,-3.4375,6.15625,10.0625,0.0,0.0,0.0
1108,1696168263717,-1.0712891,0.11816406,-0.20605469,-9.71875,7.4375,15.84375,0.0,0.0,0.0
1109,1696168263722,-1.0400391,-0.024414062,-0.1640625,-10.8125,4.125,22.03125,0.0,0.0,0.0
1110,1696168263775,-1.0527344,-0.103515625,-0.16699219,-18.9375,5.53125,16.53125,0.0,0.0,0.0
1111,1696168263805,-1.1201172,-0.0068359375,-0.18554688,1.6875,9.8125,8.28125,0.0,0.0,0.0
1112,1696168263833,-1.2412109,-0.046875,-0.05859375,11.21875,-4.90625,-3.75,0.0,0.0,0.0
1113,1696168263892,-1.4414062,0.12597656,-0.103515625,-10.8125,-17.15625,-10.40625,0.0,0.0,0.0
1114,1696168263922,-1.1992188,0.0234375,-0.024414062,-29.5,-56.15625,-13.75,0.0,0.0,0.0
1115,1696168263954,-1.0175781,0.076171875,0.19824219,-68.0,-82.28125,-41.40625,0.0,0.0,0.0
1116,1696168264011,-1.0263672,-0.095703125,-0.140625,-76.5625,-67.21875,-64.46875,0.0,0.0,0.0
1117,1696168264042,-0.97265625,-0.29296875,0.123046875,-38.59375,-48.65625,-89.96875,0.0,0.0,0.0
1118,1696168264074,-1.1074219,-0.16601562,0.18066406,-62.5625,-44.09375,-118.3125,-45.4375,-10.625,-90.625
1119,1696168264132,-1.3447266,0.08984375,0.12890625,12.0,-53.90625,-101.15625,0.0,0.0,0.0
1120,1696168264162,-1.0224609,-0.049804688,0.025390625,28.0625,-93.40625,-93.9375,0.0,0.0,0.0
1121,1696168264191,-0.95410156,-0.21875,0.14648438,-38.34375,-54.03125,-111.96875,0.0,0.0,0.0
1122,1696168264252,-0.8251953,-0.14648438,0.17675781,-25.28125,-47.9375,-105.65625,0.0,0.0,0.0
1123,1696168264284,-0.7597656,-0.26367188,0.16699219,-9.78125,-37.5,-84.71875,0.0,0.0,0.0
1124,1696168264312,-0.6640625,-0.24511719,0.14941406,-10.5625,-31.09375,-71.25,0.0,0.0,0.0
1125,1696168264372,-0.5605469,-0.29589844,0.13378906,26.0,-24.4375,-37.0625,0.0,0.0,0.0
1126,1696168264409,-0.4970703,-0.38476562,0.1875,14.75,1.75,-19.125,0.0,0.0,0.0
1127,1696168264432,-0.4951172,-0.47753906,0.09082031,-11.5625,30.5,-8.875,0.0,0.0,0.0
1128,1696168264492,-0.55859375,-0.5722656,0.22558594,-3.875,57.25,12.875,0.0,0.0,0.0
1129,1696168264524,-0.82421875,-0.6152344,0.47753906,16.65625,55.40625,30.875,0.0,0.0,0.0
1130,1696168264553,-1.515625,-0.6113281,0.3544922,25.8125,41.375,-9.28125,-28.0625,-26.1875,-81.5
1131,1696168264612,-0.78027344,-0.3173828,0.34570312,17.625,29.90625,-0.3125,0.0,0.0,0.0
1132,1696168264647,-0.6933594,-0.4345703,0.21289062,3.40625,39.15625,11.03125,0.0,0.0,0.0
1133,1696168264674,-1.0205078,-0.5410156,0.2607422,-15.875,53.03125,33.125,0.0,0.0,0.0
1134,1696168264733,-1.1074219,-0.515625,0.22558594,-0.8125,32.6875,35.875,0.0,0.0,0.0
1135,1696168264763,-1.0214844,-0.46875,0.12597656,1.4375,36.25,44.96875,0.0,0.0,0.0
1136,1696168264797,-1.0107422,-0.4736328,0.103515625,2.84375,51.5,50.78125,0.0,0.0,0.0
1137,1696168264854,-0.9433594,-0.35351562,-0.016601562,10.1875,41.375,53.375,0.0,0.0,0.0
1138,1696168264885,-0.89160156,-0.23339844,-0.015625,9.375,45.15625,48.9375,0.0,0.0,0.0
1139,1696168264917,-1.1113281,-0.25976562,-0.06542969,2.71875,36.78125,45.9375,0.0,0.0,0.0
1140,1696168264974,-0.94433594,-0.140625,-0.10546875,-13.375,41.90625,35.4375,0.0,0.0,0.0
1141,1696168265005,-0.96972656,-0.125,-0.15820312,-22.96875,44.59375,49.59375,0.0,0.0,0.0
1142,1696168265035,-1.1123047,-0.22070312,-0.17382812,-18.4375,23.375,52.0625,0.0,0.0,0.0
1143,1696168265092,-1.0019531,-0.15527344,-0.17675781,2.0,7.375,43.125,-43.1875,-17.1875,-90.8125
1144,1696168265123,-0.9951172,-0.19628906,-0.17382812,13.40625,14.21875,48.875,0.0,0.0,0.0
1145,1696168265154,-0.94921875,-0.20019531,-0.14941406,50.71875,-6.0,49.65625,0.0,0.0,0.0
1146,1696168265215,-0.9658203,-0.16601562,-0.11035156,45.03125,4.8125,38.4375,0.0,0.0,0.0
1147,1696168265244,-0.921875,-0.115234375,-0.08300781,39.40625,0.71875,36.78125,0.0,0.0,0.0
1148,1696168265274,-0.9267578,-0.1171875,-0.064453125,13.71875,14.75,27.9375,0.0,0.0,0.0
1149,1696168265335,-0.91015625,-0.076171875,-0.036132812,9.375,17.625,26.71875,0.0,0.0,0.0
1150,1696168265366,-0.9296875,-0.10839844,-0.087890625,-2.40625,11.65625,20.4375,0.0,0.0,0.0
1151,1696168265392,-0.95410156,-0.12109375,-0.068359375,-1.90625,6.09375,8.03125,0.0,0.0,0.0
1152,1696168265456,-1.0195312,-0.08984375,-0.1328125,0.15625,9.03125,10.59375,0.0,0.0,0.0
1153,1696168265486,-1.078125,0.13964844,-0.17675781,3.34375,7.0,9.5,0.0,0.0,0.0
1154,1696168265515,-1.140625,0.0068359375,-0.20214844,-10.40625,9.625,18.125,0.0,0.0,0.0
1155,1696168265578,-1.1308594,-0.07324219,-0.15625,-17.34375,8.09375,25.6875,-49.0625,-5.5,-91.6875
1156,1696168265604,-1.2412109,0.0078125,-0.0703125,-4.90625,6.15625,14.9375,0.0,0.0,0.0
1157,1696168265636,-1.25,-0.10058594,-0.044921875,4.75,-20.21875,0.40625,0.0,0.0,0.0
1158,1696168265696,-1.2568359,0.06738281,-0.04296875,9.3125,-35.71875,-16.625,0.0,0.0,0.0
1159,1696168265725,-1.0205078,0.076171875,-0.0146484375,-41.40625,-68.8125,-28.65625,0.0,0.0,0.0
1160,1696168265755,-1.1191406,0.1015625,0.12597656,-74.1875,-63.84375,-35.78125,0.0,0.0,0.0
1161,1696168265816,-0.9746094,-0.24511719,-0.00390625,-85.40625,-27.78125,-60.125,0.0,0.0,0.0
1162,1696168265845,-1.1074219,-0.39257812,0.17382812,-67.34375,-31.75,-97.0,0.0,0.0,0.0
1163,1696168265875,-1.2021484,-0.2705078,0.119140625,-20.9375,-44.875,-108.40625,0.0,0.0,0.0
1164,1696168265933,-1.2382812,0.16308594,0.22851562,32.53125,-62.6875,-107.4375,0.0,0.0,0.0
1165,1696168265997,-0.9355469,0.041015625,-0.032226562,0.65625,-78.125,-83.4375,0.0,0.0,0.0
1166,1696168266001,-0.9921875,-0.3388672,0.24121094,-72.9375,-56.34375,-106.40625,0.0,0.0,0.0
1167,1696168266060,-0.77441406,-0.37304688,0.14257812,-24.78125,-41.6875,-97.125,0.0,0.0,0.0
1168,1696168266086,-0.7324219,-0.31835938,0.15527344,-7.71875,-45.4375,-82.65625,-26.6875,-21.875,-80.0
1169,1696168266115,-0.6171875,-0.29296875,0.171875,4.625,-35.46875,-54.15625,0.0,0.0,0.0
1170,1696168266176,-0.52441406,-0.3486328,0.12792969,13.65625,-8.75,-29.8125,0.0,0.0,0.0
1171,1696168266206,-0.41308594,-0.37695312,0.16796875,20.5625,5.59375,-4.40625,0.0,0.0,0.0
1172,1696168266239,-0.43652344,-0.5107422,0.23535156,2.5,33.4375,11.71875,0.0,0.0,0.0
1173,1696168266294,-0.51171875,-0.6220703,0.19433594,10.25,56.125,19.09375,0.0,0.0,0.0
1174,1696168266325,-1.1679688,-0.7890625,0.19238281,4.0625,39.59375,3.78125,0.0,0.0,0.0
1175,1696168266359,-1.234375,-0.4169922,0.25390625,27.8125,20.4375,21.28125,0.0,0.0,0.0
1176,1696168266415,-0.57910156,-0.2265625,0.33398438,21.59375,28.0625,9.8125,0.0,0.0,0.0
1177,1696168266449,-0.9511719,-0.4345703,0.12792969,-22.84375,32.28125,36.96875,0.0,0.0,0.0
1178,1696168266475,-1.3164062,-0.5253906,0.19921875,-14.3125,35.15625,47.15625,0.0,0.0,0.0
1179,1696168266534,-1.1445312,-0.41210938,0.12109375,0.09375,36.65625,38.9375,0.0,0.0,0.0
1180,1696168266566,-0.7988281,-0.22167969,-0.015625,-4.84375,48.25,49.375,-32.25,-18.875,-83.0
1181,1696168266598,-1.0390625,-0.25585938,-0.02734375,-35.0625,66.6875,57.53125,0.0,0.0,0.0
1182,1696168266653,-1.2646484,-0.4638672,-0.013671875,-8.1875,70.71875,49.78125,0.0,0.0,0.0
1183,1696168266685,-0.91796875,-0.24316406,-0.018554688,18.65625,23.4375,32.5625,0.0,0.0,0.0
1184,1696168266712,-0.9716797,0.123046875,-0.08984375,-0.125,27.5,51.75,0.0,0.0,0.0
1185,1696168266773,-1.0507812,-0.12011719,-0.14160156,-14.0,24.75,69.3125,0.0,0.0,0.0
1186,1696168266805,-1.0185547,-0.3232422,-0.15625,-43.03125,28.125,50.59375,0.0,0.0,0.0
1187,1696168266833,-1.0039062,-0.3544922,-0.18554688,-29.25,30.875,48.25,0.0,0.0,0.0
1188,1696168266893,-0.9609375,-0.17871094,-0.14160156,39.21875,2.71875,50.59375,0.0,0.0,0.0
1189,1696168266925,-0.9609375,-0.095703125,-0.1171875,58.28125,-2.875,49.25,0.0,0.0,0.0
1190,1696168266953,-0.8613281,-0.055664062,-0.059570312,51.5625,-5.9375,47.59375,0.0,0.0,0.0
1191,1696168267012,-0.9248047,-0.064453125,-0.119140625,20.625,9.25,36.125,0.0,0.0,0.0
1192,1696168267046,-0.89941406,-0.16601562,-0.06640625,5.59375,11.53125,29.34375,0.0,0.0,0.0
1193,1696168267072,-0.8876953,-0.0859375,-0.08984375,7.125,9.8125,22.4375,-47.125,-1.1875,-89.0
1194,1696168267132,-1.0351562,-0.09472656,-0.11328125,12.625,15.0,22.125,0.0,0.0,0.0
1195,1696168267166,-0.9404297,-0.0703125,-0.14550781,-6.65625,5.1875,12.5,0.0,0.0,0.0
1196,1696168267193,-1.1386719,0.0546875,-0.18359375,-0.0625,14.5625,9.375,0.0,0.0,0.0
1197,1696168267253,-1.0283203,0.1171875,-0.14648438,1.5625,16.65625,14.625,0.0,0.0,0.0
1198,1696168267282,-1.0771484,0.10058594,-0.1953125,-15.6875,10.125,18.53125,0.0,0.0,0.0
