,timestamp,accel_x,accel_y,accel_z,gyro_x,gyro_y,gyro_z,mag_x,mag_y,mag_z
0,1695809846217,0.24316406,1.0693359,-0.19726562,35.59375,-19.1875,2.53125,4.375,31.5625,-137.3125
1,1695809846246,0.18945312,1.0332031,-0.087890625,36.875,-13.5625,2.34375,0.0,0.0,0.0
2,1695809846276,0.29003906,0.90234375,-0.234375,38.4375,-8.5,2.59375,0.0,0.0,0.0
3,1695809846337,0.3408203,0.7783203,-0.20507812,29.46875,5.15625,5.15625,0.0,0.0,0.0
4,1695809846367,0.20898438,0.66796875,-0.26757812,21.71875,2.34375,12.84375,0.0,0.0,0.0
5,1695809846397,0.41992188,0.54003906,-0.32421875,-1.84375,-19.75,12.5625,0.0,0.0,0.0
6,1695809846457,0.5673828,0.38378906,-0.3466797,-13.625,-46.96875,20.78125,0.0,0.0,0.0
7,1695809846487,0.23925781,0.796875,-0.36914062,3.71875,-63.375,51.25,0.0,0.0,0.0
8,1695809846518,0.33984375,2.0136719,0.08300781,-4.8125,-91.75,44.78125,0.0,0.0,0.0
9,1695809846577,0.005859375,0.8564453,-0.09375,10.375,-3.0,-3.6875,0.0,0.0,0.0
10,1695809846609,0.14453125,0.7792969,-0.115234375,-29.40625,16.9375,-3.0,0.0,0.0,0.0
11,1695809846668,0.40527344,0.9746094,-0.19140625,-41.03125,18.96875,3.03125,0.0,0.0,0.0
12,1695809846697,0.44726562,0.94140625,-0.17871094,-45.96875,29.875,-19.3125,0.0,0.0,0.0
13,1695809846727,0.375,0.9160156,-0.005859375,-14.09375,5.21875,-32.125,4.5,28.5625,-141.1875
14,1695809846789,0.15332031,0.8066406,-0.049804688,5.625,21.15625,-9.40625,0.0,0.0,0.0
15,1695809846820,0.38183594,1.0039062,-0.1875,6.34375,54.34375,-0.3125,0.0,0.0,0.0
16,1695809846851,0.43554688,0.98046875,-0.14355469,17.03125,48.875,1.375,0.0,0.0,0.0
17,1695809846909,0.4658203,0.88183594,-0.19238281,10.8125,35.1875,-0.4375,0.0,0.0,0.0
18,1695809846942,0.3984375,0.921875,-0.13085938,5.8125,22.75,3.8125,0.0,0.0,0.0
19,1695809846968,0.36328125,0.9326172,-0.125,-8.90625,12.78125,3.59375,0.0,0.0,0.0
20,1695809847027,0.42578125,0.9189453,-0.1171875,-9.78125,16.59375,2.78125,0.0,0.0,0.0
21,1695809847058,0.3095703,0.89941406,-0.08203125,-10.75,8.21875,1.6875,0.0,0.0,0.0
22,1695809847089,0.30566406,1.0644531,-0.08984375,-10.5625,12.125,-0.5625,0.0,0.0,0.0
23,1695809847151,0.37890625,0.94628906,-0.06542969,-18.25,27.875,-5.5625,0.0,0.0,0.0
24,1695809847179,0.32910156,0.8701172,-0.09765625,-18.8125,41.0625,-3.375,0.0,0.0,0.0
25,1695809847210,0.49121094,0.82910156,-0.13671875,-15.125,33.96875,-15.15625,6.0,29.5625,-133.6875
26,1695809847268,0.27148438,0.7392578,-0.2919922,14.28125,41.96875,-14.0625,0.0,0.0,0.0
27,1695809847299,0.2861328,0.69628906,-0.09667969,52.375,60.28125,-10.09375,0.0,0.0,0.0
28,1695809847329,0.5419922,1.0546875,-0.078125,12.5625,43.8125,18.21875,0.0,0.0,0.0
29,1695809847390,0.4609375,1.0976562,-0.09667969,-19.34375,12.1875,-1.0625,0.0,0.0,0.0
30,1695809847421,0.4326172,1.1298828,-0.21777344,-36.9375,-2.34375,-10.75,0.0,0.0,0.0
31,1695809847451,0.26953125,0.86816406,-0.125,-42.90625,-47.5,-18.75,0.0,0.0,0.0
32,1695809847510,0.020507812,1.0732422,-0.00390625,-33.9375,-23.875,-14.0625,0.0,0.0,0.0
33,1695809847540,0.115234375,0.9951172,-0.024414062,-20.5,-15.71875,-6.90625,0.0,0.0,0.0
34,1695809847571,0.2890625,0.86816406,-0.055664062,12.28125,-12.21875,-4.90625,0.0,0.0,0.0
35,1695809847630,0.140625,1.0986328,-0.046875,34.25,-18.21875,4.6875,0.0,0.0,0.0
36,1695809847660,0.32128906,1.0751953,-0.08300781,56.40625,-21.09375,4.0,0.0,0.0,0.0
37,1695809847689,0.31640625,1.0898438,-0.041015625,52.96875,-19.3125,-1.5625,0.0,0.0,0.0
38,1695809847750,0.25683594,1.0957031,-0.203125,54.03125,-21.5,0.71875,3.625,30.5,-135.9375
39,1695809847780,0.23632812,0.80859375,-0.24023438,57.1875,13.59375,4.1875,0.0,0.0,0.0
40,1695809847809,0.27734375,0.5751953,-0.2939453,33.4375,24.8125,3.75,0.0,0.0,0.0
41,1695809847870,0.35351562,0.39453125,-0.3408203,19.09375,10.71875,10.21875,0.0,0.0,0.0
42,1695809847900,0.3984375,0.36914062,-0.359375,13.78125,-1.1875,30.6875,0.0,0.0,0.0
43,1695809847929,0.4111328,1.1259766,-0.26367188,15.625,-23.21875,59.65625,0.0,0.0,0.0
44,1695809847991,0.35058594,1.3271484,-0.42285156,-8.84375,-92.84375,-3.9375,0.0,0.0,0.0
45,1695809848020,0.45117188,1.0322266,-0.091796875,-14.15625,-22.65625,5.53125,0.0,0.0,0.0
46,1695809848048,0.31054688,1.0136719,-0.18164062,-49.75,-41.21875,-7.78125,0.0,0.0,0.0
47,1695809848109,0.49609375,0.8984375,-0.19628906,-31.0625,-29.9375,-0.03125,0.0,0.0,0.0
48,1695809848138,0.3935547,0.85839844,0.07421875,-23.8125,-2.90625,5.34375,0.0,0.0,0.0
49,1695809848168,0.2939453,0.9355469,-0.12695312,-26.5625,-9.59375,11.875,0.0,0.0,0.0
50,1695809848229,0.39941406,0.8955078,-0.015625,-21.90625,8.53125,4.1875,5.5625,29.3125,-139.875
51,1695809848261,0.3154297,0.9667969,-0.0703125,-14.71875,-2.53125,8.78125,0.0,0.0,0.0
52,1695809848290,0.36035156,1.0019531,-0.015625,0.5625,-5.46875,7.0625,0.0,0.0,0.0
53,1695809848352,0.27929688,0.9951172,-0.15917969,-4.5625,3.34375,3.09375,0.0,0.0,0.0
54,1695809848414,0.41308594,0.93652344,-0.109375,-9.8125,17.125,0.78125,0.0,0.0,0.0
55,1695809848417,0.3798828,0.8730469,-0.09277344,-17.09375,14.3125,-4.34375,0.0,0.0,0.0
56,1695809848501,0.3203125,0.9238281,-0.20898438,-16.34375,23.0,-8.125,0.0,0.0,0.0
57,1695809848507,0.39453125,0.87597656,-0.20214844,-2.875,34.59375,-7.65625,0.0,0.0,0.0
58,1695809848529,0.38671875,0.81640625,-0.22363281,3.71875,35.75,-9.59375,0.0,0.0,0.0
59,1695809848590,0.39257812,0.88183594,-0.2265625,15.6875,34.21875,-13.5,0.0,0.0,0.0
60,1695809848618,0.3671875,0.9765625,-0.034179688,15.8125,43.4375,-4.53125,0.0,0.0,0.0
61,1695809848649,0.5205078,0.8222656,-0.064453125,1.46875,51.125,-7.59375,0.0,0.0,0.0
62,1695809848710,0.27246094,0.99121094,-0.17871094,-14.59375,12.375,-9.46875,0.0,0.0,0.0
63,1695809848739,0.3828125,0.98828125,-0.099609375,-2.375,26.65625,-12.84375,5.875,30.9375,-133.125
64,1695809848769,0.36816406,0.90722656,-0.08984375,-11.46875,34.8125,-16.1875,0.0,0.0,0.0
65,1695809848860,0.26953125,1.0322266,-0.13964844,-8.84375,14.0625,-16.5,0.0,0.0,0.0
66,1695809848864,0.30371094,1.0273438,-0.095703125,4.8125,-6.1875,-12.09375,0.0,0.0,0.0
67,1695809848888,0.30566406,0.9658203,-0.13867188,13.0,2.65625,-7.90625,0.0,0.0,0.0
68,1695809848948,0.17773438,1.1162109,-0.08984375,8.4375,-30.84375,0.15625,0.0,0.0,0.0
69,1695809848978,0.40527344,1.1796875,-0.1953125,33.375,-30.1875,5.96875,0.0,0.0,0.0
70,1695809849008,0.17285156,1.0644531,-0.19042969,53.09375,-32.4375,5.59375,0.0,0.0,0.0
71,1695809849068,0.2421875,0.7939453,-0.31152344,67.875,8.40625,7.3125,0.0,0.0,0.0
72,1695809849097,0.40820312,0.5253906,-0.2998047,37.90625,14.8125,24.09375,0.0,0.0,0.0
73,1695809849130,0.45996094,0.44433594,-0.22753906,0.1875,-32.3125,16.75,0.0,0.0,0.0
74,1695809849190,0.5703125,0.4501953,-0.34960938,-19.46875,-65.8125,18.15625,0.0,0.0,0.0
75,1695809849221,0.42382812,1.0488281,-0.3203125,-16.1875,-71.75,52.65625,7.1875,29.75,-139.375
76,1695809849250,0.21484375,1.484375,-0.0146484375,-53.46875,-55.6875,10.0625,0.0,0.0,0.0
77,1695809849309,0.45214844,1.0927734,-0.23632812,-33.03125,-79.375,-25.34375,0.0,0.0,0.0
78,1695809849339,0.21875,0.82128906,-0.0859375,-31.25,-56.34375,0.34375,0.0,0.0,0.0
79,1695809849370,0.29785156,0.94433594,0.013671875,-37.0,-18.5625,5.65625,0.0,0.0,0.0
80,1695809849430,0.2265625,1.0214844,-0.09667969,-33.3125,-10.65625,4.3125,0.0,0.0,0.0
81,1695809849467,0.29003906,0.9716797,-0.16015625,-21.59375,-17.84375,-4.46875,0.0,0.0,0.0
82,1695809849490,0.34179688,0.8652344,-0.08496094,-9.40625,18.15625,2.34375,0.0,0.0,0.0
83,1695809849550,0.30566406,0.9355469,-0.14648438,-2.5,11.4375,5.28125,0.0,0.0,0.0
84,1695809849581,0.31933594,0.96875,-0.060546875,8.0625,11.21875,6.4375,0.0,0.0,0.0
85,1695809849611,0.31835938,0.92285156,0.030273438,5.0,16.03125,1.5625,0.0,0.0,0.0
86,1695809849671,0.36816406,1.0869141,-0.11328125,0.5,7.25,0.15625,0.0,0.0,0.0
87,1695809849704,0.41503906,0.9121094,-0.26660156,-3.71875,11.4375,-10.9375,6.4375,29.125,-140.0
88,1695809849731,0.34570312,0.7685547,-0.13378906,-6.71875,25.6875,-10.34375,0.0,0.0,0.0
89,1695809849791,0.2626953,0.9560547,-0.123046875,-5.3125,31.53125,4.25,0.0,0.0,0.0
90,1695809849821,0.2919922,1.1201172,-0.26171875,9.71875,55.9375,-4.78125,0.0,0.0,0.0
91,1695809849851,0.4345703,0.93847656,-0.23144531,37.71875,66.5,-13.625,0.0,0.0,0.0
92,1695809849910,0.5253906,0.6308594,-0.14648438,22.03125,20.0625,-12.03125,0.0,0.0,0.0
93,1695809849940,0.30078125,0.80566406,-0.1796875,12.4375,-13.4375,3.8125,0.0,0.0,0.0
94,1695809849970,0.359375,1.0087891,-0.28027344,15.625,-26.375,4.8125,0.0,0.0,0.0
95,1695809850030,0.21875,1.0566406,-0.22949219,9.40625,-22.53125,-4.0625,0.0,0.0,0.0
96,1695809850061,0.3515625,1.1376953,-0.32617188,31.90625,-10.21875,-3.875,0.0,0.0,0.0
97,1695809850092,0.40722656,1.0419922,-0.3076172,34.0,-16.3125,-2.65625,0.0,0.0,0.0
98,1695809850149,0.29296875,0.7734375,-0.37695312,18.375,-4.0,2.71875,0.0,0.0,0.0
99,1695809850180,0.3046875,0.6269531,-0.3408203,22.09375,8.9375,10.28125,0.0,0.0,0.0
100,1695809850210,0.4140625,0.4736328,-0.2783203,9.28125,10.46875,25.5,6.75,31.0625,-143.0
101,1695809850271,0.40722656,0.111328125,-0.21582031,-10.5,-27.6875,13.03125,0.0,0.0,0.0
102,1695809850305,0.24804688,1.2197266,-0.2705078,-9.28125,-82.65625,58.34375,0.0,0.0,0.0
103,1695809850329,0.12207031,1.1894531,-0.28222656,3.1875,-54.03125,-5.15625,0.0,0.0,0.0
104,1695809850389,0.32910156,0.7714844,-0.3857422,-19.78125,-27.1875,-11.1875,0.0,0.0,0.0
105,1695809850421,0.328125,0.9980469,-0.115234375,0.90625,18.53125,30.1875,0.0,0.0,0.0
106,1695809850450,0.328125,1.1269531,-0.064453125,-33.5625,25.0,11.5,0.0,0.0,0.0
107,1695809850511,0.21191406,1.0283203,-0.25585938,-17.46875,21.21875,-11.4375,0.0,0.0,0.0
108,1695809850541,0.3779297,0.9189453,-0.16113281,-24.15625,26.71875,-10.15625,0.0,0.0,0.0
109,1695809850570,0.42089844,0.8466797,-0.10058594,-20.09375,33.65625,-3.8125,0.0,0.0,0.0
110,1695809850634,0.3779297,0.9091797,-0.07519531,-24.90625,29.75,-3.5625,0.0,0.0,0.0
111,1695809850693,0.2548828,0.90625,-0.19335938,-11.84375,38.78125,-3.3125,0.0,0.0,0.0
112,1695809850695,0.40722656,0.9013672,-0.22753906,8.96875,47.09375,-10.53125,7.625,27.9375,-140.0
113,1695809850751,0.3359375,0.8613281,-0.11425781,26.4375,49.96875,-15.21875,0.0,0.0,0.0
114,1695809850780,0.4111328,0.8339844,-0.068359375,17.8125,46.1875,-6.5625,0.0,0.0,0.0
115,1695809850813,0.4951172,0.7158203,-0.23730469,5.625,28.40625,-5.34375,0.0,0.0,0.0
116,1695809850870,0.45410156,1.1132812,-0.038085938,-22.15625,17.90625,-1.4375,0.0,0.0,0.0
117,1695809850903,0.13574219,1.0351562,-0.09277344,-41.875,26.71875,-14.96875,0.0,0.0,0.0
118,1695809850930,0.23339844,1.0341797,-0.17675781,-28.3125,29.09375,-31.6875,0.0,0.0,0.0
119,1695809850991,0.5283203,0.85058594,-0.18359375,-9.40625,44.34375,-26.5,0.0,0.0,0.0
120,1695809851020,0.49609375,0.875,-0.049804688,3.34375,27.0,-7.53125,0.0,0.0,0.0
121,1695809851050,0.34179688,1.0478516,-0.1171875,26.5625,-6.84375,-2.21875,0.0,0.0,0.0
122,1695809851112,0.2861328,0.87402344,-0.22070312,59.75,-48.59375,-4.34375,0.0,0.0,0.0
123,1695809851143,0.35253906,0.91796875,-0.22167969,50.0,-40.78125,-0.75,0.0,0.0,0.0
124,1695809851168,0.1484375,1.0771484,-0.35546875,39.375,-40.625,-7.21875,0.0,0.0,0.0
125,1695809851230,0.30371094,0.85058594,-0.42382812,36.5,7.0625,-6.625,4.5,31.8125,-138.5
126,1695809851259,0.41015625,0.6152344,-0.50683594,18.1875,-6.90625,-6.125,0.0,0.0,0.0
127,1695809851290,0.3544922,0.265625,-0.33496094,-30.28125,-16.75,4.5,0.0,0.0,0.0
128,1695809851349,0.11328125,0.49609375,-0.27148438,-5.90625,-48.0,27.375,0.0,0.0,0.0
129,1695809851378,0.07324219,2.0136719,-0.0234375,24.15625,-64.125,28.90625,0.0,0.0,0.0
130,1695809851408,0.4609375,0.953125,-0.12988281,28.5625,7.65625,5.84375,0.0,0.0,0.0
131,1695809851470,0.21484375,0.9111328,-0.18066406,-28.375,5.40625,-14.4375,0.0,0.0,0.0
132,1695809851502,0.27929688,1.0761719,-0.087890625,-31.375,19.09375,2.59375,0.0,0.0,0.0
133,1695809851531,0.46289062,0.9824219,-0.18066406,-10.875,66.1875,-2.84375,0.0,0.0,0.0
134,1695809851591,0.39160156,0.86328125,-0.10839844,-0.84375,66.03125,-1.78125,0.0,0.0,0.0
135,1695809851618,0.37109375,0.8251953,-0.13964844,-3.71875,33.78125,-10.53125,0.0,0.0,0.0
136,1695809851648,0.35351562,0.9013672,-0.08203125,-18.6875,31.90625,-9.0625,0.0,0.0,0.0
137,1695809851708,0.34570312,0.9511719,-0.055664062,-22.78125,20.375,-2.71875,5.375,30.5,-134.4375
138,1695809851742,0.27539062,0.9277344,-0.11035156,-11.90625,19.375,5.28125,0.0,0.0,0.0
139,1695809851770,0.4345703,1.015625,-0.08691406,-17.21875,22.6875,1.875,0.0,0.0,0.0
140,1695809851831,0.35351562,0.9238281,-0.038085938,-26.4375,25.0,-5.28125,0.0,0.0,0.0
141,1695809851865,0.36523438,0.8652344,-0.13476562,-19.28125,22.4375,-13.625,0.0,0.0,0.0
142,1695809851890,0.25878906,0.84375,-0.18457031,-1.09375,28.46875,-18.6875,0.0,0.0,0.0
143,1695809851952,0.3173828,0.8857422,-0.12597656,37.0625,49.46875,-13.5,0.0,0.0,0.0
144,1695809851980,0.5107422,0.9980469,0.05078125,33.03125,62.21875,16.59375,0.0,0.0,0.0
145,1695809852010,0.65234375,0.84277344,-0.09277344,8.59375,26.34375,0.09375,0.0,0.0,0.0
146,1695809852071,0.34375,0.9716797,-0.09863281,-3.65625,3.40625,-7.78125,0.0,0.0,0.0
147,1695809852102,0.24804688,0.9375,-0.12988281,-4.53125,4.3125,-4.65625,0.0,0.0,0.0
148,1695809852132,0.27929688,0.94628906,-0.13769531,4.09375,7.90625,-3.9375,0.0,0.0,0.0
149,1695809852188,0.33691406,0.9316406,-0.13769531,11.34375,1.75,-2.15625,0.0,0.0,0.0
150,1695809852220,0.36914062,0.9316406,-0.14648438,15.8125,-14.78125,0.59375,6.125,32.3125,-129.375
151,1695809852251,0.23828125,0.9423828,-0.13476562,21.125,-15.46875,-0.6875,0.0,0.0,0.0
152,1695809852310,0.24707031,0.9814453,-0.17675781,22.71875,-23.15625,-2.34375,0.0,0.0,0.0
153,1695809852340,0.22949219,1.0976562,-0.21679688,25.5,-3.3125,4.625,0.0,0.0,0.0
154,1695809852372,0.28125,1.0009766,-0.1640625,36.5,1.0625,-0.3125,0.0,0.0,0.0
155,1695809852431,0.31054688,1.0078125,-0.2265625,37.65625,4.4375,-5.15625,0.0,0.0,0.0
156,1695809852460,0.27441406,0.9394531,-0.22949219,40.65625,9.75,-2.15625,0.0,0.0,0.0
157,1695809852492,0.28515625,0.8701172,-0.2734375,30.9375,13.28125,2.71875,0.0,0.0,0.0
158,1695809852553,0.26464844,0.6777344,-0.2548828,13.3125,16.8125,4.96875,0.0,0.0,0.0
159,1695809852581,0.29882812,0.5576172,-0.33007812,2.3125,11.6875,4.5,0.0,0.0,0.0
160,1695809852611,0.39648438,0.44628906,-0.296875,2.75,-0.4375,6.375,0.0,0.0,0.0
161,1695809852671,0.39746094,1.1923828,-0.40820312,12.875,-6.84375,34.71875,0.0,0.0,0.0
162,1695809852699,0.26953125,1.1923828,0.009765625,-31.375,-23.9375,1.5,5.375,32.0,-134.875
163,1695809852735,0.2763672,1.0732422,-0.25585938,-15.5,-23.78125,-14.65625,0.0,0.0,0.0
164,1695809852791,0.12109375,0.89160156,-0.1796875,-22.09375,0.21875,-7.34375,0.0,0.0,0.0
165,1695809852820,0.45117188,1.0166016,-0.17871094,-20.9375,28.1875,-11.1875,0.0,0.0,0.0
166,1695809852852,0.4423828,0.85546875,-0.24902344,-9.53125,11.4375,-15.34375,0.0,0.0,0.0
167,1695809852910,0.33203125,0.828125,-0.16699219,-9.65625,-6.625,-4.78125,0.0,0.0,0.0
168,1695809852972,0.41308594,0.96777344,-0.19335938,-5.75,11.09375,1.4375,0.0,0.0,0.0
169,1695809852974,0.43652344,0.90625,-0.1796875,1.90625,12.96875,-3.0625,0.0,0.0,0.0
170,1695809853031,0.4892578,0.91503906,-0.15820312,14.78125,4.125,-2.03125,0.0,0.0,0.0
171,1695809853063,0.4267578,0.88671875,-0.13476562,9.53125,-1.25,1.375,0.0,0.0,0.0
172,1695809853091,0.43164062,0.8457031,-0.23339844,-6.34375,-4.90625,5.21875,0.0,0.0,0.0
173,1695809853150,0.3828125,0.9169922,-0.15917969,-9.40625,-25.65625,4.375,0.0,0.0,0.0
174,1695809853181,0.32910156,1.0097656,-0.08886719,-22.46875,-31.59375,3.75,0.0,0.0,0.0
175,1695809853210,0.296875,1.0087891,-0.09277344,-28.5,-27.0625,0.03125,5.125,33.3125,-132.5
176,1695809853270,0.24902344,1.0048828,-0.08203125,-31.75,-9.125,7.375,0.0,0.0,0.0
177,1695809853299,0.34277344,0.9121094,-0.10449219,-25.21875,0.09375,2.46875,0.0,0.0,0.0
178,1695809853329,0.3095703,0.82421875,-0.17871094,-4.46875,5.09375,-6.96875,0.0,0.0,0.0
179,1695809853392,0.22265625,0.68847656,-0.33984375,18.4375,20.3125,-3.3125,0.0,0.0,0.0
180,1695809853419,0.22363281,0.7207031,-0.16601562,32.21875,40.1875,10.84375,0.0,0.0,0.0
181,1695809853448,0.6230469,0.9902344,-0.22070312,2.375,28.0625,11.40625,0.0,0.0,0.0
182,1695809853512,0.35839844,1.1943359,-0.35839844,-17.53125,-24.25,10.0,0.0,0.0,0.0
183,1695809853541,0.234375,1.1640625,-0.25585938,4.34375,-24.5,5.40625,0.0,0.0,0.0
184,1695809853569,0.31835938,0.85839844,-0.18554688,-5.4375,2.0625,-5.9375,0.0,0.0,0.0
185,1695809853631,0.15136719,1.1162109,-0.21875,0.0625,-20.46875,-13.21875,0.0,0.0,0.0
186,1695809853661,0.21777344,1.2011719,-0.16992188,25.34375,-9.0625,-16.375,0.0,0.0,0.0
187,1695809853688,0.2529297,0.9658203,-0.20214844,28.9375,9.375,-17.78125,6.0,31.8125,-133.25
188,1695809853751,0.3486328,0.7949219,-0.2939453,40.78125,25.78125,-12.65625,0.0,0.0,0.0
189,1695809853781,0.43359375,0.6923828,-0.3623047,32.21875,29.40625,6.6875,0.0,0.0,0.0
190,1695809853812,0.45996094,0.4658203,-0.29003906,3.71875,2.96875,9.625,0.0,0.0,0.0
191,1695809853871,0.44335938,0.40429688,-0.28027344,-18.3125,-53.1875,15.375,0.0,0.0,0.0
192,1695809853903,0.34375,1.0810547,-0.013671875,-20.3125,-57.09375,46.3125,0.0,0.0,0.0
193,1695809853931,-0.064453125,1.4912109,-0.21972656,-53.84375,-54.78125,-3.375,0.0,0.0,0.0
194,1695809853992,0.31640625,1.125,-0.3955078,4.9375,-22.0625,-16.1875,0.0,0.0,0.0
195,1695809854022,0.27148438,0.8652344,-0.07128906,30.75,54.96875,2.25,0.0,0.0,0.0
196,1695809854049,0.37597656,1.0253906,-0.07714844,5.96875,67.46875,-0.6875,0.0,0.0,0.0
197,1695809854107,0.5136719,1.0058594,-0.14453125,-6.40625,53.0625,-8.8125,0.0,0.0,0.0
198,1695809854137,0.33789062,0.93359375,-0.10644531,-13.6875,30.0625,-10.53125,0.0,0.0,0.0
199,1695809854167,0.3876953,0.8779297,-0.23925781,-17.34375,34.59375,-15.53125,0.0,0.0,0.0
200,1695809854232,0.3955078,0.8203125,-0.13671875,-8.46875,45.21875,-9.46875,6.125,30.9375,-129.375
201,1695809854262,0.36914062,0.84472656,-0.09277344,-3.25,33.375,-10.59375,0.0,0.0,0.0
202,1695809854288,0.27246094,0.79785156,-0.16894531,-2.125,42.6875,-10.875,0.0,0.0,0.0
203,1695809854348,0.24804688,0.80371094,-0.16796875,24.53125,49.125,-12.40625,0.0,0.0,0.0
204,1695809854380,0.24902344,0.6923828,-0.24414062,43.59375,73.46875,-13.5625,0.0,0.0,0.0
205,1695809854411,0.65625,1.0078125,0.19824219,18.4375,100.4375,21.9375,0.0,0.0,0.0
206,1695809854468,0.6171875,1.2597656,-0.11035156,-18.75,17.4375,8.15625,0.0,0.0,0.0
207,1695809854500,0.28027344,1.0439453,-0.25,-0.5,-3.6875,-12.09375,0.0,0.0,0.0
208,1695809854530,0.17773438,0.80859375,-0.16992188,4.15625,-4.0,-14.3125,0.0,0.0,0.0
209,1695809854590,0.39160156,0.9003906,-0.16308594,4.40625,4.125,-8.6875,0.0,0.0,0.0
210,1695809854620,0.34472656,0.96484375,-0.17285156,8.65625,14.625,-2.21875,0.0,0.0,0.0
211,1695809854652,0.34375,0.84277344,-0.12890625,6.34375,-10.65625,-6.1875,0.0,0.0,0.0
212,1695809854711,0.3076172,1.0380859,-0.16113281,13.78125,-11.9375,-1.375,3.4375,33.9375,-126.375
213,1695809854740,0.3173828,1.0175781,-0.12792969,29.34375,-1.25,-2.65625,0.0,0.0,0.0
214,1695809854770,0.28027344,0.9980469,-0.10449219,27.34375,-8.875,-6.625,0.0,0.0,0.0
215,1695809854830,0.203125,0.97558594,-0.11230469,23.3125,-9.59375,-9.53125,0.0,0.0,0.0
216,1695809854860,0.2548828,1.1289062,-0.29882812,31.5625,6.03125,-11.875,0.0,0.0,0.0
217,1695809854888,0.36523438,1.0488281,-0.19433594,35.46875,16.8125,-17.21875,0.0,0.0,0.0
218,1695809854950,0.20605469,0.7685547,-0.20117188,12.75,30.8125,-12.53125,0.0,0.0,0.0
219,1695809854984,0.2763672,0.6279297,-0.3310547,-16.125,39.40625,-7.90625,0.0,0.0,0.0
220,1695809855010,0.31347656,0.60839844,-0.3642578,-19.71875,12.625,-10.34375,0.0,0.0,0.0
221,1695809855070,0.27734375,0.53222656,-0.5292969,-15.5,-11.0,1.03125,0.0,0.0,0.0
222,1695809855100,0.47460938,1.2998047,-0.1171875,16.34375,-38.53125,27.5625,0.0,0.0,0.0
223,1695809855129,-0.28125,1.4199219,-0.040039062,-21.90625,-8.5625,2.65625,0.0,0.0,0.0
224,1695809855190,0.34765625,0.9628906,-0.39648438,-25.5,9.875,-25.46875,0.0,0.0,0.0
225,1695809855251,0.39648438,0.66308594,-0.19726562,13.78125,44.03125,4.9375,-1.9375,35.3125,-129.1875
226,1695809855253,0.4326172,0.8027344,-0.10839844,3.78125,21.21875,7.96875,0.0,0.0,0.0
227,1695809855308,0.4033203,0.9892578,-0.28027344,-28.75,-14.5,0.28125,0.0,0.0,0.0
228,1695809855338,0.34375,0.859375,-0.19238281,2.75,-6.1875,14.375,0.0,0.0,0.0
229,1695809855368,0.35546875,0.82714844,-0.25097656,12.21875,-10.09375,13.59375,0.0,0.0,0.0
230,1695809855431,0.47070312,0.90722656,-0.22851562,17.09375,-4.25,21.21875,0.0,0.0,0.0
231,1695809855460,0.43359375,0.93652344,-0.19335938,8.90625,-4.96875,19.375,0.0,0.0,0.0
232,1695809855488,0.43554688,0.8378906,-0.13476562,-6.59375,-19.8125,17.8125,0.0,0.0,0.0
233,1695809855549,0.4091797,0.9589844,-0.119140625,-1.59375,-25.90625,23.0,0.0,0.0,0.0
234,1695809855579,0.2998047,0.9316406,-0.13769531,-17.40625,-15.46875,16.65625,0.0,0.0,0.0
235,1695809855610,0.3984375,1.0488281,-0.09472656,-15.0,-6.5625,13.53125,0.0,0.0,0.0
236,1695809855672,0.35351562,1.0175781,-0.06738281,-14.34375,0.71875,3.75,0.0,0.0,0.0
237,1695809855702,0.38378906,1.0097656,-0.076171875,-13.71875,5.40625,-5.15625,4.625,34.0625,-127.25
238,1695809855729,0.328125,1.0019531,-0.08984375,-15.9375,18.71875,-4.84375,0.0,0.0,0.0
239,1695809855792,0.27148438,0.9433594,-0.11328125,-10.5625,35.5,-11.5,0.0,0.0,0.0
240,1695809855820,0.2685547,0.8544922,-0.16601562,-1.40625,43.8125,-20.90625,0.0,0.0,0.0
241,1695809855849,0.3310547,0.88964844,-0.23632812,19.28125,55.8125,-30.28125,0.0,0.0,0.0
242,1695809855917,0.453125,0.86035156,-0.2607422,37.34375,49.21875,-27.5625,0.0,0.0,0.0
243,1695809855940,0.4404297,0.7792969,-0.18066406,43.28125,66.25,-6.625,0.0,0.0,0.0
244,1695809855971,0.5908203,0.86035156,-0.22753906,24.71875,38.3125,-0.25,0.0,0.0,0.0
245,1695809856031,0.51953125,1.0693359,-0.203125,27.53125,10.34375,4.375,0.0,0.0,0.0
246,1695809856061,0.3720703,0.9941406,-0.1875,27.90625,-14.5,1.1875,0.0,0.0,0.0
247,1695809856089,0.21875,0.83203125,-0.29589844,54.3125,-11.375,-3.6875,0.0,0.0,0.0
248,1695809856153,0.29785156,0.8125,-0.23242188,34.375,-13.21875,-7.59375,0.0,0.0,0.0
249,1695809856181,0.31347656,0.9814453,-0.296875,30.9375,-11.5,1.3125,0.0,0.0,0.0
250,1695809856211,0.19628906,0.9140625,-0.24804688,13.0,-4.0625,-7.09375,-0.4375,37.5625,-131.3125
251,1695809856271,0.27539062,0.7753906,-0.33398438,-4.21875,23.34375,-12.40625,0.0,0.0,0.0
252,1695809856301,0.24902344,0.5908203,-0.36621094,-20.25,38.5,-13.5,0.0,0.0,0.0
253,1695809856330,0.15136719,0.8486328,-0.17285156,-12.9375,36.40625,1.9375,0.0,0.0,0.0
254,1695809856387,0.65722656,1.1318359,-0.33691406,-0.5625,-18.03125,6.15625,0.0,0.0,0.0
255,1695809856424,0.2763672,1.1113281,-0.23046875,-31.96875,-0.4375,3.21875,0.0,0.0,0.0
256,1695809856452,0.47753906,1.0371094,-0.32617188,-18.375,0.71875,-12.90625,0.0,0.0,0.0
257,1695809856509,0.4345703,0.79785156,-0.22558594,-16.59375,-9.375,1.625,0.0,0.0,0.0
258,1695809856540,0.4951172,0.81640625,-0.049804688,-28.625,-16.375,1.375,0.0,0.0,0.0
259,1695809856569,0.34277344,0.9892578,-0.13671875,-27.09375,-21.15625,4.4375,0.0,0.0,0.0
260,1695809856631,0.38378906,0.88183594,-0.09863281,-15.375,-18.6875,-0.15625,0.0,0.0,0.0
261,1695809856663,0.359375,0.890625,-0.17480469,-13.78125,-4.125,0.71875,0.0,0.0,0.0
262,1695809856690,0.39941406,0.9580078,-0.19824219,-16.78125,3.15625,4.5,-0.125,36.3125,-124.6875
263,1695809856750,0.50878906,0.9404297,-0.16796875,-19.28125,-9.65625,0.59375,0.0,0.0,0.0
264,1695809856781,0.3466797,0.9238281,-0.10058594,-22.53125,-13.5625,1.625,0.0,0.0,0.0
265,1695809856812,0.31933594,0.8671875,-0.09277344,-23.3125,-15.40625,-4.28125,0.0,0.0,0.0
266,1695809856871,0.3935547,0.9638672,-0.14453125,-16.46875,-7.59375,3.09375,0.0,0.0,0.0
267,1695809856902,0.359375,0.9277344,-0.0625,-12.875,-6.1875,2.84375,0.0,0.0,0.0
268,1695809856931,0.26757812,0.9658203,-0.103515625,-15.1875,4.25,-2.28125,0.0,0.0,0.0
269,1695809856992,0.32128906,0.92089844,-0.140625,-1.46875,21.71875,-5.09375,0.0,0.0,0.0
270,1695809857023,0.29101562,0.8652344,-0.16015625,10.1875,41.3125,-5.5625,0.0,0.0,0.0
271,1695809857047,0.30859375,0.7949219,-0.17285156,12.09375,45.8125,-12.03125,0.0,0.0,0.0
272,1695809857107,0.18554688,0.7011719,-0.07910156,34.5,61.0,-12.03125,0.0,0.0,0.0
273,1695809857137,0.453125,1.2705078,0.16503906,44.4375,66.125,0.15625,0.0,0.0,0.0
274,1695809857167,0.6113281,0.98339844,-0.13574219,10.6875,25.96875,6.8125,0.0,0.0,0.0
275,1695809857227,0.5058594,0.8798828,-0.18945312,14.78125,-0.375,-4.90625,-3.125,36.9375,-122.4375
276,1695809857262,0.32226562,0.76953125,-0.049804688,-5.0,-41.15625,-11.96875,0.0,0.0,0.0
277,1695809857287,0.056640625,0.99316406,-0.07324219,-3.53125,-29.875,1.4375,0.0,0.0,0.0
278,1695809857348,0.14941406,1.1923828,-0.14648438,12.6875,8.34375,0.40625,0.0,0.0,0.0
279,1695809857379,0.20996094,1.0068359,-0.14941406,14.90625,37.4375,4.0,0.0,0.0,0.0
280,1695809857408,0.32910156,0.953125,-0.13769531,24.65625,28.65625,-2.46875,0.0,0.0,0.0
281,1695809857469,0.40722656,0.97558594,-0.2109375,34.84375,26.09375,-13.75,0.0,0.0,0.0
282,1695809857527,0.29296875,1.1103516,-0.17675781,29.0,9.3125,-9.1875,0.0,0.0,0.0
283,1695809857529,0.40820312,1.03125,-0.19042969,39.78125,-4.0,-5.5,0.0,0.0,0.0
284,1695809857588,0.4453125,0.82714844,-0.2607422,29.53125,-10.53125,-5.15625,0.0,0.0,0.0
285,1695809857619,0.31835938,0.58203125,-0.2548828,7.8125,-8.5625,8.09375,0.0,0.0,0.0
286,1695809857649,0.3017578,0.6074219,-0.22558594,-19.34375,-14.84375,13.71875,0.0,0.0,0.0
287,1695809857713,0.39160156,0.69433594,-0.34179688,-20.6875,-29.625,16.8125,-2.875,38.0,-127.25
288,1695809857739,0.38378906,0.94433594,-0.13378906,-9.8125,-28.71875,29.03125,0.0,0.0,0.0
289,1695809857771,0.018554688,1.1855469,-0.08105469,-25.34375,-18.875,14.5,0.0,0.0,0.0
290,1695809857829,0.3798828,1.0673828,-0.33007812,-2.8125,-27.5,-2.34375,0.0,0.0,0.0
291,1695809857860,0.36621094,0.78808594,-0.2626953,4.75,18.65625,20.375,0.0,0.0,0.0
292,1695809857889,0.30859375,0.9296875,-0.21289062,2.5,23.96875,10.53125,0.0,0.0,0.0
293,1695809857950,0.46289062,0.9716797,-0.18359375,-1.65625,11.9375,0.53125,0.0,0.0,0.0
294,1695809857979,0.35351562,0.95703125,-0.17382812,-3.53125,7.71875,0.84375,0.0,0.0,0.0
295,1695809858009,0.47558594,0.91015625,-0.19238281,-20.09375,-3.25,0.09375,0.0,0.0,0.0
296,1695809858071,0.3828125,0.88378906,-0.08691406,-23.3125,3.625,1.125,0.0,0.0,0.0
297,1695809858102,0.43652344,0.9716797,-0.119140625,-32.84375,-5.34375,-4.71875,0.0,0.0,0.0
298,1695809858130,0.3671875,0.91308594,-0.095703125,-13.78125,6.5,-1.375,0.0,0.0,0.0
299,1695809858191,0.4033203,0.92871094,-0.037109375,-2.25,3.625,-2.78125,0.0,0.0,0.0
300,1695809858221,0.51464844,0.8769531,-0.05078125,-6.90625,-6.625,-5.6875,-0.4375,36.8125,-122.625
301,1695809858249,0.3720703,0.86035156,-0.061523438,-23.625,-18.21875,-4.65625,0.0,0.0,0.0
302,1695809858312,0.4169922,0.9404297,-0.10253906,-23.1875,-3.375,-6.0,0.0,0.0,0.0
303,1695809858339,0.31054688,0.8496094,-0.12792969,-3.59375,0.84375,-10.6875,0.0,0.0,0.0
304,1695809858375,0.25878906,0.7402344,-0.13769531,12.21875,12.5,-13.8125,0.0,0.0,0.0
305,1695809858428,0.28222656,0.6298828,-0.08105469,10.5625,42.28125,-1.78125,0.0,0.0,0.0
306,1695809858458,0.6982422,1.1123047,0.024414062,-35.46875,30.1875,3.40625,0.0,0.0,0.0
307,1695809858488,0.38476562,1.0869141,0.0,-34.125,-2.53125,-6.125,0.0,0.0,0.0
308,1695809858550,0.24902344,1.0253906,-0.20800781,-11.90625,5.84375,-5.15625,0.0,0.0,0.0
309,1695809858579,0.32421875,0.9638672,-0.17382812,1.28125,-4.0,-6.125,0.0,0.0,0.0
310,1695809858610,0.39160156,1.03125,-0.040039062,19.53125,-7.90625,-4.78125,0.0,0.0,0.0
311,1695809858670,0.28125,1.0527344,-0.07519531,16.25,-8.375,-1.4375,0.0,0.0,0.0
312,1695809858699,0.20703125,1.0078125,-0.123046875,31.0,-17.1875,-7.40625,-3.0,36.3125,-120.5
313,1695809858730,0.17675781,1.0078125,-0.08300781,37.28125,-10.34375,-11.25,0.0,0.0,0.0
314,1695809858790,0.22265625,1.0517578,-0.17773438,45.21875,13.21875,-10.875,0.0,0.0,0.0
315,1695809858821,0.22363281,1.0009766,-0.1953125,38.75,18.96875,-15.09375,0.0,0.0,0.0
316,1695809858849,0.2998047,0.90527344,-0.31054688,52.96875,32.6875,-11.0625,0.0,0.0,0.0
317,1695809858910,0.296875,0.7675781,-0.24609375,27.03125,42.8125,1.5,0.0,0.0,0.0
318,1695809858942,0.34179688,0.6982422,-0.28320312,17.625,22.0625,9.25,0.0,0.0,0.0
319,1695809858972,0.24316406,0.49609375,-0.3232422,18.3125,-3.875,7.0,0.0,0.0,0.0
320,1695809859028,0.35253906,0.60839844,-0.0703125,22.59375,18.78125,18.78125,0.0,0.0,0.0
321,1695809859060,0.3720703,1.3681641,-0.24414062,17.03125,-32.25,-8.625,0.0,0.0,0.0
322,1695809859092,0.6357422,1.0283203,-0.2548828,13.90625,26.09375,8.875,0.0,0.0,0.0
323,1695809859149,0.33203125,0.8642578,-0.22851562,-1.96875,-19.90625,-3.25,0.0,0.0,0.0
324,1695809859183,0.44726562,1.0136719,-0.15917969,-12.03125,22.75,2.34375,0.0,0.0,0.0
325,1695809859240,0.46875,1.1591797,-0.1640625,-30.9375,25.0,-8.4375,-4.375,40.375,-128.125
326,1695809859274,0.54785156,0.9638672,-0.22265625,-35.78125,-5.15625,-13.03125,0.0,0.0,0.0
327,1695809859304,0.36914062,0.80859375,-0.18554688,-37.46875,0.09375,-4.65625,0.0,0.0,0.0
328,1695809859328,0.43066406,0.79003906,-0.15136719,-46.03125,-3.1875,-5.9375,0.0,0.0,0.0
329,1695809859389,0.37304688,0.8378906,-0.12792969,-39.5,-11.8125,-0.9375,0.0,0.0,0.0
330,1695809859422,0.32128906,0.87890625,-0.15527344,-24.65625,-8.3125,2.53125,0.0,0.0,0.0
331,1695809859448,0.32128906,0.8046875,-0.3623047,-9.28125,0.46875,2.65625,0.0,0.0,0.0
332,1695809859509,0.32910156,0.6845703,-0.328125,17.8125,5.21875,-0.5,0.0,0.0,0.0
333,1695809859540,0.19238281,0.76464844,0.0625,42.34375,5.09375,-0.9375,0.0,0.0,0.0
334,1695809859571,0.083984375,1.3222656,-0.2421875,37.28125,-24.25,9.5625,0.0,0.0,0.0
335,1695809859630,0.44726562,1.1318359,0.009765625,38.34375,-27.78125,4.25,0.0,0.0,0.0
336,1695809859662,0.35253906,1.1835938,-0.23535156,22.59375,-1.1875,7.5,0.0,0.0,0.0
337,1695809859721,0.32714844,1.1679688,-0.2734375,31.8125,-18.5625,-8.3125,-2.875,38.75,-128.3125
338,1695809859749,0.2939453,0.9941406,-0.19238281,25.34375,-10.75,-4.40625,0.0,0.0,0.0
339,1695809859812,0.31835938,0.9423828,-0.24023438,23.5,-5.03125,-4.65625,0.0,0.0,0.0
340,1695809859815,0.24511719,0.76464844,-0.16894531,15.875,-4.96875,-2.21875,0.0,0.0,0.0
341,1695809859872,0.16894531,0.6982422,-0.33789062,-4.21875,-10.71875,0.65625,0.0,0.0,0.0
342,1695809859902,0.29003906,0.6113281,-0.33789062,-14.53125,-3.75,-0.15625,0.0,0.0,0.0
343,1695809859929,0.37304688,0.46972656,-0.23632812,-19.09375,-3.6875,5.15625,0.0,0.0,0.0
344,1695809859992,0.265625,0.85058594,-0.2685547,-7.25,-27.84375,31.09375,0.0,0.0,0.0
345,1695809860027,0.27929688,1.4931641,-0.16992188,-14.90625,-48.90625,26.59375,0.0,0.0,0.0
346,1695809860050,0.2998047,1.0390625,-0.17773438,7.09375,-14.3125,7.84375,0.0,0.0,0.0
347,1695809860112,0.34570312,0.9433594,-0.21679688,-7.09375,5.34375,4.8125,0.0,0.0,0.0
348,1695809860142,0.4140625,0.92871094,-0.18847656,-4.21875,-3.125,10.125,0.0,0.0,0.0
349,1695809860170,0.43847656,0.90234375,-0.21777344,-20.625,16.6875,8.84375,0.0,0.0,0.0
350,1695809860231,0.36816406,0.8798828,-0.18359375,-23.1875,9.875,2.65625,-1.5,38.875,-130.875
351,1695809860262,0.41015625,0.8779297,-0.25683594,-17.09375,-8.6875,-2.34375,0.0,0.0,0.0
352,1695809860294,0.45410156,0.88378906,-0.2578125,-8.25,4.375,0.59375,0.0,0.0,0.0
353,1695809860351,0.44140625,0.86621094,-0.22949219,-3.34375,11.5625,3.40625,0.0,0.0,0.0
354,1695809860381,0.41015625,0.92089844,-0.1640625,-0.125,5.46875,4.6875,0.0,0.0,0.0
355,1695809860410,0.42773438,0.90234375,-0.22167969,-0.25,3.09375,4.5,0.0,0.0,0.0
356,1695809860469,0.45703125,0.8466797,-0.15234375,-4.15625,1.0625,3.8125,0.0,0.0,0.0
357,1695809860501,0.45898438,0.9277344,-0.12109375,-13.5625,-15.15625,6.15625,0.0,0.0,0.0
358,1695809860528,0.4296875,0.9433594,-0.10449219,-25.8125,-19.6875,2.0,0.0,0.0,0.0
359,1695809860588,0.43554688,0.94433594,-0.14355469,-27.28125,-27.90625,3.34375,0.0,0.0,0.0
360,1695809860621,0.4794922,0.9169922,-0.13769531,-28.75,-27.625,2.71875,0.0,0.0,0.0
361,1695809860708,0.3564453,0.890625,-0.15039062,-30.875,-25.09375,-0.625,0.75,38.4375,-125.125
362,1695809860711,0.40625,0.8876953,-0.19824219,-29.71875,-24.625,-2.9375,0.0,0.0,0.0
363,1695809860739,0.33691406,0.7988281,-0.13671875,-21.65625,-12.46875,0.09375,0.0,0.0,0.0
364,1695809860804,0.24511719,0.7314453,-0.12792969,-13.6875,-9.96875,-2.65625,0.0,0.0,0.0
365,1695809860828,0.11621094,0.5654297,-0.14746094,-22.59375,14.375,-2.40625,0.0,0.0,0.0
366,1695809860859,0.6972656,1.5693359,-0.06347656,-35.9375,5.15625,-5.875,0.0,0.0,0.0
367,1695809860889,0.4580078,1.0078125,-0.0009765625,-31.25,-3.9375,-10.46875,0.0,0.0,0.0
368,1695809860952,0.0546875,1.0292969,-0.13476562,-29.0625,0.59375,-13.8125,0.0,0.0,0.0
369,1695809860984,0.2939453,0.9111328,-0.12695312,-3.71875,34.9375,-9.1875,0.0,0.0,0.0
370,1695809861010,0.34375,0.95703125,-0.111328125,10.25,21.875,-2.34375,0.0,0.0,0.0
371,1695809861071,0.35839844,1.1181641,-0.030273438,32.21875,0.53125,-5.40625,0.0,0.0,0.0
372,1695809861101,0.42089844,1.0341797,-0.03125,42.25,-16.625,-4.71875,0.0,0.0,0.0
373,1695809861131,0.30371094,1.0244141,-0.2421875,57.4375,-54.21875,-17.1875,0.0,0.0,0.0
374,1695809861192,0.34472656,1.3115234,-0.32226562,75.9375,-43.59375,-18.875,0.0,0.0,0.0
375,1695809861220,0.4560547,0.7363281,-0.3779297,56.53125,-3.875,-9.65625,-0.4375,38.875,-128.4375
376,1695809861253,0.5488281,0.2919922,-0.40039062,4.625,-26.75,5.84375,0.0,0.0,0.0
377,1695809861311,0.39746094,-0.0625,-0.4248047,-47.0625,-50.6875,11.875,0.0,0.0,0.0
378,1695809861340,-0.11425781,0.44726562,-0.20117188,-15.0625,-73.625,51.75,0.0,0.0,0.0
379,1695809861399,0.8076172,2.0136719,-0.27441406,-28.8125,-101.78125,-12.34375,0.0,0.0,0.0
380,1695809861431,0.13671875,1.2460938,0.021484375,-3.65625,23.28125,-19.125,0.0,0.0,0.0
381,1695809861463,0.0546875,1.0,-0.29101562,-4.46875,41.46875,-1.4375,0.0,0.0,0.0
382,1695809861521,0.7783203,0.8378906,-0.005859375,-5.25,79.375,0.84375,0.0,0.0,0.0
383,1695809861548,0.68359375,0.80078125,-0.15429688,-35.78125,24.6875,-6.5625,0.0,0.0,0.0
384,1695809861578,0.23925781,0.68066406,-0.037109375,-34.96875,-30.40625,10.96875,0.0,0.0,0.0
385,1695809861638,0.15039062,0.8515625,-0.18457031,-42.53125,-24.4375,8.28125,0.0,0.0,0.0
386,1695809861670,0.21679688,1.0830078,-0.17773438,-18.375,23.0625,2.65625,0.0,0.0,0.0
387,1695809861704,0.328125,1.0058594,-0.048828125,-4.9375,22.9375,-11.0625,0.625,37.0625,-125.75
388,1695809861761,0.16308594,0.9345703,-0.11230469,14.53125,25.1875,-9.96875,0.0,0.0,0.0
389,1695809861790,0.4404297,0.7734375,-0.29003906,31.96875,34.59375,-12.21875,0.0,0.0,0.0
390,1695809861821,0.30371094,0.6298828,-0.037109375,54.1875,59.375,10.84375,0.0,0.0,0.0
391,1695809861880,0.12890625,0.765625,-0.12597656,33.1875,43.0625,32.03125,0.0,0.0,0.0
392,1695809861910,0.6298828,1.3496094,-0.23339844,5.3125,10.78125,29.28125,0.0,0.0,0.0
393,1695809861940,0.5625,0.765625,-0.19335938,26.71875,-12.15625,7.59375,0.0,0.0,0.0
394,1695809862001,0.2763672,1.5078125,-0.3798828,47.65625,-26.6875,0.84375,0.0,0.0,0.0
395,1695809862031,0.40625,1.1132812,-0.30371094,52.90625,-42.875,-12.71875,0.0,0.0,0.0
396,1695809862090,0.5,0.8730469,-0.3095703,36.4375,-37.4375,-20.09375,0.0,0.0,0.0
397,1695809862121,0.2763672,0.48632812,-0.3642578,-1.15625,-30.34375,-9.90625,0.0,0.0,0.0
398,1695809862150,0.11328125,0.28515625,-0.38867188,-45.65625,-21.25,-5.40625,0.0,0.0,0.0
399,1695809862182,0.15625,0.4296875,-0.11621094,-34.78125,5.40625,6.9375,0.0,0.0,0.0
400,1695809862240,0.4765625,1.3818359,-0.18359375,-7.1875,-95.96875,17.5625,1.375,37.8125,-131.3125
401,1695809862272,0.39160156,1.1806641,-0.13574219,-0.25,-29.3125,14.9375,0.0,0.0,0.0
402,1695809862302,0.3251953,1.015625,-0.36914062,-42.34375,-7.03125,7.0625,0.0,0.0,0.0
403,1695809862366,0.28320312,0.9042969,-0.12597656,-28.0625,-3.0,8.40625,0.0,0.0,0.0
404,1695809862393,0.42773438,0.9628906,-0.05078125,-28.4375,25.25,0.71875,0.0,0.0,0.0
405,1695809862421,0.42089844,0.8828125,-0.12597656,-39.90625,11.09375,-8.125,0.0,0.0,0.0
406,1695809862481,0.32910156,0.8652344,-0.10253906,-28.375,-2.09375,-0.21875,0.0,0.0,0.0
407,1695809862512,0.35546875,0.9033203,-0.12695312,-28.0625,4.90625,-4.78125,0.0,0.0,0.0
408,1695809862540,0.33691406,0.9589844,-0.11621094,-25.5,15.71875,-5.09375,0.0,0.0,0.0
409,1695809862597,0.33789062,0.9628906,-0.057617188,-23.875,4.375,-15.84375,0.0,0.0,0.0
410,1695809862629,0.22363281,0.89941406,-0.083984375,-18.375,28.46875,-5.8125,0.0,0.0,0.0
411,1695809862662,0.28808594,0.95214844,-0.12792969,-7.1875,52.03125,-9.0,0.0,0.0,0.0
412,1695809862721,0.2939453,0.86328125,-0.23828125,17.40625,57.59375,-9.84375,-1.9375,37.0625,-122.625
413,1695809862752,0.2939453,0.68652344,-0.22070312,35.875,66.3125,-15.84375,0.0,0.0,0.0
414,1695809862782,0.3857422,0.7246094,-0.009765625,59.03125,66.0625,-16.875,0.0,0.0,0.0
415,1695809862842,0.4267578,1.328125,0.0048828125,69.28125,44.96875,9.5625,0.0,0.0,0.0
416,1695809862872,0.65234375,0.9267578,-0.20703125,11.0625,-3.6875,10.21875,0.0,0.0,0.0
417,1695809862900,0.26660156,0.93847656,-0.09667969,-1.46875,-28.71875,4.375,0.0,0.0,0.0
418,1695809862962,0.24902344,0.953125,-0.15527344,-14.15625,-21.875,-6.3125,0.0,0.0,0.0
419,1695809862991,0.18554688,1.1240234,-0.19433594,6.21875,5.59375,-9.1875,0.0,0.0,0.0
420,1695809863020,0.29785156,0.98535156,-0.07714844,3.125,-19.0,-5.40625,0.0,0.0,0.0
421,1695809863081,0.27441406,0.8046875,-0.11621094,-2.625,-26.9375,-4.28125,0.0,0.0,0.0
422,1695809863112,0.2685547,0.92285156,-0.23144531,10.1875,-22.71875,-5.15625,0.0,0.0,0.0
423,1695809863141,0.20898438,0.9921875,-0.17773438,24.21875,-24.625,-3.875,0.0,0.0,0.0
424,1695809863201,0.5205078,0.9951172,-0.06640625,26.0,-34.5,-11.0625,0.0,0.0,0.0
425,1695809863231,0.45214844,0.99121094,-0.1328125,13.90625,-55.75,0.53125,-3.3125,39.3125,-130.25
426,1695809863260,0.23339844,0.8984375,-0.2705078,30.15625,-60.25,10.84375,0.0,0.0,0.0
427,1695809863350,0.14550781,0.86621094,-0.27929688,22.03125,-60.21875,16.53125,0.0,0.0,0.0
428,1695809863354,0.15820312,0.8798828,-0.31445312,7.5625,-36.34375,17.96875,0.0,0.0,0.0
429,1695809863378,0.24707031,0.7294922,-0.2548828,-2.125,-23.15625,25.125,0.0,0.0,0.0
430,1695809863438,0.20019531,0.5185547,-0.3388672,-32.84375,-35.125,21.40625,0.0,0.0,0.0
431,1695809863467,0.24121094,0.51953125,-0.26953125,-43.46875,-57.21875,39.59375,0.0,0.0,0.0
432,1695809863497,0.48339844,2.0136719,-0.12597656,10.5625,-75.84375,34.9375,0.0,0.0,0.0
433,1695809863556,0.029296875,1.2216797,-0.2734375,-33.9375,-6.90625,-10.28125,0.0,0.0,0.0
434,1695809863587,0.29785156,0.80859375,-0.27441406,-35.34375,1.0,-18.5625,0.0,0.0,0.0
435,1695809863617,0.27929688,0.6923828,-0.12011719,-18.1875,-7.59375,-4.90625,0.0,0.0,0.0
436,1695809863712,0.43554688,0.9941406,-0.22167969,-19.96875,11.75,5.78125,0.875,37.5625,-131.625
437,1695809863713,0.39453125,0.921875,-0.171875,0.84375,5.28125,9.875,0.0,0.0,0.0
438,1695809863737,0.41503906,0.7763672,-0.21679688,-1.65625,-33.34375,7.78125,0.0,0.0,0.0
439,1695809863798,0.48339844,0.93847656,-0.18164062,-8.78125,-26.375,13.09375,0.0,0.0,0.0
440,1695809863826,0.31640625,1.0566406,-0.1015625,-13.0625,-25.34375,11.21875,0.0,0.0,0.0
441,1695809863856,0.37402344,0.93847656,-0.20800781,-23.6875,-29.1875,1.9375,0.0,0.0,0.0
442,1695809863918,0.46289062,0.88964844,-0.12597656,-13.1875,-25.90625,10.0625,0.0,0.0,0.0
443,1695809863947,0.390625,0.90234375,-0.103515625,-19.78125,-30.0,9.75,0.0,0.0,0.0
444,1695809863978,0.37109375,0.9091797,-0.17285156,-26.0625,-29.25,7.5,0.0,0.0,0.0
445,1695809864037,0.42089844,0.921875,-0.09667969,-18.4375,-38.71875,5.71875,0.0,0.0,0.0
446,1695809864070,0.38476562,0.9316406,-0.029296875,-17.21875,-47.25,4.5625,0.0,0.0,0.0
447,1695809864102,0.36523438,0.8017578,-0.15234375,-17.625,-48.375,-1.125,0.0,0.0,0.0
448,1695809864159,0.22558594,0.69140625,-0.1875,-2.8125,-35.90625,2.65625,0.0,0.0,0.0
449,1695809864189,0.22363281,0.7734375,-0.15039062,13.0625,-33.03125,8.21875,0.0,0.0,0.0
450,1695809864217,0.31933594,1.0410156,-0.30664062,8.375,-35.71875,30.75,3.3125,35.875,-137.0
451,1695809864280,0.4140625,1.0859375,-0.38085938,4.5625,-58.4375,18.71875,0.0,0.0,0.0
452,1695809864309,0.22070312,1.140625,-0.3828125,8.53125,-26.625,23.1875,0.0,0.0,0.0
453,1695809864370,0.2265625,1.0332031,-0.37304688,4.875,-41.53125,1.375,0.0,0.0,0.0
454,1695809864405,0.21191406,1.1367188,-0.3095703,2.5,-46.53125,3.9375,0.0,0.0,0.0
455,1695809864429,0.3076172,1.1582031,-0.4296875,-1.78125,-38.15625,1.625,0.0,0.0,0.0
456,1695809864462,0.20117188,0.79785156,-0.36523438,5.25,-9.4375,9.4375,0.0,0.0,0.0
457,1695809864521,0.37304688,0.6044922,-0.35742188,0.3125,-4.0625,15.375,0.0,0.0,0.0
458,1695809864549,0.31835938,0.4794922,-0.33203125,-15.9375,-17.78125,31.28125,0.0,0.0,0.0
459,1695809864581,0.22949219,0.2890625,-0.20214844,-17.625,-36.46875,21.34375,0.0,0.0,0.0
460,1695809864639,0.36328125,1.1044922,-0.22753906,25.375,-76.375,27.9375,0.0,0.0,0.0
461,1695809864667,0.29492188,1.4384766,-0.4951172,26.1875,-44.09375,15.71875,0.0,0.0,0.0
462,1695809864699,0.5625,0.8564453,-0.28808594,-14.46875,11.21875,13.40625,9.125,31.8125,-145.6875
463,1695809864762,0.41015625,0.9423828,-0.17382812,2.625,-10.34375,15.0625,0.0,0.0,0.0
464,1695809864791,0.5126953,1.1044922,-0.24023438,-12.75,21.34375,6.03125,0.0,0.0,0.0
465,1695809864820,0.4970703,0.953125,-0.31347656,-21.65625,10.90625,-3.3125,0.0,0.0,0.0
466,1695809864880,0.5029297,0.7714844,-0.23144531,-26.71875,-11.9375,-1.78125,0.0,0.0,0.0
467,1695809864911,0.40625,0.8828125,-0.16601562,-45.34375,-10.65625,-4.65625,0.0,0.0,0.0
468,1695809864942,0.4345703,0.9199219,-0.1953125,-48.46875,-16.1875,-7.28125,0.0,0.0,0.0
469,1695809865002,0.46289062,0.8701172,-0.15917969,-52.25,-20.90625,-4.53125,0.0,0.0,0.0
470,1695809865030,0.44433594,0.8925781,-0.14746094,-45.96875,-28.84375,-2.03125,0.0,0.0,0.0
471,1695809865058,0.3984375,0.91796875,-0.13378906,-42.65625,-33.59375,-1.3125,0.0,0.0,0.0
472,1695809865120,0.3154297,0.8388672,-0.18945312,-33.03125,-38.78125,-4.0,0.0,0.0,0.0
473,1695809865152,0.34472656,0.79589844,-0.19238281,-10.5625,-34.5625,-5.9375,0.0,0.0,0.0
474,1695809865179,0.31640625,0.6738281,-0.33984375,-6.90625,-35.84375,-13.8125,0.0,0.0,0.0
475,1695809865240,0.22558594,0.8535156,-0.034179688,1.78125,-31.8125,-5.15625,7.1875,33.8125,-140.0
476,1695809865270,0.3720703,1.1806641,-0.20410156,-28.375,-34.25,4.96875,0.0,0.0,0.0
477,1695809865301,0.37597656,1.2089844,-0.15136719,-26.0625,-38.53125,-2.59375,0.0,0.0,0.0
478,1695809865361,0.32421875,1.0908203,-0.2421875,-6.84375,-52.5,1.9375,0.0,0.0,0.0
479,1695809865391,0.23828125,1.0273438,-0.20410156,0.96875,-39.03125,0.03125,0.0,0.0,0.0
480,1695809865420,0.2548828,0.9785156,-0.19726562,-13.1875,-44.6875,-3.8125,0.0,0.0,0.0
481,1695809865480,0.26953125,1.1337891,-0.22363281,4.40625,-50.3125,-1.78125,0.0,0.0,0.0
482,1695809865512,0.08984375,0.95703125,-0.140625,23.1875,-32.5,-9.1875,0.0,0.0,0.0
483,1695809865540,0.20996094,0.8183594,-0.22265625,28.8125,-12.0,-7.65625,0.0,0.0,0.0
484,1695809865599,0.32910156,0.5253906,-0.25390625,13.125,15.0625,14.0625,0.0,0.0,0.0
485,1695809865632,0.23828125,0.4091797,-0.35839844,-11.78125,-8.09375,20.5,0.0,0.0,0.0
486,1695809865660,0.33496094,0.22851562,-0.56152344,-11.09375,-45.5,25.125,0.0,0.0,0.0
487,1695809865718,0.060546875,1.4208984,-0.0009765625,93.875,-71.5625,84.375,6.875,34.375,-146.3125
488,1695809865749,0.060546875,0.52441406,-0.39453125,63.59375,-40.90625,14.3125,0.0,0.0,0.0
489,1695809865780,0.6826172,0.90527344,-0.29492188,-16.40625,41.59375,20.4375,0.0,0.0,0.0
490,1695809865841,0.32128906,0.8417969,-0.12792969,-27.09375,-21.9375,23.40625,0.0,0.0,0.0
491,1695809865870,0.54003906,1.1025391,-0.24121094,-35.71875,-12.28125,9.875,0.0,0.0,0.0
492,1695809865900,0.30273438,0.8886719,-0.26660156,-40.09375,-3.4375,-4.96875,0.0,0.0,0.0
493,1695809865963,0.41503906,0.7050781,-0.25585938,-30.8125,-9.1875,7.5625,0.0,0.0,0.0
494,1695809865990,0.45214844,0.80078125,-0.21484375,-24.40625,-6.625,11.9375,0.0,0.0,0.0
495,1695809866023,0.4267578,0.9121094,-0.25097656,-15.625,-21.875,10.78125,0.0,0.0,0.0
496,1695809866079,0.45410156,0.9111328,-0.15429688,-15.0625,-35.4375,15.0625,0.0,0.0,0.0
497,1695809866109,0.46289062,0.8955078,-0.15527344,-27.21875,-29.9375,13.96875,0.0,0.0,0.0
498,1695809866141,0.46972656,0.93847656,-0.21777344,-43.09375,-46.96875,6.375,0.0,0.0,0.0
499,1695809866202,0.45996094,0.9316406,-0.19628906,-35.34375,-37.8125,7.1875,0.0,0.0,0.0
500,1695809866229,0.52734375,0.8222656,-0.17382812,-39.1875,-39.34375,7.84375,8.5625,30.0625,-147.8125
501,1695809866259,0.37597656,0.8457031,-0.11328125,-48.53125,-48.3125,0.65625,0.0,0.0,0.0
502,1695809866320,0.1796875,1.0097656,-0.091796875,-45.84375,-39.34375,-12.59375,0.0,0.0,0.0
503,1695809866348,0.14355469,0.9033203,-0.22363281,-14.28125,-0.03125,-22.125,0.0,0.0,0.0
504,1695809866380,0.24902344,0.9277344,-0.041992188,37.0625,32.15625,-12.21875,0.0,0.0,0.0
505,1695809866437,0.53125,0.8183594,-0.24707031,28.875,26.84375,6.375,0.0,0.0,0.0
506,1695809866466,0.59472656,0.6357422,-0.18066406,29.71875,6.09375,12.90625,0.0,0.0,0.0
507,1695809866498,0.45898438,1.1279297,-0.11621094,-6.34375,-69.46875,14.0625,0.0,0.0,0.0
508,1695809866556,0.35351562,1.0751953,-0.4609375,10.5,-44.15625,9.1875,0.0,0.0,0.0
509,1695809866588,0.22851562,0.9980469,-0.24511719,31.0,-59.09375,0.34375,0.0,0.0,0.0
510,1695809866648,0.25976562,1.0058594,-0.234375,6.21875,-49.59375,0.28125,0.0,0.0,0.0
511,1695809866676,0.3515625,1.0292969,-0.22363281,15.375,-22.125,-1.3125,0.0,0.0,0.0
512,1695809866707,0.16601562,0.8964844,-0.3388672,18.125,-18.03125,-7.59375,6.3125,30.625,-156.0625
513,1695809866736,0.18847656,0.7392578,-0.3408203,22.875,8.21875,-6.0,0.0,0.0,0.0
514,1695809866796,0.2841797,0.6513672,-0.34277344,5.5625,18.78125,3.03125,0.0,0.0,0.0
515,1695809866828,0.3564453,0.5996094,-0.3642578,-11.15625,-0.9375,7.4375,0.0,0.0,0.0
516,1695809866860,0.31152344,0.5673828,-0.4560547,-9.78125,-21.6875,12.3125,0.0,0.0,0.0
517,1695809866922,0.29003906,0.9560547,-0.34570312,-7.5625,-16.4375,37.875,0.0,0.0,0.0
518,1695809866947,0.3515625,1.2705078,-0.19824219,-9.78125,-20.21875,21.15625,0.0,0.0,0.0
519,1695809866978,0.35253906,0.9091797,-0.32714844,-3.125,-2.28125,7.5,0.0,0.0,0.0
520,1695809867037,0.39746094,0.9375,-0.2939453,-9.78125,16.34375,15.59375,0.0,0.0,0.0
521,1695809867068,0.3955078,0.8623047,-0.23828125,-28.75,-10.15625,2.78125,0.0,0.0,0.0
522,1695809867097,0.4453125,0.8828125,-0.19726562,-22.53125,-11.875,-1.5625,0.0,0.0,0.0
523,1695809867158,0.359375,0.83984375,-0.24023438,-25.28125,-16.625,5.78125,0.0,0.0,0.0
524,1695809867188,0.35058594,0.8925781,-0.25390625,-15.75,-8.875,12.625,0.0,0.0,0.0
525,1695809867219,0.36132812,0.9189453,-0.20703125,-14.65625,4.6875,13.09375,7.9375,29.125,-154.875
526,1695809867279,0.40527344,0.9033203,-0.15820312,-18.125,-4.125,2.3125,0.0,0.0,0.0
527,1695809867309,0.44140625,0.9160156,-0.20898438,-7.15625,-10.21875,4.875,0.0,0.0,0.0
528,1695809867340,0.46289062,0.8847656,-0.18945312,-6.78125,-4.40625,2.0,0.0,0.0,0.0
529,1695809867401,0.4423828,0.9404297,-0.17480469,-17.53125,-6.25,1.5625,0.0,0.0,0.0
530,1695809867431,0.47753906,0.89746094,-0.14257812,-22.53125,-20.34375,-1.0625,0.0,0.0,0.0
531,1695809867460,0.39746094,0.8652344,-0.16796875,-26.1875,-22.90625,-2.84375,0.0,0.0,0.0
532,1695809867520,0.33496094,0.8808594,-0.21777344,-19.90625,-15.15625,1.625,0.0,0.0,0.0
533,1695809867551,0.39160156,1.0058594,-0.21191406,-7.8125,2.28125,3.34375,0.0,0.0,0.0
534,1695809867578,0.29492188,0.8857422,-0.20605469,-0.125,22.5625,-1.96875,0.0,0.0,0.0
535,1695809867640,0.3330078,0.76171875,-0.27246094,20.25,37.625,-10.59375,0.0,0.0,0.0
536,1695809867672,0.4423828,0.5205078,-0.25585938,36.0625,35.8125,-18.21875,0.0,0.0,0.0
537,1695809867698,0.44335938,1.046875,-0.23144531,41.875,31.40625,0.71875,8.6875,31.5625,-152.875
538,1695809867757,0.7216797,0.95703125,-0.2841797,24.0,6.1875,5.15625,0.0,0.0,0.0
539,1695809867790,0.3720703,1.0068359,-0.27734375,14.59375,-42.1875,-1.1875,0.0,0.0,0.0
540,1695809867819,0.27539062,0.9472656,-0.3125,18.125,-55.9375,-7.78125,0.0,0.0,0.0
541,1695809867880,0.30566406,1.0322266,-0.3154297,13.84375,-26.15625,-6.75,0.0,0.0,0.0
542,1695809867910,0.19824219,1.0947266,-0.2685547,18.875,-18.40625,-8.4375,0.0,0.0,0.0
543,1695809867940,0.41601562,1.0097656,-0.38476562,17.75,-8.09375,-13.4375,0.0,0.0,0.0
544,1695809868001,0.24414062,0.75097656,-0.31347656,24.15625,-12.59375,-7.09375,0.0,0.0,0.0
545,1695809868029,0.23046875,0.70410156,-0.43359375,1.21875,-4.65625,-4.0,0.0,0.0,0.0
546,1695809868060,0.26171875,0.5078125,-0.390625,-31.25,19.75,10.59375,0.0,0.0,0.0
547,1695809868119,0.31054688,0.40625,-0.3701172,-36.4375,2.53125,0.15625,0.0,0.0,0.0
548,1695809868151,0.34765625,0.7890625,-0.390625,-21.125,-24.0,23.90625,0.0,0.0,0.0
549,1695809868180,0.34570312,1.53125,-0.33398438,-13.25,-31.34375,9.75,0.0,0.0,0.0
550,1695809868244,0.703125,0.9091797,-0.08496094,22.53125,-15.53125,10.71875,6.4375,29.125,-158.75
551,1695809868270,0.31933594,0.8330078,-0.2763672,-26.375,-30.46875,17.25,0.0,0.0,0.0
552,1695809868301,0.50683594,0.9941406,-0.15527344,-26.0,-28.09375,18.46875,0.0,0.0,0.0
553,1695809868361,0.36816406,1.0136719,-0.18847656,-36.375,-25.28125,9.3125,0.0,0.0,0.0
554,1695809868390,0.37402344,0.89746094,-0.25683594,-35.71875,-21.03125,5.90625,0.0,0.0,0.0
555,1695809868420,0.421875,0.90234375,-0.22363281,-37.65625,-16.0625,5.40625,0.0,0.0,0.0
556,1695809868481,0.45703125,0.9873047,-0.17773438,-41.03125,-9.4375,4.1875,0.0,0.0,0.0
557,1695809868510,0.41015625,0.96875,-0.16699219,-35.71875,-12.71875,-0.75,0.0,0.0,0.0
558,1695809868541,0.3515625,0.8808594,-0.19628906,-20.9375,-5.03125,1.625,0.0,0.0,0.0
559,1695809868601,0.39746094,0.828125,-0.21191406,-13.625,7.1875,0.28125,0.0,0.0,0.0
560,1695809868628,0.3671875,0.7480469,-0.17382812,-2.375,12.125,0.15625,0.0,0.0,0.0
561,1695809868658,0.3203125,0.69921875,-0.20410156,15.125,2.59375,1.6875,0.0,0.0,0.0
562,1695809868718,0.3232422,0.6484375,-0.234375,33.875,8.28125,0.03125,6.3125,33.1875,-156.0625
563,1695809868747,0.35546875,0.9785156,-0.3564453,33.25,-15.96875,6.6875,0.0,0.0,0.0
564,1695809868781,0.51171875,1.1123047,-0.28808594,40.09375,-31.59375,5.59375,0.0,0.0,0.0
565,1695809868840,0.30859375,1.0537109,-0.17675781,3.40625,-48.90625,1.1875,0.0,0.0,0.0
566,1695809868871,0.37109375,1.1699219,-0.34765625,-7.15625,-50.5625,-3.8125,0.0,0.0,0.0
567,1695809868932,0.2783203,1.2226562,-0.37304688,24.0625,-29.5,0.09375,0.0,0.0,0.0
568,1695809868962,0.21386719,1.0380859,-0.29003906,27.21875,-22.65625,-2.84375,0.0,0.0,0.0
569,1695809868990,0.27734375,0.7939453,-0.3388672,30.8125,1.25,-2.46875,0.0,0.0,0.0
570,1695809869022,0.29003906,0.58496094,-0.33984375,4.6875,-2.34375,2.53125,0.0,0.0,0.0
571,1695809869078,0.26757812,0.29589844,-0.41308594,-26.6875,-6.8125,11.34375,0.0,0.0,0.0
572,1695809869110,0.4033203,0.25976562,-0.18457031,-40.65625,-4.59375,8.28125,0.0,0.0,0.0
573,1695809869141,0.3408203,0.7998047,-0.29785156,-39.25,-39.625,39.90625,0.0,0.0,0.0
574,1695809869200,0.5214844,1.8310547,-0.40234375,1.84375,-102.0,17.625,0.0,0.0,0.0
575,1695809869230,0.36328125,0.9169922,-0.15722656,5.6875,-12.90625,15.375,2.125,28.8125,-164.75
576,1695809869264,0.3154297,1.0253906,-0.22265625,-17.59375,-15.59375,10.40625,0.0,0.0,0.0
577,1695809869319,0.41503906,1.0751953,-0.18847656,-26.25,5.40625,8.46875,0.0,0.0,0.0
578,1695809869351,0.5175781,0.92285156,-0.3466797,-16.1875,24.15625,-2.84375,0.0,0.0,0.0
579,1695809869384,0.52734375,0.73046875,-0.2861328,-22.03125,15.40625,-1.4375,0.0,0.0,0.0
580,1695809869440,0.53027344,0.7861328,-0.22363281,-31.5625,-3.0,0.65625,0.0,0.0,0.0
581,1695809869468,0.4453125,0.99609375,-0.19726562,-39.71875,-20.71875,0.78125,0.0,0.0,0.0
582,1695809869498,0.390625,0.95214844,-0.19335938,-32.46875,-14.3125,-1.4375,0.0,0.0,0.0
583,1695809869561,0.35742188,0.8964844,-0.1796875,-32.40625,-4.1875,-2.53125,0.0,0.0,0.0
584,1695809869595,0.38476562,0.9277344,-0.19042969,-35.21875,3.75,-2.65625,0.0,0.0,0.0
585,1695809869621,0.3388672,0.9482422,-0.12695312,-38.5625,19.09375,-2.28125,0.0,0.0,0.0
586,1695809869712,0.2763672,0.9160156,-0.11230469,-30.21875,23.15625,-12.40625,0.0,0.0,0.0
587,1695809869715,0.20019531,0.8691406,-0.08886719,-14.78125,42.9375,-18.03125,4.9375,34.25,-157.125
588,1695809869738,0.16308594,0.7685547,-0.13964844,16.125,73.34375,-13.75,0.0,0.0,0.0
589,1695809869798,0.29882812,0.8457031,-0.068359375,47.96875,89.8125,0.03125,0.0,0.0,0.0
590,1695809869830,0.7607422,0.95410156,-0.09863281,35.21875,61.375,12.25,0.0,0.0,0.0
591,1695809869860,0.5214844,1.1005859,-0.2685547,11.71875,-19.8125,8.78125,0.0,0.0,0.0
592,1695809869923,0.54785156,0.97558594,-0.30566406,-4.03125,-58.8125,-13.15625,0.0,0.0,0.0
593,1695809869951,0.07128906,0.9638672,-0.2607422,11.40625,-45.0625,-8.875,0.0,0.0,0.0
594,1695809869980,0.18164062,1.1738281,-0.19921875,31.75,-21.9375,-15.46875,0.0,0.0,0.0
595,1695809870045,0.296875,1.0166016,-0.21777344,39.96875,12.125,-10.53125,0.0,0.0,0.0
596,1695809870072,0.43359375,0.73046875,-0.28027344,25.375,12.4375,-11.5625,0.0,0.0,0.0
597,1695809870102,0.4814453,0.57910156,-0.30078125,6.65625,-9.96875,-2.78125,0.0,0.0,0.0
598,1695809870160,0.26367188,0.30273438,-0.26171875,-4.875,-24.5,4.96875,0.0,0.0,0.0
599,1695809870193,0.15332031,0.3642578,-0.22265625,-8.84375,-42.375,12.90625,0.0,0.0,0.0
600,1695809870220,0.6816406,2.0136719,-0.3095703,52.1875,-79.125,11.09375,4.5,31.0625,-161.3125
601,1695809870281,0.2734375,0.8857422,0.072265625,20.5,-15.90625,-1.25,0.0,0.0,0.0
602,1695809870312,0.27734375,1.1083984,-0.17871094,-24.59375,-21.75,2.90625,0.0,0.0,0.0
603,1695809870343,0.42773438,1.0429688,-0.083984375,-22.71875,-16.8125,2.46875,0.0,0.0,0.0
604,1695809870402,0.39453125,0.93847656,-0.21679688,-45.21875,6.9375,-0.6875,0.0,0.0,0.0
605,1695809870433,0.28808594,0.7373047,-0.23632812,-46.8125,4.75,3.46875,0.0,0.0,0.0
606,1695809870461,0.2890625,0.7324219,-0.22070312,-42.46875,-1.5625,-7.71875,0.0,0.0,0.0
607,1695809870522,0.25097656,0.88964844,-0.31347656,-8.59375,16.875,-15.59375,0.0,0.0,0.0
608,1695809870551,0.1875,1.2255859,-0.15429688,38.34375,33.1875,2.3125,0.0,0.0,0.0
609,1695809870580,0.51171875,0.76464844,-0.18457031,22.34375,27.5625,8.9375,0.0,0.0,0.0
610,1695809870641,0.2626953,0.89160156,-0.19824219,20.4375,19.5,3.21875,0.0,0.0,0.0
611,1695809870670,0.35839844,0.8955078,-0.23046875,6.53125,5.59375,2.34375,0.0,0.0,0.0
612,1695809870700,0.31054688,0.96972656,-0.31640625,-3.78125,-12.78125,-3.125,4.1875,33.1875,-160.25
613,1695809870762,0.2548828,0.9980469,-0.2607422,-5.75,8.09375,-2.71875,0.0,0.0,0.0
614,1695809870792,0.22851562,0.8154297,-0.125,-15.5625,8.28125,-4.46875,0.0,0.0,0.0
615,1695809870820,0.24902344,0.89453125,-0.19433594,-30.9375,17.375,-6.25,0.0,0.0,0.0
616,1695809870879,0.23925781,1.046875,-0.20605469,-8.125,11.9375,2.40625,0.0,0.0,0.0
617,1695809870909,0.21777344,1.1279297,-0.20117188,19.96875,7.0,6.5625,0.0,0.0,0.0
618,1695809870941,0.27539062,0.92089844,-0.14550781,38.5625,-3.3125,0.28125,0.0,0.0,0.0
619,1695809871002,0.31445312,1.0546875,-0.119140625,36.3125,-27.0,-6.90625,0.0,0.0,0.0
620,1695809871031,0.28515625,1.1083984,-0.26953125,55.90625,-16.25,-4.0,0.0,0.0,0.0
621,1695809871060,0.33496094,0.7861328,-0.32226562,32.15625,-8.9375,-22.46875,0.0,0.0,0.0
622,1695809871117,0.37695312,0.3935547,-0.4375,5.125,34.65625,4.5625,0.0,0.0,0.0
623,1695809871147,0.0126953125,0.2578125,-0.40625,-13.71875,29.28125,10.84375,0.0,0.0,0.0
624,1695809871210,-0.046875,0.8486328,-0.27929688,11.28125,-19.125,7.96875,0.0,0.0,0.0
625,1695809871240,0.8251953,1.7607422,-0.20605469,69.40625,-37.125,-7.90625,2.5625,34.0625,-163.5625
626,1695809871270,0.47070312,0.8955078,-0.022460938,35.59375,89.5,10.53125,0.0,0.0,0.0
627,1695809871301,0.61816406,0.92578125,-0.4794922,-11.84375,12.5625,2.71875,0.0,0.0,0.0
628,1695809871361,0.33789062,0.9003906,-0.08691406,-2.8125,5.65625,15.59375,0.0,0.0,0.0
629,1695809871388,0.48535156,0.9736328,-0.19433594,-24.96875,27.0,-1.90625,0.0,0.0,0.0
630,1695809871418,0.4794922,0.92871094,-0.21777344,-27.46875,-12.96875,-5.09375,0.0,0.0,0.0
631,1695809871478,0.41015625,0.88671875,-0.15429688,-37.0,-30.25,-2.59375,0.0,0.0,0.0
632,1695809871511,0.453125,0.89453125,-0.23242188,-39.5,-17.0625,2.25,0.0,0.0,0.0
633,1695809871538,0.421875,0.8798828,-0.14941406,-42.40625,-20.90625,4.375,0.0,0.0,0.0
634,1695809871597,0.40820312,0.88964844,-0.14160156,-44.9375,-21.6875,4.1875,0.0,0.0,0.0
635,1695809871627,0.37109375,0.8300781,-0.11425781,-36.875,-21.3125,3.46875,0.0,0.0,0.0
636,1695809871657,0.24707031,0.8183594,-0.25,-24.78125,-20.15625,-0.75,0.0,0.0,0.0
637,1695809871717,0.22363281,0.7871094,-0.27441406,3.46875,3.28125,-6.5625,2.5625,33.0625,-160.125
638,1695809871749,0.22753906,0.6972656,-0.09375,30.28125,20.1875,-10.09375,0.0,0.0,0.0
639,1695809871778,0.0703125,1.2216797,-0.18554688,51.5625,13.90625,9.9375,0.0,0.0,0.0
640,1695809871839,0.5283203,1.0195312,-0.20410156,31.3125,28.65625,2.78125,0.0,0.0,0.0
641,1695809871868,0.52734375,0.92871094,-0.18359375,-9.71875,-4.96875,-7.03125,0.0,0.0,0.0
642,1695809871898,0.3876953,1.0380859,-0.2529297,-22.46875,-44.9375,-6.625,0.0,0.0,0.0
643,1695809871959,0.296875,1.0722656,-0.29589844,-23.125,-39.6875,-8.1875,0.0,0.0,0.0
644,1695809871990,0.2626953,1.0283203,-0.26757812,-15.375,-30.34375,-6.1875,0.0,0.0,0.0
645,1695809872019,0.24121094,0.8730469,-0.16601562,-10.125,-27.5625,-9.1875,0.0,0.0,0.0
646,1695809872081,0.26660156,0.99902344,-0.23339844,-0.375,-35.96875,-11.3125,0.0,0.0,0.0
647,1695809872108,0.2265625,0.9921875,-0.234375,21.53125,-26.21875,-7.09375,0.0,0.0,0.0
648,1695809872139,0.24707031,0.8564453,-0.27539062,30.40625,0.59375,-0.4375,0.0,0.0,0.0
649,1695809872203,0.26660156,0.7636719,-0.32714844,19.71875,8.53125,9.4375,0.0,0.0,0.0
650,1695809872230,0.3330078,0.6425781,-0.3203125,6.96875,4.4375,15.78125,-2.6875,30.0625,-163.6875
651,1695809872261,0.36816406,0.5527344,-0.42089844,-2.125,-15.28125,14.4375,0.0,0.0,0.0
652,1695809872320,0.5048828,0.2578125,-0.45507812,-23.0625,-43.84375,26.96875,0.0,0.0,0.0
653,1695809872351,0.23339844,0.7675781,-0.09375,-17.09375,-75.78125,48.3125,0.0,0.0,0.0
654,1695809872383,0.39160156,2.0136719,-0.30859375,19.53125,-121.65625,10.0625,0.0,0.0,0.0
655,1695809872441,0.35742188,0.70703125,-0.10449219,13.1875,31.21875,17.125,0.0,0.0,0.0
656,1695809872470,0.28320312,0.88964844,-0.119140625,-14.34375,17.3125,4.5,0.0,0.0,0.0
657,1695809872501,0.43652344,1.0673828,-0.14941406,-27.40625,17.625,13.28125,0.0,0.0,0.0
658,1695809872561,0.453125,0.8857422,-0.25585938,-29.0625,16.75,-9.3125,0.0,0.0,0.0
659,1695809872590,0.4580078,0.78808594,-0.21972656,-9.59375,7.375,0.34375,0.0,0.0,0.0
660,1695809872619,0.4296875,0.8339844,-0.1875,-18.625,-4.0,6.15625,0.0,0.0,0.0
661,1695809872680,0.4326172,0.9453125,-0.19140625,-28.375,-12.15625,-0.9375,0.0,0.0,0.0
662,1695809872711,0.41015625,0.92871094,-0.15332031,-21.3125,-27.5625,-4.125,-2.875,29.75,-162.5
663,1695809872738,0.41992188,0.8847656,-0.16503906,-25.75,-21.8125,-2.46875,0.0,0.0,0.0
664,1695809872803,0.43359375,0.9160156,-0.19824219,-20.5,-27.71875,-1.90625,0.0,0.0,0.0
665,1695809872830,0.43164062,0.9375,-0.087890625,-28.125,-27.6875,-4.28125,0.0,0.0,0.0
666,1695809872860,0.3623047,0.9453125,-0.09472656,-37.65625,-38.34375,-6.0625,0.0,0.0,0.0
667,1695809872918,0.34375,1.0097656,-0.068359375,-33.8125,-32.375,-5.5,0.0,0.0,0.0
668,1695809872950,0.3798828,0.9248047,-0.08496094,-29.84375,-29.125,-7.15625,0.0,0.0,0.0
669,1695809872981,0.37304688,0.8691406,-0.11035156,-20.5625,-19.90625,-3.875,0.0,0.0,0.0
670,1695809873040,0.3154297,0.7216797,-0.28320312,-17.15625,-11.375,1.25,0.0,0.0,0.0
671,1695809873069,0.3125,0.66796875,-0.24121094,3.90625,13.09375,2.96875,0.0,0.0,0.0
672,1695809873101,0.14355469,0.8808594,-0.09863281,24.46875,14.875,6.6875,0.0,0.0,0.0
673,1695809873160,0.40625,1.1230469,-0.35058594,2.375,26.03125,9.625,0.0,0.0,0.0
674,1695809873189,0.38867188,1.0615234,-0.15039062,30.46875,0.71875,1.0625,0.0,0.0,0.0
675,1695809873252,0.37304688,1.0253906,-0.1875,3.96875,-9.59375,-8.3125,-5.5625,31.375,-160.25
676,1695809873279,0.328125,1.0849609,-0.22753906,4.15625,-21.75,-6.84375,0.0,0.0,0.0
677,1695809873312,0.2861328,1.1113281,-0.20996094,0.5,-49.09375,-8.5,0.0,0.0,0.0
678,1695809873339,0.2548828,1.0517578,-0.2529297,21.46875,-11.625,-0.5,0.0,0.0,0.0
679,1695809873400,0.25195312,0.8779297,-0.22265625,15.875,-15.90625,0.15625,0.0,0.0,0.0
680,1695809873430,0.25,0.79296875,-0.3125,22.21875,-1.125,12.125,0.0,0.0,0.0
681,1695809873491,0.26953125,0.75878906,-0.28320312,19.21875,11.5,18.59375,0.0,0.0,0.0
682,1695809873520,0.3486328,0.63183594,-0.29589844,12.6875,-6.1875,16.53125,0.0,0.0,0.0
683,1695809873550,0.46777344,0.4814453,-0.33984375,-1.65625,-36.15625,11.9375,0.0,0.0,0.0
684,1695809873582,0.31152344,0.296875,-0.26953125,-15.8125,-37.125,21.84375,0.0,0.0,0.0
685,1695809873642,0.28222656,1.5273438,-0.10253906,15.125,-63.75,56.9375,0.0,0.0,0.0
686,1695809873671,0.033203125,1.0917969,-0.12890625,14.09375,-19.8125,13.78125,0.0,0.0,0.0
687,1695809873732,0.28222656,0.89453125,-0.36621094,22.09375,-22.65625,-20.84375,-7.9375,28.8125,-165.5
688,1695809873759,0.47070312,0.7841797,-0.049804688,8.59375,52.71875,13.40625,0.0,0.0,0.0
689,1695809873790,0.61621094,1.1230469,-0.111328125,-47.65625,6.375,-9.96875,0.0,0.0,0.0
690,1695809873822,0.3642578,0.9736328,-0.25,-40.90625,-54.03125,-24.5625,0.0,0.0,0.0
691,1695809873878,0.38378906,0.78222656,-0.21582031,-41.4375,-20.65625,-2.34375,0.0,0.0,0.0
692,1695809873909,0.43359375,0.90625,-0.16503906,-41.625,-4.96875,2.71875,0.0,0.0,0.0
693,1695809873939,0.4404297,0.88183594,-0.18847656,-53.78125,-50.4375,-3.1875,0.0,0.0,0.0
694,1695809874000,0.4423828,0.828125,-0.09765625,-53.34375,-47.09375,2.71875,0.0,0.0,0.0
695,1695809874031,0.38964844,0.91796875,-0.0048828125,-47.65625,-61.96875,6.03125,0.0,0.0,0.0
696,1695809874060,0.18066406,0.9248047,-0.0859375,-42.65625,-49.78125,3.21875,0.0,0.0,0.0
697,1695809874119,0.17480469,0.88671875,-0.17480469,-31.625,-14.4375,0.96875,0.0,0.0,0.0
698,1695809874150,0.19140625,0.8154297,-0.14941406,0.3125,-2.9375,-2.40625,0.0,0.0,0.0
699,1695809874182,0.16113281,0.7451172,-0.107421875,24.53125,27.75,6.03125,0.0,0.0,0.0
700,1695809874239,0.4873047,1.359375,-0.040039062,21.0,25.625,2.1875,-11.25,36.0625,-157.125
701,1695809874270,0.33496094,1.0458984,-0.029296875,1.71875,4.5,-3.5,0.0,0.0,0.0
702,1695809874302,0.2626953,0.92089844,-0.21875,-14.03125,-0.375,-11.375,0.0,0.0,0.0
703,1695809874365,0.31445312,0.859375,-0.1484375,-3.25,-4.53125,-20.40625,0.0,0.0,0.0
704,1695809874391,0.22363281,0.93066406,-0.15722656,-14.59375,-2.53125,-15.78125,0.0,0.0,0.0
705,1695809874421,0.26464844,0.9091797,-0.14160156,-22.34375,-4.25,-9.96875,0.0,0.0,0.0
706,1695809874481,0.21777344,0.94921875,-0.16308594,-29.84375,-10.875,-3.0625,0.0,0.0,0.0
707,1695809874512,0.19726562,1.1376953,-0.20703125,-16.96875,-14.375,1.0625,0.0,0.0,0.0
708,1695809874542,0.2109375,1.1621094,-0.16601562,27.09375,-15.90625,7.84375,0.0,0.0,0.0
709,1695809874602,0.08203125,1.0390625,-0.013671875,49.5,-10.9375,0.78125,0.0,0.0,0.0
710,1695809874631,0.31347656,1.2353516,-0.14648438,59.15625,-32.96875,-8.625,0.0,0.0,0.0
711,1695809874661,0.16699219,0.96777344,-0.29785156,65.4375,7.3125,-10.09375,0.0,0.0,0.0
712,1695809874724,0.34277344,0.5361328,-0.41210938,40.46875,55.59375,-5.6875,-14.125,33.1875,-158.875
713,1695809874751,0.5058594,0.25390625,-0.47070312,16.53125,57.21875,18.15625,0.0,0.0,0.0
714,1695809874779,0.38378906,0.27539062,-0.29589844,-6.96875,-26.34375,-0.375,0.0,0.0,0.0
715,1695809874840,0.40722656,1.6787109,-0.25585938,46.8125,-115.6875,43.875,0.0,0.0,0.0
716,1695809874872,0.2626953,0.84472656,-0.3173828,47.1875,-12.65625,5.40625,0.0,0.0,0.0
717,1695809874900,0.33496094,0.99609375,-0.14453125,-9.9375,-7.84375,-0.21875,0.0,0.0,0.0
718,1695809874962,0.2998047,1.0654297,-0.20410156,0.96875,4.4375,7.90625,0.0,0.0,0.0
719,1695809874990,0.40527344,0.9580078,-0.23046875,-13.0,28.65625,-1.0625,0.0,0.0,0.0
720,1695809875019,0.40429688,0.8808594,-0.25,-13.84375,9.0,-4.28125,0.0,0.0,0.0
721,1695809875080,0.35546875,0.94140625,-0.17871094,-35.28125,-11.9375,-4.0625,0.0,0.0,0.0
722,1695809875111,0.42382812,1.0625,-0.16015625,-55.125,-14.65625,3.34375,0.0,0.0,0.0
723,1695809875141,0.44433594,0.9238281,-0.24707031,-44.75,-19.3125,9.375,0.0,0.0,0.0
724,1695809875202,0.22070312,0.765625,-0.25390625,-23.375,6.875,22.375,0.0,0.0,0.0
725,1695809875231,0.07421875,0.7373047,-0.33203125,1.90625,33.0,14.25,-13.8125,34.25,-157.875
726,1695809875262,0.1875,0.671875,-0.23925781,74.09375,35.1875,2.0,0.0,0.0,0.0
727,1695809875321,0.32226562,1.0234375,-0.07324219,50.0,19.03125,20.90625,0.0,0.0,0.0
728,1695809875352,0.59472656,1.1103516,-0.2265625,23.9375,-22.3125,-6.375,0.0,0.0,0.0
729,1695809875380,0.3251953,1.1123047,-0.34277344,7.375,-20.15625,-3.3125,0.0,0.0,0.0
730,1695809875437,0.21875,1.0673828,-0.36914062,2.5,-18.5625,-5.5,0.0,0.0,0.0
731,1695809875475,0.22753906,1.0351562,-0.2939453,12.6875,-3.3125,-10.65625,0.0,0.0,0.0
732,1695809875498,0.30664062,0.8642578,-0.2861328,13.625,16.75,-6.96875,0.0,0.0,0.0
733,1695809875561,0.24121094,0.65625,-0.33496094,1.34375,15.53125,-0.8125,0.0,0.0,0.0
734,1695809875590,0.32714844,0.37597656,-0.296875,-18.4375,11.03125,-5.09375,0.0,0.0,0.0
735,1695809875623,0.15234375,0.32128906,-0.33691406,-7.875,-12.09375,1.3125,0.0,0.0,0.0
736,1695809875680,0.5449219,1.796875,-0.34960938,68.71875,-68.1875,53.9375,0.0,0.0,0.0
737,1695809875711,0.17871094,0.8251953,-0.19238281,28.8125,16.53125,9.1875,-12.625,31.375,-162.625
738,1695809875771,0.41210938,0.8574219,-0.390625,-5.0,3.5625,-6.0,0.0,0.0,0.0
739,1695809875802,0.46875,1.0585938,-0.12988281,2.25,17.375,8.65625,0.0,0.0,0.0
740,1695809875829,0.43066406,0.9863281,-0.17578125,-20.3125,23.40625,-9.0625,0.0,0.0,0.0
741,1695809875860,0.40234375,0.8720703,-0.2841797,-8.375,12.125,-16.125,0.0,0.0,0.0
742,1695809875919,0.4892578,0.79003906,-0.23535156,-15.25,12.125,-5.5625,0.0,0.0,0.0
743,1695809875948,0.40429688,0.828125,-0.19726562,-22.34375,6.8125,-1.65625,0.0,0.0,0.0
744,1695809875980,0.40527344,0.98046875,-0.16992188,-24.90625,-16.875,-4.34375,0.0,0.0,0.0
745,1695809876041,0.4140625,0.8876953,-0.22167969,-23.8125,-16.875,1.25,0.0,0.0,0.0
746,1695809876069,0.3408203,0.93359375,-0.12988281,-21.71875,-8.25,0.59375,0.0,0.0,0.0
747,1695809876099,0.29101562,0.95214844,-0.16503906,-21.90625,-7.28125,-1.5,0.0,0.0,0.0
748,1695809876162,0.38378906,0.9248047,-0.12109375,-12.03125,-5.53125,-3.6875,0.0,0.0,0.0
749,1695809876190,0.3701172,0.8779297,-0.1171875,-10.1875,-2.90625,-1.25,0.0,0.0,0.0
750,1695809876252,0.24707031,0.81347656,-0.09277344,-9.59375,9.8125,5.03125,-11.125,33.3125,-159.375
751,1695809876281,0.49316406,0.7363281,-0.11621094,-3.84375,18.59375,-11.875,0.0,0.0,0.0
752,1695809876311,0.109375,0.6455078,-0.22363281,-8.90625,31.84375,-15.84375,0.0,0.0,0.0
753,1695809876372,0.33203125,1.2988281,-0.26367188,15.8125,23.59375,-2.28125,0.0,0.0,0.0
754,1695809876401,0.6826172,1.1640625,-0.3125,11.65625,12.25,-7.09375,0.0,0.0,0.0
755,1695809876430,0.36035156,1.0195312,-0.3798828,-3.59375,-25.40625,-2.21875,0.0,0.0,0.0
756,1695809876491,0.2548828,0.8671875,-0.33203125,-2.5625,-20.90625,-3.25,0.0,0.0,0.0
757,1695809876521,0.3232422,0.9248047,-0.27148438,-16.46875,-46.03125,-6.25,0.0,0.0,0.0
758,1695809876550,0.16210938,0.9375,-0.19726562,-13.375,-46.78125,-4.40625,0.0,0.0,0.0
759,1695809876613,0.21484375,0.93652344,-0.21582031,-10.875,-25.53125,-2.34375,0.0,0.0,0.0
760,1695809876639,0.23730469,0.9765625,-0.27246094,-1.84375,-20.59375,2.78125,0.0,0.0,0.0
761,1695809876670,0.25585938,1.0546875,-0.28222656,12.21875,-24.125,4.75,0.0,0.0,0.0
762,1695809876728,0.2861328,0.9580078,-0.22070312,13.90625,-14.65625,0.96875,-14.25,33.3125,-158.3125
763,1695809876762,0.36328125,0.8154297,-0.26660156,12.625,-13.28125,2.1875,0.0,0.0,0.0
764,1695809876790,0.34765625,0.6533203,-0.3544922,-1.71875,-19.1875,2.25,0.0,0.0,0.0
765,1695809876849,0.4267578,0.43945312,-0.21484375,-6.21875,-24.9375,16.40625,0.0,0.0,0.0
766,1695809876883,0.10839844,0.34765625,-0.18554688,-22.875,-41.78125,40.125,0.0,0.0,0.0
767,1695809876915,0.109375,1.6162109,-0.064453125,11.21875,-69.65625,40.375,0.0,0.0,0.0
768,1695809876971,0.07714844,1.3925781,-0.24511719,-15.1875,-3.4375,-4.71875,0.0,0.0,0.0
769,1695809877001,0.36132812,1.0488281,-0.36914062,1.9375,-9.78125,-32.6875,0.0,0.0,0.0
770,1695809877030,0.37890625,0.7402344,0.018554688,40.03125,24.40625,-8.1875,0.0,0.0,0.0
771,1695809877088,0.5029297,0.95410156,-0.052734375,-11.65625,48.8125,-0.9375,0.0,0.0,0.0
772,1695809877120,0.42089844,0.97753906,-0.20410156,-21.71875,34.09375,-7.59375,0.0,0.0,0.0
773,1695809877151,0.38671875,0.9169922,-0.13867188,-21.5,-2.03125,-10.59375,0.0,0.0,0.0
774,1695809877210,0.4326172,0.8964844,-0.15917969,-17.28125,4.90625,-4.65625,0.0,0.0,0.0
775,1695809877245,0.3642578,0.93652344,-0.111328125,-23.0,26.71875,8.15625,-14.6875,34.375,-157.6875
776,1695809877270,0.47460938,0.9160156,-0.22949219,-27.40625,14.4375,-0.15625,0.0,0.0,0.0
777,1695809877332,0.32226562,0.7421875,-0.23535156,-4.09375,25.3125,2.84375,0.0,0.0,0.0
778,1695809877363,0.15722656,0.5917969,-0.2919922,22.65625,46.3125,0.09375,0.0,0.0,0.0
779,1695809877390,0.29589844,0.7294922,-0.18359375,57.375,55.40625,-3.125,0.0,0.0,0.0
780,1695809877451,0.671875,1.6884766,-0.3076172,31.75,47.15625,54.375,0.0,0.0,0.0
781,1695809877482,0.49804688,0.9140625,-0.3876953,32.03125,-13.75,8.21875,0.0,0.0,0.0
782,1695809877511,0.44335938,0.8798828,-0.21972656,13.5625,-24.3125,10.0,0.0,0.0,0.0
783,1695809877570,0.12597656,0.8310547,-0.17675781,-10.625,-101.09375,-0.875,0.0,0.0,0.0
784,1695809877603,0.13085938,1.1386719,-0.31347656,9.65625,-3.125,-4.40625,0.0,0.0,0.0
785,1695809877630,0.26953125,1.0859375,-0.1484375,9.8125,-7.71875,-15.40625,0.0,0.0,0.0
786,1695809877691,0.328125,0.9082031,-0.29589844,23.8125,-8.4375,-21.5,0.0,0.0,0.0
787,1695809877721,0.18457031,0.6904297,-0.3232422,10.0625,9.0,-16.625,-12.3125,31.0625,-162.625
788,1695809877749,0.4296875,0.5253906,-0.3984375,-13.625,17.125,2.53125,0.0,0.0,0.0
789,1695809877811,0.3466797,0.30078125,-0.24414062,-28.0625,-5.15625,20.5625,0.0,0.0,0.0
790,1695809877840,0.20214844,0.7548828,-0.36621094,-42.0,-46.78125,34.03125,0.0,0.0,0.0
791,1695809877871,0.41015625,1.7421875,-0.044921875,-12.625,-75.59375,21.09375,0.0,0.0,0.0
792,1695809877928,0.10058594,1.0361328,-0.04296875,-4.15625,-6.84375,-5.34375,0.0,0.0,0.0
793,1695809877959,0.24023438,0.96972656,-0.15917969,-16.34375,25.71875,-5.8125,0.0,0.0,0.0
794,1695809877988,0.3544922,0.92578125,-0.09863281,-16.96875,37.28125,-3.875,0.0,0.0,0.0
795,1695809878050,0.4609375,0.8613281,-0.21875,-13.6875,45.21875,-15.21875,0.0,0.0,0.0
796,1695809878081,0.38867188,0.8095703,-0.18554688,3.96875,37.15625,-5.15625,0.0,0.0,0.0
797,1695809878110,0.43847656,0.8017578,-0.20800781,5.3125,26.15625,-2.34375,0.0,0.0,0.0
798,1695809878171,0.51464844,0.9941406,-0.15625,3.40625,28.96875,-1.4375,0.0,0.0,0.0
799,1695809878203,0.3466797,0.90234375,-0.13183594,-4.21875,23.21875,-3.3125,0.0,0.0,0.0
800,1695809878229,0.45898438,0.9160156,-0.19238281,-6.15625,29.75,-6.0625,-10.5,33.9375,-157.875
801,1695809878291,0.38964844,0.9472656,-0.07910156,3.28125,15.84375,-8.125,0.0,0.0,0.0
802,1695809878321,0.52246094,0.97265625,0.013671875,11.46875,19.25,0.96875,0.0,0.0,0.0
803,1695809878349,0.38085938,1.0302734,-0.15136719,-11.28125,4.125,-3.0625,0.0,0.0,0.0
804,1695809878441,0.4248047,0.8828125,-0.10644531,-20.25,10.78125,-4.21875,0.0,0.0,0.0
805,1695809878448,0.24804688,0.91308594,-0.13183594,-29.125,24.34375,-3.3125,0.0,0.0,0.0
806,1695809878469,0.22558594,0.8798828,-0.22460938,-11.96875,49.28125,-6.0625,0.0,0.0,0.0
807,1695809878531,0.234375,0.76464844,-0.3642578,20.8125,63.625,-17.28125,0.0,0.0,0.0
808,1695809878560,0.36914062,0.6201172,-0.20410156,59.75,67.65625,-13.75,0.0,0.0,0.0
809,1695809878590,0.5917969,1.1015625,0.10058594,74.15625,65.46875,21.46875,0.0,0.0,0.0
810,1695809878651,0.48828125,0.8652344,-0.15917969,13.71875,-9.78125,12.1875,0.0,0.0,0.0
811,1695809878682,0.32226562,1.0205078,-0.21582031,20.5625,-37.25,-7.40625,0.0,0.0,0.0
812,1695809878710,0.2578125,1.0595703,-0.19140625,13.0,-35.59375,-8.6875,-6.4375,31.25,-158.3125
813,1695809878772,0.2548828,1.2226562,-0.22753906,19.21875,-14.5,-6.25,0.0,0.0,0.0
814,1695809878801,0.3623047,1.1044922,-0.25585938,6.65625,-14.1875,-11.6875,0.0,0.0,0.0
815,1695809878830,0.2685547,0.96484375,-0.2685547,19.46875,-8.5,-10.75,0.0,0.0,0.0
816,1695809878889,0.25878906,0.93359375,-0.2109375,25.4375,-10.40625,-11.25,0.0,0.0,0.0
817,1695809878920,0.2421875,0.8720703,-0.3046875,18.75,-1.3125,-8.875,0.0,0.0,0.0
818,1695809878949,0.23730469,0.6982422,-0.2607422,3.0,8.28125,-1.84375,0.0,0.0,0.0
819,1695809879011,0.265625,0.6484375,-0.2919922,-11.21875,0.40625,-1.125,0.0,0.0,0.0
820,1695809879042,0.2919922,0.5361328,-0.41992188,-6.15625,-7.03125,9.125,0.0,0.0,0.0
821,1695809879068,0.32617188,0.5986328,-0.3173828,35.21875,-20.90625,36.0625,0.0,0.0,0.0
822,1695809879130,0.31835938,1.6142578,0.0703125,26.4375,-8.625,51.75,0.0,0.0,0.0
823,1695809879160,0.31054688,1.09375,-0.18945312,5.4375,-21.8125,-3.5,0.0,0.0,0.0
824,1695809879189,0.3955078,0.95214844,-0.265625,2.0,11.03125,0.21875,-7.5,29.125,-161.4375
825,1695809879251,0.43554688,0.8652344,-0.14941406,-16.96875,-3.5625,-3.0625,0.0,0.0,0.0
826,1695809879283,0.46484375,0.93847656,-0.21679688,-23.625,11.15625,-4.0,0.0,0.0,0.0
827,1695809879311,0.42382812,0.92578125,-0.19335938,-17.28125,-3.5,-8.9375,0.0,0.0,0.0
828,1695809879370,0.39257812,0.875,-0.20410156,-16.0,-0.4375,-4.0,0.0,0.0,0.0
829,1695809879404,0.43164062,0.9003906,-0.2265625,-18.96875,-2.46875,-2.53125,0.0,0.0,0.0
830,1695809879431,0.47753906,0.9238281,-0.16992188,-23.6875,-5.75,-3.9375,0.0,0.0,0.0
831,1695809879491,0.453125,0.91308594,-0.21386719,-29.125,-8.75,-3.8125,0.0,0.0,0.0
832,1695809879524,0.43652344,0.8720703,-0.21679688,-25.875,-8.5,-4.90625,0.0,0.0,0.0
833,1695809879551,0.26660156,0.91503906,-0.05078125,-26.375,-3.0625,-2.28125,0.0,0.0,0.0
834,1695809879610,0.39746094,1.0195312,-0.0859375,-28.1875,9.125,-8.0625,0.0,0.0,0.0
835,1695809879639,0.41308594,0.86621094,-0.08691406,-18.3125,15.71875,-8.1875,0.0,0.0,0.0
836,1695809879671,0.28027344,0.7402344,-0.09472656,-16.40625,26.34375,-9.0625,0.0,0.0,0.0
837,1695809879730,0.22363281,0.5,-0.21289062,-2.5,45.25,-12.21875,-10.1875,33.1875,-154.6875
838,1695809879763,0.20996094,0.44628906,-0.06542969,14.84375,54.65625,-7.34375,0.0,0.0,0.0
839,1695809879790,0.6542969,2.006836,-0.0078125,0.375,29.6875,31.71875,0.0,0.0,0.0
840,1695809879851,0.25,1.1083984,-0.19433594,12.5,-8.625,14.6875,0.0,0.0,0.0
841,1695809879880,0.30273438,1.1982422,-0.32617188,30.53125,12.3125,-4.15625,0.0,0.0,0.0
842,1695809879909,0.24609375,0.86328125,-0.16796875,44.90625,-24.125,-9.53125,0.0,0.0,0.0
843,1695809879968,0.18457031,0.9355469,-0.234375,22.40625,-2.03125,-7.96875,0.0,0.0,0.0
844,1695809880000,0.33398438,0.9970703,-0.22851562,5.84375,-1.71875,-13.375,0.0,0.0,0.0
845,1695809880028,0.23242188,0.87402344,-0.2607422,-1.78125,-13.6875,-10.21875,0.0,0.0,0.0
846,1695809880088,0.22851562,0.97558594,-0.27929688,15.625,-0.09375,-5.46875,0.0,0.0,0.0
847,1695809880119,0.31933594,1.0478516,-0.24414062,31.5625,-3.8125,3.21875,0.0,0.0,0.0
848,1695809880151,0.19921875,0.89453125,-0.3203125,27.03125,-7.59375,9.125,0.0,0.0,0.0
849,1695809880209,0.3330078,0.6972656,-0.3720703,21.125,-10.875,7.5,-8.875,29.75,-159.8125
850,1695809880241,0.43359375,0.3544922,-0.3486328,5.625,-25.21875,10.34375,0.0,0.0,0.0
851,1695809880271,0.2109375,0.12011719,-0.2685547,-17.59375,-35.53125,14.5,0.0,0.0,0.0
852,1695809880330,0.25976562,1.921875,0.07519531,41.0625,-111.09375,40.875,0.0,0.0,0.0
853,1695809880361,0.296875,0.9609375,-0.2421875,7.9375,15.78125,16.9375,0.0,0.0,0.0
854,1695809880392,0.47265625,0.83496094,-0.4375,19.90625,-19.90625,1.8125,0.0,0.0,0.0
855,1695809880451,0.34960938,0.7207031,-0.038085938,14.34375,11.5625,25.84375,0.0,0.0,0.0
856,1695809880481,0.46289062,1.1376953,-0.20605469,-27.46875,25.0625,1.875,0.0,0.0,0.0
857,1695809880511,0.5341797,0.99316406,-0.3017578,-18.75,-7.90625,-4.28125,0.0,0.0,0.0
858,1695809880571,0.4765625,0.8017578,-0.14355469,-23.5,-5.09375,2.65625,0.0,0.0,0.0
859,1695809880600,0.45214844,0.9082031,-0.18359375,-33.9375,-5.15625,2.125,0.0,0.0,0.0
860,1695809880630,0.3779297,0.9042969,-0.14941406,-27.53125,-9.1875,5.40625,0.0,0.0,0.0
861,1695809880691,0.42578125,0.828125,-0.13769531,-27.15625,-3.0,3.46875,0.0,0.0,0.0
862,1695809880720,0.35839844,0.8261719,-0.14941406,-24.84375,0.21875,-0.875,-9.4375,29.3125,-157.125
863,1695809880752,0.2578125,0.9013672,-0.08691406,-18.6875,11.34375,-10.34375,0.0,0.0,0.0
864,1695809880812,0.3095703,0.9355469,-0.20703125,6.96875,25.5625,-20.71875,0.0,0.0,0.0
865,1695809880841,0.21386719,0.9707031,-0.048828125,38.09375,50.75,-5.6875,0.0,0.0,0.0
866,1695809880871,0.49902344,0.82910156,-0.21679688,41.375,67.84375,11.625,0.0,0.0,0.0
867,1695809880929,0.5703125,0.6699219,-0.19335938,30.21875,17.875,-2.78125,0.0,0.0,0.0
868,1695809880962,0.39257812,0.9355469,-0.3408203,5.6875,-19.6875,1.8125,0.0,0.0,0.0
869,1695809880994,0.28320312,0.96972656,-0.33007812,3.59375,-27.125,-3.8125,0.0,0.0,0.0
870,1695809881052,0.34472656,1.1347656,-0.35351562,-5.5625,-42.3125,-5.21875,0.0,0.0,0.0
871,1695809881081,0.2998047,1.0947266,-0.22167969,-7.375,-41.84375,-4.21875,0.0,0.0,0.0
872,1695809881111,0.23535156,1.1386719,-0.3095703,16.40625,-22.1875,-4.0625,0.0,0.0,0.0
873,1695809881172,0.21191406,1.0253906,-0.31835938,22.71875,-22.59375,-11.5,0.0,0.0,0.0
874,1695809881200,0.21777344,0.8642578,-0.3408203,26.71875,1.5625,-13.6875,-10.5,28.8125,-161.3125
875,1695809881229,0.29296875,0.6894531,-0.35351562,6.78125,20.1875,-1.65625,0.0,0.0,0.0
876,1695809881291,0.3173828,0.5175781,-0.38378906,-13.71875,7.71875,4.0625,0.0,0.0,0.0
877,1695809881322,0.31445312,0.24316406,-0.38085938,-24.78125,-10.75,11.6875,0.0,0.0,0.0
878,1695809881351,0.22851562,0.6953125,-0.10449219,-8.65625,-40.5625,32.375,0.0,0.0,0.0
879,1695809881412,0.2705078,2.0136719,-0.31933594,3.0625,-89.6875,-3.0625,0.0,0.0,0.0
880,1695809881440,0.44140625,1.0976562,-0.24121094,16.59375,29.09375,1.875,0.0,0.0,0.0
881,1695809881469,0.2685547,0.99316406,-0.08886719,2.1875,54.59375,7.84375,0.0,0.0,0.0
882,1695809881533,0.4794922,1.1611328,-0.18652344,-18.25,60.03125,-5.46875,0.0,0.0,0.0
883,1695809881565,0.4736328,0.9003906,-0.21972656,-28.75,49.21875,-22.59375,0.0,0.0,0.0
884,1695809881588,0.41503906,0.85546875,-0.14453125,-30.59375,33.53125,-19.5625,0.0,0.0,0.0
885,1695809881651,0.32910156,0.8417969,-0.1328125,-32.78125,34.78125,-18.34375,0.0,0.0,0.0
886,1695809881681,0.42773438,0.9355469,-0.17675781,-21.4375,45.25,-19.0,0.0,0.0,0.0
887,1695809881711,0.34179688,0.84277344,-0.11328125,-3.1875,50.75,-17.65625,-8.875,31.5625,-155.3125
888,1695809881769,0.3564453,0.80078125,-0.111328125,-2.3125,55.9375,-21.1875,0.0,0.0,0.0
889,1695809881808,0.30664062,0.75390625,-0.11425781,4.40625,59.90625,-23.15625,0.0,0.0,0.0
890,1695809881829,0.3828125,0.78027344,-0.14160156,22.15625,64.84375,-17.96875,0.0,0.0,0.0
891,1695809881890,0.47558594,1.2705078,-0.091796875,6.78125,65.28125,18.90625,0.0,0.0,0.0
892,1695809881921,0.46289062,0.93847656,-0.103515625,8.0,20.1875,-11.3125,0.0,0.0,0.0
893,1695809881951,0.38085938,0.8017578,-0.13183594,-11.21875,-3.125,-13.9375,0.0,0.0,0.0
894,1695809882008,0.3330078,0.8925781,-0.17382812,-19.53125,-27.375,-11.0625,0.0,0.0,0.0
895,1695809882040,0.2685547,1.0820312,-0.27148438,5.0,-14.625,-4.71875,0.0,0.0,0.0
896,1695809882068,0.26464844,0.97265625,-0.18847656,14.53125,-22.375,5.15625,0.0,0.0,0.0
897,1695809882131,0.2998047,0.8847656,-0.14355469,17.8125,-35.53125,6.25,0.0,0.0,0.0
898,1695809882161,0.17089844,1.0351562,-0.19628906,9.53125,-66.84375,1.3125,0.0,0.0,0.0
899,1695809882193,0.22070312,1.1474609,-0.25195312,31.96875,-25.90625,0.28125,-9.3125,29.75,-157.375
