,timestamp,accel_x,accel_y,accel_z,gyro_x,gyro_y,gyro_z,mag_x,mag_y,mag_z
0,1695809541899,0.31933594,0.9248047,-0.11425781,-0.0625,-0.34375,0.28125,0.0,0.0,0.0
1,1695809541928,0.31445312,0.9316406,-0.123046875,-0.125,-0.03125,0.03125,0.0,0.0,0.0
2,1695809541988,0.31152344,0.9160156,-0.12207031,0.375,0.21875,0.03125,0.0,0.0,0.0
3,1695809542019,0.3125,0.92089844,-0.119140625,0.125,0.46875,-0.09375,0.0,0.0,0.0
4,1695809542048,0.3173828,0.9316406,-0.12402344,0.125,0.03125,-0.03125,0.0,0.0,0.0
5,1695809542138,0.31640625,0.92285156,-0.12207031,-0.34375,-0.5,-0.03125,0.0,0.0,0.0
6,1695809542140,0.31445312,0.92871094,-0.12207031,-0.3125,-0.40625,0.21875,0.0,0.0,0.0
7,1695809542169,0.3173828,0.9238281,-0.125,0.3125,-0.15625,0.03125,0.0,0.0,0.0
8,1695809542229,0.31347656,0.9248047,-0.13378906,-0.125,-0.40625,0.15625,-14.125,37.0625,-136.375
9,1695809542261,0.3076172,0.9248047,-0.125,-0.0625,-0.09375,-0.15625,0.0,0.0,0.0
10,1695809542289,0.31445312,0.9345703,-0.13378906,-0.0625,0.09375,0.15625,0.0,0.0,0.0
11,1695809542350,0.3251953,0.92285156,-0.13085938,-0.0625,-0.625,0.03125,0.0,0.0,0.0
12,1695809542379,0.31347656,0.91796875,-0.13183594,-0.78125,-1.84375,0.21875,0.0,0.0,0.0
13,1695809542409,0.31054688,0.9238281,-0.12597656,-0.78125,-1.78125,0.28125,0.0,0.0,0.0
14,1695809542472,0.31152344,0.92871094,-0.12988281,-0.3125,-1.0,0.40625,0.0,0.0,0.0
15,1695809542503,0.31347656,0.9267578,-0.12207031,-0.0625,-1.0625,0.21875,0.0,0.0,0.0
16,1695809542532,0.32421875,0.9248047,-0.12597656,-0.3125,-0.9375,0.28125,0.0,0.0,0.0
17,1695809542590,0.31152344,0.9267578,-0.11425781,-0.71875,-0.4375,0.09375,0.0,0.0,0.0
18,1695809542619,0.32421875,0.9267578,-0.119140625,0.0625,0.28125,0.03125,0.0,0.0,0.0
19,1695809542648,0.3203125,0.93359375,-0.14648438,-0.53125,-0.40625,-0.21875,0.0,0.0,0.0
20,1695809542710,0.3232422,0.9277344,-0.125,-0.40625,-0.625,0.09375,-14.25,36.9375,-136.25
21,1695809542738,0.31933594,0.9267578,-0.12988281,-0.25,-0.8125,-0.03125,0.0,0.0,0.0
22,1695809542771,0.31445312,0.9277344,-0.125,0.25,-0.40625,-0.21875,0.0,0.0,0.0
23,1695809542828,0.30859375,0.9267578,-0.12109375,0.3125,0.34375,-0.15625,0.0,0.0,0.0
24,1695809542888,0.32617188,0.9199219,-0.13085938,0.1875,0.78125,-0.5625,0.0,0.0,0.0
25,1695809542891,0.31933594,0.9345703,-0.12402344,-0.1875,0.59375,-0.34375,0.0,0.0,0.0
26,1695809542948,0.31640625,0.9345703,-0.13378906,0.75,0.21875,-0.21875,0.0,0.0,0.0
27,1695809542978,0.30859375,0.9160156,-0.12792969,1.09375,0.65625,-0.09375,0.0,0.0,0.0
28,1695809543009,0.30859375,0.9375,-0.119140625,0.4375,0.03125,-0.03125,0.0,0.0,0.0
29,1695809543069,0.31152344,0.9267578,-0.123046875,0.5,0.46875,-0.21875,0.0,0.0,0.0
30,1695809543099,0.3125,0.92089844,-0.13769531,0.3125,0.21875,-0.40625,0.0,0.0,0.0
31,1695809543131,0.31347656,0.93359375,-0.1328125,-0.40625,-0.34375,-0.15625,0.0,0.0,0.0
32,1695809543189,0.31054688,0.9267578,-0.12109375,-0.1875,-0.40625,0.21875,0.0,0.0,0.0
33,1695809543219,0.3173828,0.93652344,-0.12597656,0.3125,0.34375,-0.03125,-13.8125,36.8125,-135.375
34,1695809543250,0.3154297,0.9277344,-0.125,0.6875,0.78125,0.03125,0.0,0.0,0.0
35,1695809543310,0.32226562,0.9267578,-0.13378906,0.0,-0.15625,-0.03125,0.0,0.0,0.0
36,1695809543339,0.31054688,0.9326172,-0.12988281,-0.40625,0.34375,-0.21875,0.0,0.0,0.0
37,1695809543373,0.3173828,0.92578125,-0.119140625,0.6875,0.875,-0.03125,0.0,0.0,0.0
38,1695809543432,0.30664062,0.9199219,-0.13085938,0.1875,0.46875,-0.15625,0.0,0.0,0.0
39,1695809543462,0.31933594,0.9199219,-0.12011719,0.0625,0.46875,0.03125,0.0,0.0,0.0
40,1695809543492,0.31640625,0.9277344,-0.13085938,0.125,0.21875,-0.03125,0.0,0.0,0.0
41,1695809543552,0.3173828,0.9189453,-0.12695312,-0.3125,-0.4375,-0.28125,0.0,0.0,0.0
42,1695809543579,0.3173828,0.93066406,-0.12695312,-0.0625,0.34375,-0.09375,0.0,0.0,0.0
43,1695809543611,0.31640625,0.9238281,-0.1171875,0.5,0.09375,0.09375,0.0,0.0,0.0
44,1695809543671,0.31152344,0.9277344,-0.12695312,0.0625,-0.34375,0.03125,0.0,0.0,0.0
45,1695809543701,0.3125,0.9267578,-0.13378906,-0.34375,-0.6875,-0.21875,-12.125,37.25,-135.5
46,1695809543731,0.31640625,0.92578125,-0.13378906,-0.1875,0.09375,-0.09375,0.0,0.0,0.0
47,1695809543790,0.32421875,0.9199219,-0.12988281,-0.0625,0.34375,-0.15625,0.0,0.0,0.0
48,1695809543819,0.30859375,0.92578125,-0.11816406,-0.65625,-0.03125,-0.40625,0.0,0.0,0.0
49,1695809543849,0.3125,0.9296875,-0.12597656,-0.84375,-0.5625,-0.40625,0.0,0.0,0.0
50,1695809543910,0.31152344,0.921875,-0.12792969,-0.34375,0.03125,-0.21875,0.0,0.0,0.0
51,1695809543940,0.31347656,0.9296875,-0.12011719,-0.59375,-0.15625,-0.34375,0.0,0.0,0.0
52,1695809544002,0.31347656,0.9238281,-0.12109375,-0.90625,-0.4375,-0.40625,0.0,0.0,0.0
53,1695809544032,0.3203125,0.92578125,-0.12207031,-1.03125,-0.09375,-0.21875,0.0,0.0,0.0
54,1695809544060,0.31152344,0.92578125,-0.12597656,-0.71875,-0.03125,-0.28125,0.0,0.0,0.0
55,1695809544120,0.32421875,0.93359375,-0.12695312,-0.59375,-0.03125,-0.28125,0.0,0.0,0.0
56,1695809544152,0.3173828,0.92578125,-0.123046875,-0.71875,-0.625,-0.03125,0.0,0.0,0.0
57,1695809544180,0.30566406,0.93359375,-0.12597656,0.0625,0.03125,0.03125,0.0,0.0,0.0
58,1695809544238,0.31640625,0.9316406,-0.119140625,-0.125,-0.75,-0.03125,-13.0625,37.8125,-135.625
59,1695809544271,0.3203125,0.9267578,-0.109375,-0.78125,-1.0,-0.09375,0.0,0.0,0.0
60,1695809544301,0.3154297,0.9277344,-0.12207031,-0.25,-0.625,-0.09375,0.0,0.0,0.0
61,1695809544361,0.3125,0.9345703,-0.11328125,0.125,0.03125,-0.15625,0.0,0.0,0.0
62,1695809544422,0.30859375,0.91796875,-0.12402344,0.25,0.28125,-0.21875,0.0,0.0,0.0
63,1695809544425,0.31640625,0.9189453,-0.12597656,-0.125,0.21875,-0.09375,0.0,0.0,0.0
64,1695809544483,0.31152344,0.92089844,-0.12695312,-0.40625,-0.28125,-0.46875,0.0,0.0,0.0
65,1695809544512,0.3173828,0.921875,-0.123046875,0.1875,0.34375,-0.09375,0.0,0.0,0.0
66,1695809544541,0.31054688,0.9238281,-0.12402344,0.5625,0.21875,-0.03125,0.0,0.0,0.0
67,1695809544600,0.30566406,0.9238281,-0.10546875,0.1875,-0.09375,-0.09375,0.0,0.0,0.0
68,1695809544632,0.3173828,0.92578125,-0.12792969,-0.25,-0.21875,-0.21875,0.0,0.0,0.0
69,1695809544662,0.3154297,0.92285156,-0.11425781,0.1875,0.09375,-0.09375,0.0,0.0,0.0
70,1695809544723,0.31933594,0.9267578,-0.12011719,0.3125,0.15625,-0.15625,-13.375,37.0625,-135.375
71,1695809544753,0.32226562,0.921875,-0.1328125,-0.0625,0.03125,0.03125,0.0,0.0,0.0
72,1695809544781,0.3154297,0.9277344,-0.125,-0.40625,0.09375,-0.03125,0.0,0.0,0.0
73,1695809544846,0.30371094,0.9375,-0.12011719,-0.0625,-0.15625,-0.09375,0.0,0.0,0.0
74,1695809544872,0.31640625,0.921875,-0.12109375,0.25,0.03125,0.03125,0.0,0.0,0.0
75,1695809544902,0.3076172,0.9248047,-0.119140625,-0.84375,-0.875,-0.09375,0.0,0.0,0.0
76,1695809544962,0.31347656,0.9316406,-0.12109375,-0.46875,-0.21875,-0.15625,0.0,0.0,0.0
77,1695809544992,0.3154297,0.9326172,-0.11425781,0.375,0.28125,-0.15625,0.0,0.0,0.0
78,1695809545022,0.31054688,0.9355469,-0.12402344,-0.0625,-0.21875,-0.09375,0.0,0.0,0.0
79,1695809545080,0.30859375,0.92285156,-0.12207031,-0.1875,-0.15625,-0.15625,0.0,0.0,0.0
80,1695809545111,0.31054688,0.92578125,-0.125,-0.0625,-0.21875,-0.21875,0.0,0.0,0.0
81,1695809545171,0.3095703,0.9199219,-0.111328125,0.0625,0.03125,-0.21875,0.0,0.0,0.0
82,1695809545202,0.32421875,0.9199219,-0.119140625,-0.59375,-0.09375,-0.15625,0.0,0.0,0.0
83,1695809545229,0.31640625,0.9296875,-0.11816406,-0.40625,-0.40625,-0.34375,-13.1875,36.9375,-136.5625
84,1695809545260,0.31347656,0.9277344,-0.11035156,0.0,0.28125,0.03125,0.0,0.0,0.0
85,1695809545319,0.31347656,0.93847656,-0.12988281,0.0625,0.21875,0.09375,0.0,0.0,0.0
86,1695809545350,0.3076172,0.9267578,-0.12011719,0.3125,-0.03125,-0.03125,0.0,0.0,0.0
87,1695809545382,0.3095703,0.9277344,-0.12402344,0.25,-0.28125,0.03125,0.0,0.0,0.0
88,1695809545442,0.31445312,0.9375,-0.1171875,0.0,-1.1875,0.03125,0.0,0.0,0.0
89,1695809545470,0.31152344,0.93359375,-0.119140625,0.3125,-0.75,0.21875,0.0,0.0,0.0
90,1695809545500,0.30859375,0.9316406,-0.11621094,0.0625,-0.8125,0.40625,0.0,0.0,0.0
91,1695809545561,0.3076172,0.9189453,-0.11230469,-0.0625,-0.75,-0.03125,0.0,0.0,0.0
92,1695809545589,0.3154297,0.9316406,-0.1328125,0.6875,0.59375,0.15625,0.0,0.0,0.0
93,1695809545621,0.3125,0.9238281,-0.11816406,0.8125,0.59375,-0.03125,0.0,0.0,0.0
94,1695809545679,0.32128906,0.9277344,-0.125,0.1875,0.21875,-0.09375,0.0,0.0,0.0
95,1695809545716,0.32128906,0.92285156,-0.125,-0.46875,0.65625,-0.46875,-13.5,36.9375,-134.875
96,1695809545740,0.31152344,0.92871094,-0.12695312,-0.53125,0.65625,-0.5625,0.0,0.0,0.0
97,1695809545801,0.31152344,0.93066406,-0.11425781,-0.34375,0.28125,-0.5625,0.0,0.0,0.0
98,1695809545831,0.31152344,0.93359375,-0.12402344,-0.34375,0.65625,-0.46875,0.0,0.0,0.0
99,1695809545861,0.32128906,0.9277344,-0.11621094,0.0,0.65625,-0.46875,0.0,0.0,0.0
100,1695809545921,0.3173828,0.9248047,-0.123046875,-0.65625,0.40625,-0.40625,0.0,0.0,0.0
101,1695809545951,0.3154297,0.9248047,-0.11425781,-0.71875,0.09375,-0.6875,0.0,0.0,0.0
102,1695809545978,0.30859375,0.93066406,-0.12109375,-0.96875,0.15625,-0.5625,0.0,0.0,0.0
103,1695809546040,0.30859375,0.9267578,-0.12597656,-0.65625,0.15625,-0.46875,0.0,0.0,0.0
104,1695809546070,0.31640625,0.9296875,-0.115234375,-1.59375,-0.40625,-0.625,0.0,0.0,0.0
105,1695809546101,0.31054688,0.92089844,-0.109375,-1.75,-1.3125,-0.5625,0.0,0.0,0.0
106,1695809546165,0.3076172,0.9326172,-0.11328125,-2.1875,-0.8125,-0.21875,0.0,0.0,0.0
107,1695809546191,0.31054688,0.9296875,-0.09667969,-0.96875,-0.875,-0.28125,0.0,0.0,0.0
108,1695809546232,0.30566406,0.93652344,-0.11230469,-0.90625,-1.25,-0.28125,-14.875,39.3125,-135.0625
109,1695809546279,0.31054688,0.9248047,-0.11035156,-0.46875,-0.28125,-0.03125,0.0,0.0,0.0
110,1695809546309,0.31054688,0.92089844,-0.11621094,-0.71875,-0.875,-0.09375,0.0,0.0,0.0
111,1695809546338,0.31347656,0.9326172,-0.107421875,-0.59375,-1.5,0.15625,0.0,0.0,0.0
112,1695809546401,0.30371094,0.9238281,-0.11328125,-0.90625,-1.5,-0.03125,0.0,0.0,0.0
113,1695809546432,0.3125,0.9277344,-0.109375,-1.15625,-1.25,-0.03125,0.0,0.0,0.0
114,1695809546463,0.31152344,0.92578125,-0.11328125,-0.90625,-0.625,-0.09375,0.0,0.0,0.0
115,1695809546553,0.3046875,0.9355469,-0.10546875,-0.90625,-0.03125,-0.46875,0.0,0.0,0.0
116,1695809546557,0.31933594,0.9248047,-0.10839844,-0.84375,-0.5625,-0.40625,0.0,0.0,0.0
117,1695809546581,0.31445312,0.9511719,-0.10839844,-0.40625,-1.4375,0.40625,0.0,0.0,0.0
118,1695809546644,0.32226562,0.9316406,-0.11035156,2.75,-2.21875,1.0,0.0,0.0,0.0
119,1695809546703,0.31445312,0.92285156,-0.11816406,2.625,-3.375,1.5,0.0,0.0,0.0
120,1695809546705,0.31152344,0.92089844,-0.12695312,1.21875,-3.03125,1.0625,-14.6875,39.0625,-134.875
121,1695809546762,0.30273438,0.9238281,-0.111328125,0.375,-3.1875,0.9375,0.0,0.0,0.0
122,1695809546792,0.31054688,0.9375,-0.099609375,-0.46875,-2.40625,0.8125,0.0,0.0,0.0
123,1695809546824,0.30566406,0.92285156,-0.11425781,-0.1875,-0.625,0.46875,0.0,0.0,0.0
124,1695809546913,0.30859375,0.93359375,-0.10058594,-0.34375,0.78125,-0.03125,0.0,0.0,0.0
125,1695809546919,0.3095703,0.92871094,-0.10058594,0.0,1.75,0.03125,0.0,0.0,0.0
126,1695809546940,0.3203125,0.93359375,-0.12109375,0.0,1.8125,-0.34375,0.0,0.0,0.0
127,1695809547031,0.31152344,0.9199219,-0.1171875,0.5625,1.5,-0.34375,0.0,0.0,0.0
128,1695809547036,0.31640625,0.92578125,-0.10253906,1.03125,1.5625,0.28125,0.0,0.0,0.0
129,1695809547061,0.31152344,0.92578125,-0.12597656,1.59375,1.625,0.09375,0.0,0.0,0.0
130,1695809547120,0.31054688,0.92285156,-0.12011719,1.59375,1.6875,-0.15625,0.0,0.0,0.0
131,1695809547152,0.3173828,0.9316406,-0.11425781,1.71875,1.5625,-0.03125,0.0,0.0,0.0
132,1695809547182,0.31445312,0.92285156,-0.109375,1.40625,1.25,-0.03125,0.0,0.0,0.0
133,1695809547245,0.31152344,0.92578125,-0.1171875,0.96875,1.1875,-0.03125,-14.125,38.125,-135.0625
134,1695809547272,0.31152344,0.9345703,-0.11816406,0.6875,0.9375,0.03125,0.0,0.0,0.0
135,1695809547301,0.31445312,0.93066406,-0.12402344,0.875,0.46875,-0.21875,0.0,0.0,0.0
136,1695809547360,0.3173828,0.92871094,-0.12988281,0.75,0.34375,-0.03125,0.0,0.0,0.0
137,1695809547393,0.30859375,0.9316406,-0.12695312,0.375,0.84375,0.03125,0.0,0.0,0.0
138,1695809547452,0.31445312,0.9345703,-0.12011719,0.0625,0.09375,-0.34375,0.0,0.0,0.0
139,1695809547484,0.31933594,0.92285156,-0.111328125,0.125,0.46875,-0.09375,0.0,0.0,0.0
140,1695809547513,0.3232422,0.9277344,-0.13574219,0.375,-0.03125,-0.09375,0.0,0.0,0.0
141,1695809547541,0.30273438,0.9199219,-0.12402344,-0.0625,0.15625,-0.28125,0.0,0.0,0.0
142,1695809547604,0.31054688,0.9248047,-0.12402344,0.25,0.28125,-0.21875,0.0,0.0,0.0
143,1695809547632,0.31640625,0.9238281,-0.12402344,-0.25,-0.5,-0.15625,0.0,0.0,0.0
144,1695809547662,0.31640625,0.9248047,-0.12011719,-0.71875,-0.34375,-0.28125,0.0,0.0,0.0
145,1695809547722,0.3095703,0.9326172,-0.119140625,0.1875,-1.3125,-0.21875,-14.125,36.8125,-134.75
146,1695809547752,0.3125,0.9189453,-0.12890625,0.5625,-0.875,-0.09375,0.0,0.0,0.0
147,1695809547782,0.31347656,0.92285156,-0.12597656,-0.3125,-1.0,0.09375,0.0,0.0,0.0
148,1695809547842,0.3076172,0.9316406,-0.12695312,-0.34375,-0.28125,0.09375,0.0,0.0,0.0
149,1695809547872,0.3125,0.9189453,-0.12207031,-0.1875,0.09375,-0.21875,0.0,0.0,0.0
150,1695809547903,0.31347656,0.9296875,-0.123046875,-0.34375,-0.15625,-0.5625,0.0,0.0,0.0
151,1695809547963,0.31347656,0.9355469,-0.11328125,-0.34375,-0.21875,-0.21875,0.0,0.0,0.0
152,1695809547990,0.31445312,0.9345703,-0.11035156,-0.59375,-0.15625,-0.03125,0.0,0.0,0.0
153,1695809548019,0.30859375,0.9326172,-0.119140625,-0.25,0.09375,-0.34375,0.0,0.0,0.0
154,1695809548081,0.3251953,0.9238281,-0.119140625,-0.25,0.03125,-0.34375,0.0,0.0,0.0
155,1695809548111,0.31152344,0.9277344,-0.12109375,-0.46875,-0.09375,-0.21875,0.0,0.0,0.0
156,1695809548141,0.30566406,0.9326172,-0.111328125,-0.46875,-0.03125,-0.40625,0.0,0.0,0.0
157,1695809548203,0.32128906,0.9355469,-0.12695312,-0.1875,-0.34375,-0.34375,0.0,0.0,0.0
158,1695809548231,0.3173828,0.9277344,-0.11328125,0.375,0.21875,-0.21875,-13.8125,37.5625,-134.75
159,1695809548265,0.31640625,0.9296875,-0.123046875,0.0625,0.09375,-0.03125,0.0,0.0,0.0
160,1695809548322,0.3125,0.9277344,-0.10546875,-0.1875,0.09375,-0.40625,0.0,0.0,0.0
161,1695809548350,0.3154297,0.9375,-0.119140625,-0.25,0.03125,-0.03125,0.0,0.0,0.0
162,1695809548382,0.31054688,0.93847656,-0.12597656,-0.1875,-0.5625,0.15625,0.0,0.0,0.0
163,1695809548440,0.30371094,0.9345703,-0.10546875,0.0625,-0.5,0.15625,0.0,0.0,0.0
164,1695809548471,0.3046875,0.9248047,-0.12207031,-0.3125,-0.21875,0.21875,0.0,0.0,0.0
165,1695809548502,0.3154297,0.9326172,-0.11425781,0.3125,0.15625,-0.15625,0.0,0.0,0.0
166,1695809548562,0.2998047,0.9267578,-0.11816406,0.125,0.65625,-0.21875,0.0,0.0,0.0
167,1695809548591,0.30859375,0.9248047,-0.115234375,0.3125,0.84375,-0.34375,0.0,0.0,0.0
168,1695809548625,0.31152344,0.93359375,-0.10253906,0.25,0.65625,-0.21875,0.0,0.0,0.0
169,1695809548681,0.3154297,0.92285156,-0.12109375,0.1875,0.28125,-0.34375,0.0,0.0,0.0
170,1695809548714,0.31054688,0.92285156,-0.11230469,0.5,0.15625,0.03125,-13.0625,37.5625,-135.375
171,1695809548741,0.31152344,0.93652344,-0.119140625,0.4375,0.46875,-0.21875,0.0,0.0,0.0
172,1695809548803,0.31347656,0.9277344,-0.12109375,0.1875,0.59375,-0.34375,0.0,0.0,0.0
173,1695809548832,0.3017578,0.9248047,-0.125,0.375,0.65625,-0.03125,0.0,0.0,0.0
174,1695809548862,0.2998047,0.9326172,-0.12792969,0.375,0.09375,0.03125,0.0,0.0,0.0
175,1695809548923,0.30566406,0.92871094,-0.12207031,0.25,0.28125,-0.21875,0.0,0.0,0.0
176,1695809548983,0.31054688,0.9423828,-0.12597656,-0.0625,-0.28125,-0.21875,0.0,0.0,0.0
177,1695809548991,0.30664062,0.9238281,-0.12207031,-0.0625,-0.09375,-0.15625,0.0,0.0,0.0
178,1695809549040,0.31152344,0.9316406,-0.111328125,0.0625,-0.40625,0.03125,0.0,0.0,0.0
179,1695809549069,0.3125,0.921875,-0.11621094,0.125,0.03125,0.03125,0.0,0.0,0.0
180,1695809549099,0.31933594,0.9316406,-0.12207031,-0.3125,-0.34375,-0.03125,0.0,0.0,0.0
181,1695809549159,0.31152344,0.94433594,-0.11816406,-0.25,-0.15625,-0.03125,0.0,0.0,0.0
182,1695809549193,0.3173828,0.9169922,-0.119140625,0.125,-0.40625,-0.15625,0.0,0.0,0.0
183,1695809549222,0.30664062,0.9248047,-0.12109375,-0.3125,-0.8125,-0.15625,-13.375,37.5625,-136.125
184,1695809549280,0.31445312,0.9316406,-0.11230469,-0.25,-0.34375,0.09375,0.0,0.0,0.0
185,1695809549315,0.30566406,0.93652344,-0.11425781,-0.0625,-0.4375,0.09375,0.0,0.0,0.0
186,1695809549342,0.3095703,0.92089844,-0.11621094,0.1875,-0.09375,-0.03125,0.0,0.0,0.0
187,1695809549400,0.3154297,0.92578125,-0.11816406,0.0625,-0.03125,0.21875,0.0,0.0,0.0
188,1695809549430,0.31835938,0.9345703,-0.11621094,0.125,-0.28125,0.40625,0.0,0.0,0.0
189,1695809549461,0.3154297,0.93652344,-0.119140625,0.5,-0.09375,0.09375,0.0,0.0,0.0
190,1695809549522,0.3095703,0.9316406,-0.11816406,0.0625,0.03125,0.15625,0.0,0.0,0.0
191,1695809549553,0.30664062,0.93066406,-0.125,0.375,0.34375,0.21875,0.0,0.0,0.0
192,1695809549581,0.31640625,0.9296875,-0.119140625,0.25,0.40625,0.03125,0.0,0.0,0.0
193,1695809549644,0.30566406,0.92578125,-0.111328125,-0.0625,-0.21875,-0.03125,0.0,0.0,0.0
194,1695809549672,0.31054688,0.93066406,-0.111328125,0.125,0.40625,0.09375,0.0,0.0,0.0
195,1695809549732,0.30859375,0.9277344,-0.12890625,0.0625,0.15625,-0.03125,-12.4375,38.4375,-135.9375
196,1695809549762,0.31835938,0.92578125,-0.11425781,0.125,0.15625,-0.15625,0.0,0.0,0.0
197,1695809549792,0.30859375,0.9199219,-0.13769531,0.3125,0.28125,0.09375,0.0,0.0,0.0
198,1695809549823,0.3076172,0.9296875,-0.11328125,-0.1875,-0.75,0.09375,0.0,0.0,0.0
199,1695809549882,0.31152344,0.9248047,-0.11425781,-0.0625,-0.40625,-0.21875,0.0,0.0,0.0
200,1695809549912,0.3154297,0.9326172,-0.13183594,-0.1875,-0.34375,0.03125,0.0,0.0,0.0
201,1695809549941,0.31152344,0.9189453,-0.12109375,0.0625,0.21875,0.03125,0.0,0.0,0.0
202,1695809550001,0.31445312,0.92285156,-0.111328125,0.0,0.34375,-0.09375,0.0,0.0,0.0
203,1695809550033,0.30859375,0.92578125,-0.11328125,-0.34375,-0.40625,-0.34375,0.0,0.0,0.0
204,1695809550064,0.31054688,0.9345703,-0.12207031,-0.125,-0.21875,-0.15625,0.0,0.0,0.0
205,1695809550127,0.3125,0.9277344,-0.1171875,-0.3125,-0.09375,-0.28125,0.0,0.0,0.0
206,1695809550149,0.3154297,0.93652344,-0.109375,-0.25,-0.03125,-0.28125,0.0,0.0,0.0
207,1695809550180,0.3125,0.9277344,-0.12109375,-0.3125,0.09375,-0.34375,0.0,0.0,0.0
208,1695809550243,0.31445312,0.93847656,-0.10839844,-0.0625,-0.03125,-0.21875,-12.0,36.8125,-135.0625
209,1695809550275,0.30566406,0.93359375,-0.12792969,-0.0625,-0.28125,-0.15625,0.0,0.0,0.0
210,1695809550304,0.31445312,0.93359375,-0.13085938,-0.125,-0.4375,0.03125,0.0,0.0,0.0
211,1695809550361,0.30664062,0.9296875,-0.11328125,-0.34375,-0.8125,-0.15625,0.0,0.0,0.0
212,1695809550391,0.30664062,0.92871094,-0.11816406,-0.1875,-0.21875,-0.28125,0.0,0.0,0.0
213,1695809550421,0.31933594,0.9316406,-0.099609375,0.1875,0.40625,-0.21875,0.0,0.0,0.0
214,1695809550479,0.31640625,0.9267578,-0.13183594,0.0625,0.65625,-0.21875,0.0,0.0,0.0
215,1695809550511,0.31445312,0.92871094,-0.1171875,0.125,0.875,-0.09375,0.0,0.0,0.0
216,1695809550543,0.31054688,0.9267578,-0.125,0.4375,0.40625,-0.03125,0.0,0.0,0.0
217,1695809550600,0.31347656,0.9267578,-0.111328125,0.5,-0.40625,0.03125,0.0,0.0,0.0
218,1695809550630,0.30371094,0.9277344,-0.12207031,0.5625,0.40625,0.28125,0.0,0.0,0.0
219,1695809550661,0.30859375,0.91796875,-0.12109375,0.5625,0.09375,-0.15625,0.0,0.0,0.0
220,1695809550722,0.3125,0.92871094,-0.111328125,0.375,0.53125,-0.15625,-13.5,37.25,-135.5
221,1695809550751,0.30273438,0.9345703,-0.12890625,0.5,0.28125,-0.09375,0.0,0.0,0.0
222,1695809550780,0.31445312,0.92089844,-0.1171875,0.0625,0.15625,-0.15625,0.0,0.0,0.0
223,1695809550841,0.31640625,0.9345703,-0.12109375,-0.34375,-0.5625,-0.09375,0.0,0.0,0.0
224,1695809550871,0.3125,0.9394531,-0.123046875,-0.34375,-0.6875,-0.03125,0.0,0.0,0.0
225,1695809550901,0.3095703,0.9326172,-0.12109375,0.25,-0.09375,0.03125,0.0,0.0,0.0
226,1695809550962,0.31152344,0.9355469,-0.119140625,0.125,-0.21875,-0.28125,0.0,0.0,0.0
227,1695809550994,0.30859375,0.92871094,-0.11035156,0.0,0.15625,-0.03125,0.0,0.0,0.0
228,1695809551023,0.30859375,0.9296875,-0.11621094,-0.0625,-0.34375,0.03125,0.0,0.0,0.0
229,1695809551082,0.3173828,0.9316406,-0.1171875,0.25,-0.15625,-0.09375,0.0,0.0,0.0
230,1695809551113,0.32226562,0.9277344,-0.11328125,0.1875,0.15625,-0.03125,0.0,0.0,0.0
231,1695809551141,0.3154297,0.93652344,-0.11621094,0.375,0.09375,0.15625,0.0,0.0,0.0
232,1695809551200,0.30566406,0.9345703,-0.12109375,0.625,0.09375,-0.03125,0.0,0.0,0.0
233,1695809551262,0.30566406,0.9345703,-0.123046875,1.09375,1.0625,0.09375,-13.0625,38.125,-134.75
234,1695809551264,0.3095703,0.9326172,-0.111328125,0.9375,0.71875,0.03125,0.0,0.0,0.0
235,1695809551320,0.31152344,0.9267578,-0.11425781,0.5625,0.84375,0.21875,0.0,0.0,0.0
236,1695809551352,0.30664062,0.9296875,-0.123046875,0.0625,0.15625,-0.21875,0.0,0.0,0.0
237,1695809551380,0.31347656,0.92285156,-0.12207031,0.3125,0.09375,-0.03125,0.0,0.0,0.0
238,1695809551449,0.3203125,0.92578125,-0.12792969,-0.0625,-0.09375,-0.15625,0.0,0.0,0.0
239,1695809551469,0.3125,0.9248047,-0.12207031,-0.40625,-0.15625,-0.03125,0.0,0.0,0.0
240,1695809551498,0.31445312,0.9277344,-0.13378906,-0.125,0.59375,0.03125,0.0,0.0,0.0
241,1695809551559,0.31445312,0.92871094,-0.12207031,0.5625,0.59375,-0.34375,0.0,0.0,0.0
242,1695809551588,0.31933594,0.92285156,-0.12988281,0.875,0.53125,0.15625,0.0,0.0,0.0
243,1695809551618,0.3232422,0.92285156,-0.12695312,-0.1875,-0.21875,0.03125,0.0,0.0,0.0
244,1695809551678,0.30859375,0.9248047,-0.125,-0.0625,-0.4375,-0.09375,0.0,0.0,0.0
245,1695809551709,0.3154297,0.9355469,-0.12988281,-0.53125,-1.25,-0.15625,-14.375,37.8125,-135.625
246,1695809551739,0.31152344,0.9238281,-0.11816406,-0.53125,-0.875,0.03125,0.0,0.0,0.0
247,1695809551802,0.31054688,0.9355469,-0.119140625,-0.34375,-0.34375,-0.21875,0.0,0.0,0.0
248,1695809551829,0.30664062,0.9296875,-0.12988281,0.1875,0.03125,-0.40625,0.0,0.0,0.0
249,1695809551858,0.31835938,0.92871094,-0.115234375,0.125,0.53125,-0.21875,0.0,0.0,0.0
250,1695809551918,0.3173828,0.92871094,-0.103515625,-0.34375,0.09375,-0.34375,0.0,0.0,0.0
251,1695809551948,0.3125,0.9296875,-0.12011719,-0.53125,0.46875,-0.34375,0.0,0.0,0.0
252,1695809552008,0.31152344,0.9277344,-0.12695312,-0.0625,-0.09375,-0.40625,0.0,0.0,0.0
253,1695809552043,0.3173828,0.9267578,-0.107421875,0.0,-0.09375,-0.09375,0.0,0.0,0.0
254,1695809552070,0.31445312,0.9355469,-0.11425781,-0.40625,-0.40625,0.09375,0.0,0.0,0.0
255,1695809552101,0.2998047,0.9375,-0.10449219,-0.3125,-0.5,-0.15625,0.0,0.0,0.0
256,1695809552158,0.31054688,0.93066406,-0.11328125,-0.40625,-0.28125,-0.40625,0.0,0.0,0.0
257,1695809552190,0.30371094,0.92285156,-0.11328125,0.0625,-0.28125,-0.21875,0.0,0.0,0.0
258,1695809552221,0.31445312,0.9326172,-0.12109375,-0.25,-0.40625,0.03125,-13.1875,36.1875,-135.1875
259,1695809552282,0.31933594,0.9267578,-0.11425781,-0.59375,-0.75,0.03125,0.0,0.0,0.0
260,1695809552310,0.3173828,0.9316406,-0.11035156,0.0625,-0.75,-0.09375,0.0,0.0,0.0
261,1695809552340,0.3154297,0.93652344,-0.12109375,0.3125,-0.5625,0.15625,0.0,0.0,0.0
262,1695809552404,0.3095703,0.9199219,-0.123046875,0.4375,-0.8125,0.15625,0.0,0.0,0.0
263,1695809552431,0.3046875,0.9267578,-0.107421875,0.1875,-0.09375,0.15625,0.0,0.0,0.0
264,1695809552464,0.31054688,0.9326172,-0.11425781,0.0625,-0.03125,0.03125,0.0,0.0,0.0
265,1695809552519,0.30371094,0.93066406,-0.11425781,0.0625,0.46875,-0.09375,0.0,0.0,0.0
266,1695809552550,0.31054688,0.93359375,-0.11621094,0.3125,0.875,-0.34375,0.0,0.0,0.0
267,1695809552579,0.3125,0.9267578,-0.119140625,0.1875,0.65625,-0.15625,0.0,0.0,0.0
268,1695809552641,0.31054688,0.92871094,-0.12207031,0.3125,1.0,-0.28125,0.0,0.0,0.0
269,1695809552673,0.31347656,0.9404297,-0.119140625,0.1875,0.71875,-0.21875,0.0,0.0,0.0
270,1695809552701,0.31445312,0.9326172,-0.11328125,0.625,0.59375,-0.09375,-13.1875,39.0625,-134.125
271,1695809552762,0.31054688,0.93359375,-0.123046875,-0.0625,-0.09375,0.03125,0.0,0.0,0.0
272,1695809552791,0.31152344,0.9296875,-0.11328125,-0.125,-0.28125,-0.03125,0.0,0.0,0.0
273,1695809552824,0.3095703,0.9238281,-0.12695312,0.1875,-0.21875,-0.15625,0.0,0.0,0.0
274,1695809552881,0.31445312,0.91308594,-0.11230469,0.125,0.03125,0.03125,0.0,0.0,0.0
275,1695809552911,0.3076172,0.9277344,-0.12109375,-0.0625,-0.09375,0.03125,0.0,0.0,0.0
276,1695809552940,0.3173828,0.9375,-0.11425781,0.0,0.03125,-0.09375,0.0,0.0,0.0
277,1695809553003,0.3173828,0.93359375,-0.12207031,-0.0625,-0.09375,-0.09375,0.0,0.0,0.0
278,1695809553031,0.30566406,0.9345703,-0.119140625,0.1875,-0.03125,0.03125,0.0,0.0,0.0
279,1695809553071,0.3154297,0.93066406,-0.13085938,0.0625,-0.21875,0.03125,0.0,0.0,0.0
280,1695809553122,0.31640625,0.9316406,-0.12011719,-0.125,-0.34375,-0.15625,0.0,0.0,0.0
281,1695809553150,0.31640625,0.92578125,-0.103515625,-0.125,-0.21875,0.03125,0.0,0.0,0.0
282,1695809553179,0.30859375,0.9326172,-0.12109375,0.0625,0.21875,-0.09375,0.0,0.0,0.0
283,1695809553240,0.31347656,0.93652344,-0.12597656,-0.0625,0.09375,-0.03125,-13.8125,37.0625,-135.625
284,1695809553270,0.30859375,0.93066406,-0.10644531,0.125,0.09375,-0.09375,0.0,0.0,0.0
285,1695809553302,0.30664062,0.92578125,-0.12109375,0.1875,0.21875,-0.09375,0.0,0.0,0.0
286,1695809553361,0.30859375,0.9238281,-0.12109375,0.3125,0.28125,-0.21875,0.0,0.0,0.0
287,1695809553391,0.30566406,0.9296875,-0.12109375,0.3125,0.46875,-0.03125,0.0,0.0,0.0
288,1695809553421,0.3125,0.92285156,-0.11621094,0.0625,0.28125,-0.15625,0.0,0.0,0.0
289,1695809553481,0.31054688,0.9267578,-0.10546875,0.1875,0.34375,-0.15625,0.0,0.0,0.0
290,1695809553540,0.31347656,0.92578125,-0.12109375,0.1875,0.40625,-0.15625,0.0,0.0,0.0
291,1695809553543,0.3173828,0.9326172,-0.12402344,0.625,0.03125,-0.03125,0.0,0.0,0.0
292,1695809553599,0.30078125,0.93066406,-0.12597656,0.25,0.09375,0.03125,0.0,0.0,0.0
293,1695809553629,0.31054688,0.92871094,-0.12402344,0.0625,0.03125,-0.09375,0.0,0.0,0.0
294,1695809553661,0.30859375,0.9326172,-0.11230469,0.4375,0.28125,-0.03125,0.0,0.0,0.0
295,1695809553723,0.31054688,0.9277344,-0.12792969,0.75,0.46875,0.15625,-13.5,38.0,-134.875
296,1695809553754,0.3154297,0.9277344,-0.11816406,0.4375,0.46875,-0.21875,0.0,0.0,0.0
297,1695809553782,0.31347656,0.9345703,-0.12011719,0.0,0.28125,-0.15625,0.0,0.0,0.0
298,1695809553846,0.31933594,0.9238281,-0.12402344,0.25,-0.09375,0.03125,0.0,0.0,0.0
299,1695809553870,0.3154297,0.92578125,-0.12207031,-0.0625,-0.09375,-0.15625,0.0,0.0,0.0
300,1695809553899,0.31054688,0.9326172,-0.125,-0.0625,0.09375,-0.28125,0.0,0.0,0.0
301,1695809553961,0.31152344,0.9277344,-0.115234375,0.25,-0.03125,0.03125,0.0,0.0,0.0
302,1695809553992,0.30664062,0.9277344,-0.11425781,0.0625,-0.15625,0.03125,0.0,0.0,0.0
303,1695809554022,0.31054688,0.9277344,-0.119140625,-0.1875,-0.21875,-0.21875,0.0,0.0,0.0
304,1695809554081,0.3154297,0.93359375,-0.12109375,0.0,-0.28125,-0.15625,0.0,0.0,0.0
305,1695809554111,0.3154297,0.9267578,-0.11816406,-0.0625,0.09375,-0.21875,0.0,0.0,0.0
306,1695809554142,0.31152344,0.9296875,-0.11621094,-0.125,-0.03125,-0.28125,0.0,0.0,0.0
307,1695809554200,0.30859375,0.92089844,-0.115234375,0.375,0.65625,-0.21875,0.0,0.0,0.0
308,1695809554230,0.31347656,0.92578125,-0.12207031,0.1875,0.28125,-0.34375,-13.8125,37.8125,-134.75
309,1695809554290,0.3173828,0.9277344,-0.115234375,0.0,0.71875,-0.46875,0.0,0.0,0.0
310,1695809554322,0.3154297,0.9375,-0.12207031,-0.3125,0.40625,-0.28125,0.0,0.0,0.0
311,1695809554361,0.32421875,0.92871094,-0.12890625,-0.78125,-0.03125,-0.40625,0.0,0.0,0.0
312,1695809554380,0.3046875,0.9111328,-0.125,-0.0625,-0.09375,-0.03125,0.0,0.0,0.0
313,1695809554443,0.30371094,0.9355469,-0.11425781,-0.125,-0.8125,0.09375,0.0,0.0,0.0
314,1695809554474,0.32128906,0.9169922,-0.11230469,-0.0625,-0.75,0.21875,0.0,0.0,0.0
315,1695809554501,0.31054688,0.9277344,-0.115234375,-0.59375,-0.5625,0.09375,0.0,0.0,0.0
316,1695809554561,0.3125,0.9326172,-0.11816406,-0.84375,-0.6875,0.03125,0.0,0.0,0.0
317,1695809554589,0.30273438,0.9296875,-0.12402344,-0.59375,-0.4375,-0.21875,0.0,0.0,0.0
318,1695809554620,0.30566406,0.92871094,-0.11230469,-0.59375,-0.6875,-0.03125,0.0,0.0,0.0
319,1695809554683,0.31152344,0.9248047,-0.11035156,-0.59375,-0.5625,-0.03125,0.0,0.0,0.0
320,1695809554711,0.3125,0.92871094,-0.10839844,-0.15625,-0.1875,0.0625,-13.5,36.9375,-133.875
321,1695809554743,0.29882812,0.92871094,-0.10839844,-0.09375,-0.3125,0.25,0.0,0.0,0.0
322,1695809554803,0.31054688,0.92871094,-0.10546875,0.03125,0.0625,0.1875,0.0,0.0,0.0
323,1695809554831,0.30371094,0.93359375,-0.111328125,-0.21875,0.0625,0.125,0.0,0.0,0.0
324,1695809554869,0.30078125,0.92871094,-0.11230469,0.34375,0.0625,0.25,0.0,0.0,0.0
325,1695809554921,0.3173828,0.9277344,-0.11621094,0.34375,-0.125,0.3125,0.0,0.0,0.0
326,1695809554951,0.31445312,0.9316406,-0.12109375,0.15625,-0.125,0.25,0.0,0.0,0.0
327,1695809554985,0.31445312,0.9355469,-0.1171875,-0.28125,-0.1875,0.25,0.0,0.0,0.0
328,1695809555042,0.31640625,0.9296875,-0.111328125,0.40625,0.65625,0.1875,0.0,0.0,0.0
329,1695809555072,0.30859375,0.9248047,-0.1171875,0.46875,0.59375,0.0,0.0,0.0,0.0
330,1695809555101,0.31054688,0.921875,-0.12597656,0.5625,0.125,0.1875,0.0,0.0,0.0
331,1695809555162,0.31152344,0.9199219,-0.11328125,0.40625,-0.0625,0.4375,0.0,0.0,0.0
332,1695809555191,0.31054688,0.9316406,-0.119140625,-0.21875,-0.3125,0.25,0.0,0.0,0.0
333,1695809555218,0.31347656,0.9355469,-0.12792969,0.03125,0.40625,0.0,-14.25,36.1875,-136.25
334,1695809555281,0.3125,0.93652344,-0.115234375,0.28125,0.25,0.1875,0.0,0.0,0.0
335,1695809555313,0.31347656,0.9296875,-0.1328125,0.34375,0.125,0.25,0.0,0.0,0.0
336,1695809555341,0.3125,0.93359375,-0.12109375,0.21875,0.25,0.4375,0.0,0.0,0.0
337,1695809555402,0.3076172,0.92578125,-0.1171875,0.09375,0.0625,0.125,0.0,0.0,0.0
338,1695809555432,0.3154297,0.93652344,-0.12109375,-0.03125,-0.0625,0.25,0.0,0.0,0.0
339,1695809555464,0.30664062,0.92578125,-0.11425781,0.34375,-0.4375,0.3125,0.0,0.0,0.0
340,1695809555522,0.31347656,0.9326172,-0.12109375,-0.15625,-0.4375,0.5625,0.0,0.0,0.0
341,1695809555550,0.3154297,0.9316406,-0.10839844,-0.03125,-0.4375,0.375,0.0,0.0,0.0
342,1695809555580,0.30566406,0.93066406,-0.12011719,-0.03125,-0.0625,0.0,0.0,0.0,0.0
343,1695809555639,0.30371094,0.9296875,-0.115234375,-0.03125,0.46875,0.125,0.0,0.0,0.0
344,1695809555671,0.31640625,0.9345703,-0.12207031,0.34375,0.65625,0.1875,0.0,0.0,0.0
345,1695809555702,0.3076172,0.93066406,-0.11230469,0.46875,0.40625,0.0625,-13.0625,37.5625,-135.375
346,1695809555763,0.3173828,0.93359375,-0.12695312,0.40625,0.125,0.1875,0.0,0.0,0.0
347,1695809555822,0.3076172,0.9189453,-0.11621094,0.46875,0.1875,0.25,0.0,0.0,0.0
348,1695809555824,0.30664062,0.9277344,-0.11035156,-0.28125,-0.1875,0.25,0.0,0.0,0.0
349,1695809555883,0.31347656,0.92089844,-0.11425781,0.03125,0.125,-0.0625,0.0,0.0,0.0
350,1695809555912,0.30664062,0.92578125,-0.11035156,-0.03125,0.25,0.125,0.0,0.0,0.0
351,1695809555942,0.31835938,0.92871094,-0.11816406,0.03125,0.3125,0.0625,0.0,0.0,0.0
352,1695809556002,0.32421875,0.9296875,-0.11621094,0.28125,0.375,0.0625,0.0,0.0,0.0
353,1695809556034,0.3125,0.9296875,-0.11328125,-0.15625,-0.5625,0.125,0.0,0.0,0.0
354,1695809556063,0.30566406,0.9267578,-0.12597656,-0.28125,-0.4375,0.25,0.0,0.0,0.0
355,1695809556122,0.30371094,0.9296875,-0.11621094,-0.28125,-0.25,0.1875,0.0,0.0,0.0
356,1695809556152,0.3154297,0.92578125,-0.11035156,-0.09375,-0.5,-0.0625,0.0,0.0,0.0
357,1695809556182,0.30664062,0.92871094,-0.11230469,-0.34375,-0.125,0.125,0.0,0.0,0.0
358,1695809556241,0.3154297,0.9277344,-0.107421875,-0.65625,-0.125,0.1875,-12.875,38.4375,-135.9375
359,1695809556270,0.2998047,0.92871094,-0.12597656,0.03125,-0.1875,0.0625,0.0,0.0,0.0
360,1695809556300,0.3095703,0.9296875,-0.12207031,-0.15625,-0.0625,0.1875,0.0,0.0,0.0
361,1695809556361,0.3076172,0.9267578,-0.11230469,-0.34375,-0.125,-0.0625,0.0,0.0,0.0
362,1695809556397,0.30664062,0.9355469,-0.11035156,-0.28125,-0.625,0.1875,0.0,0.0,0.0
363,1695809556423,0.3076172,0.9267578,-0.123046875,-0.28125,-0.1875,0.25,0.0,0.0,0.0
364,1695809556482,0.3076172,0.93359375,-0.11230469,-0.28125,-0.125,0.0,0.0,0.0,0.0
365,1695809556511,0.30664062,0.921875,-0.123046875,-0.65625,0.125,0.0625,0.0,0.0,0.0
366,1695809556569,0.3076172,0.9238281,-0.111328125,-0.71875,0.0,-0.125,0.0,0.0,0.0
367,1695809556601,0.31152344,0.9238281,-0.11425781,-0.59375,-0.625,-0.0625,0.0,0.0,0.0
368,1695809556630,0.3125,0.92871094,-0.11816406,-0.34375,-0.125,0.1875,0.0,0.0,0.0
369,1695809556661,0.3173828,0.9326172,-0.11425781,-0.28125,-0.5625,0.3125,0.0,0.0,0.0
370,1695809556719,0.30664062,0.9316406,-0.10644531,-0.53125,-0.25,0.125,-13.375,39.3125,-136.6875
371,1695809556749,0.30566406,0.93066406,-0.12011719,0.28125,-0.125,0.1875,0.0,0.0,0.0
372,1695809556780,0.3125,0.9169922,-0.11621094,-0.21875,0.125,0.0,0.0,0.0,0.0
373,1695809556840,0.30371094,0.92578125,-0.109375,-0.40625,0.0,0.3125,0.0,0.0,0.0
374,1695809556869,0.29589844,0.9277344,-0.12597656,-0.28125,-0.1875,0.3125,0.0,0.0,0.0
375,1695809556900,0.3173828,0.9277344,-0.103515625,-0.03125,-0.1875,0.1875,0.0,0.0,0.0
376,1695809556959,0.3017578,0.91503906,-0.10058594,0.15625,-0.5,0.3125,0.0,0.0,0.0
377,1695809556989,0.31054688,0.9326172,-0.10644531,0.21875,-0.5625,0.5625,0.0,0.0,0.0
378,1695809557019,0.30273438,0.9326172,-0.11621094,0.5,-0.5625,0.5,0.0,0.0,0.0
379,1695809557079,0.31640625,0.9238281,-0.11230469,0.34375,-0.5625,0.5625,0.0,0.0,0.0
380,1695809557110,0.30664062,0.9345703,-0.10644531,0.03125,-0.375,0.4375,0.0,0.0,0.0
381,1695809557139,0.31347656,0.93066406,-0.111328125,0.03125,-0.125,0.375,0.0,0.0,0.0
382,1695809557200,0.30664062,0.9326172,-0.115234375,0.03125,-0.125,0.125,0.0,0.0,0.0
383,1695809557229,0.31347656,0.91796875,-0.11621094,0.46875,0.25,0.375,-13.5,37.6875,-135.5
384,1695809557259,0.31054688,0.92871094,-0.119140625,0.21875,-0.25,0.4375,0.0,0.0,0.0
385,1695809557320,0.30371094,0.9355469,-0.11816406,0.15625,-0.125,0.4375,0.0,0.0,0.0
386,1695809557349,0.3095703,0.92871094,-0.11230469,0.40625,-0.25,0.375,0.0,0.0,0.0
387,1695809557379,0.30859375,0.92285156,-0.119140625,0.28125,0.0625,0.125,0.0,0.0,0.0
388,1695809557439,0.30371094,0.9296875,-0.10644531,0.09375,0.0,0.375,0.0,0.0,0.0
389,1695809557470,0.31054688,0.9267578,-0.111328125,0.03125,0.125,0.1875,0.0,0.0,0.0
390,1695809557499,0.31347656,0.9316406,-0.10546875,0.40625,0.25,0.25,0.0,0.0,0.0
391,1695809557560,0.31347656,0.92089844,-0.11621094,0.5625,0.40625,0.375,0.0,0.0,0.0
392,1695809557589,0.31347656,0.92089844,-0.11816406,0.28125,0.125,0.1875,0.0,0.0,0.0
393,1695809557619,0.3017578,0.9316406,-0.11328125,0.28125,-0.25,0.4375,0.0,0.0,0.0
394,1695809557681,0.30664062,0.92285156,-0.119140625,0.75,-0.1875,0.78125,0.0,0.0,0.0
395,1695809557709,0.31347656,0.92285156,-0.11425781,0.875,-0.4375,0.5625,-12.3125,38.125,-135.0625
396,1695809557739,0.3046875,0.9296875,-0.1171875,0.5625,-0.125,0.5,0.0,0.0,0.0
397,1695809557801,0.31347656,0.9248047,-0.115234375,0.6875,0.0625,0.625,0.0,0.0,0.0
398,1695809557831,0.30566406,0.92285156,-0.11035156,1.0,0.1875,0.5,0.0,0.0,0.0
399,1695809557862,0.31445312,0.93066406,-0.12109375,0.5625,0.3125,0.4375,0.0,0.0,0.0
400,1695809557922,0.3173828,0.93359375,-0.12597656,0.6875,0.25,0.4375,0.0,0.0,0.0
401,1695809557951,0.31640625,0.92089844,-0.119140625,0.625,-0.125,0.4375,0.0,0.0,0.0
402,1695809557981,0.31445312,0.9238281,-0.12792969,0.5,0.125,0.5,0.0,0.0,0.0
403,1695809558041,0.3076172,0.921875,-0.12011719,0.625,0.125,0.4375,0.0,0.0,0.0
404,1695809558102,0.3125,0.9267578,-0.12597656,0.5625,0.46875,0.25,0.0,0.0,0.0
405,1695809558106,0.31835938,0.9238281,-0.119140625,0.21875,0.125,0.3125,0.0,0.0,0.0
406,1695809558161,0.31640625,0.9238281,-0.11816406,0.40625,0.125,0.1875,0.0,0.0,0.0
407,1695809558192,0.31445312,0.9189453,-0.1171875,0.15625,0.3125,0.1875,0.0,0.0,0.0
408,1695809558221,0.3232422,0.9375,-0.123046875,-0.15625,-0.0625,0.0625,-13.9375,38.0,-135.9375
409,1695809558280,0.31933594,0.9316406,-0.11621094,0.28125,0.53125,0.3125,0.0,0.0,0.0
410,1695809558310,0.3173828,0.9267578,-0.12597656,0.21875,0.0625,0.3125,0.0,0.0,0.0
411,1695809558340,0.31347656,0.91796875,-0.12890625,0.21875,0.0625,0.125,0.0,0.0,0.0
412,1695809558402,0.30371094,0.93652344,-0.11328125,0.21875,0.0,0.25,0.0,0.0,0.0
413,1695809558433,0.31835938,0.93359375,-0.11621094,-0.09375,-0.6875,0.375,0.0,0.0,0.0
414,1695809558462,0.31152344,0.9326172,-0.12988281,-0.09375,-0.375,0.4375,0.0,0.0,0.0
415,1695809558520,0.30859375,0.9267578,-0.12402344,-0.09375,-0.5625,0.375,0.0,0.0,0.0
416,1695809558555,0.31152344,0.9296875,-0.11816406,-0.21875,-0.5,0.1875,0.0,0.0,0.0
417,1695809558582,0.3154297,0.9238281,-0.12109375,0.03125,-0.3125,0.3125,0.0,0.0,0.0
418,1695809558644,0.31640625,0.9238281,-0.11816406,-0.03125,-0.3125,0.25,0.0,0.0,0.0
419,1695809558671,0.3125,0.9189453,-0.12890625,0.09375,-0.1875,0.1875,0.0,0.0,0.0
420,1695809558702,0.31640625,0.92578125,-0.12011719,0.34375,0.0625,0.375,-14.125,37.0625,-135.375
421,1695809558760,0.3125,0.92089844,-0.12597656,-0.09375,-0.25,0.25,0.0,0.0,0.0
422,1695809558792,0.3203125,0.92578125,-0.111328125,0.09375,0.375,0.1875,0.0,0.0,0.0
423,1695809558852,0.3154297,0.92871094,-0.12792969,0.03125,0.3125,0.125,0.0,0.0,0.0
424,1695809558881,0.31152344,0.9238281,-0.11328125,0.28125,0.78125,0.0625,0.0,0.0,0.0
425,1695809558911,0.3125,0.9267578,-0.11816406,-0.15625,0.375,0.125,0.0,0.0,0.0
426,1695809558942,0.3154297,0.9296875,-0.12890625,0.09375,0.3125,0.0,0.0,0.0,0.0
427,1695809559000,0.3173828,0.9238281,-0.12011719,0.46875,0.25,0.0,0.0,0.0,0.0
428,1695809559032,0.3125,0.92578125,-0.12402344,-0.71875,-0.1875,0.0,0.0,0.0,0.0
429,1695809559062,0.3173828,0.9238281,-0.13574219,-0.28125,0.0625,0.0,0.0,0.0,0.0
430,1695809559121,0.30859375,0.9345703,-0.119140625,-0.09375,0.1875,0.0,0.0,0.0,0.0
431,1695809559153,0.3203125,0.9277344,-0.13378906,-0.03125,-0.1875,0.125,0.0,0.0,0.0
432,1695809559181,0.3095703,0.9296875,-0.12597656,-0.28125,-0.4375,0.25,0.0,0.0,0.0
433,1695809559238,0.30273438,0.9326172,-0.11425781,-0.40625,-0.5625,0.4375,-13.9375,37.25,-135.9375
434,1695809559271,0.31445312,0.93359375,-0.1328125,-0.28125,-0.8125,0.125,0.0,0.0,0.0
435,1695809559298,0.3154297,0.93359375,-0.12402344,-0.03125,-0.0625,0.125,0.0,0.0,0.0
436,1695809559358,0.3203125,0.92871094,-0.11621094,-0.28125,-0.4375,-0.0625,0.0,0.0,0.0
437,1695809559388,0.31347656,0.9296875,-0.12207031,-0.40625,-0.125,0.125,0.0,0.0,0.0
438,1695809559418,0.31347656,0.9326172,-0.11816406,0.21875,0.1875,0.125,0.0,0.0,0.0
439,1695809559477,0.31152344,0.9267578,-0.12695312,-0.03125,-0.3125,0.1875,0.0,0.0,0.0
440,1695809559508,0.3154297,0.93359375,-0.12890625,-0.15625,-0.3125,0.3125,0.0,0.0,0.0
441,1695809559537,0.31445312,0.9326172,-0.11035156,0.09375,-0.5,0.3125,0.0,0.0,0.0
442,1695809559598,0.30859375,0.9248047,-0.111328125,-0.03125,-0.8125,0.3125,0.0,0.0,0.0
443,1695809559628,0.31933594,0.9248047,-0.11621094,-0.03125,-0.125,0.3125,0.0,0.0,0.0
444,1695809559659,0.32128906,0.92285156,-0.123046875,0.15625,0.0625,0.125,0.0,0.0,0.0
445,1695809559718,0.31347656,0.92285156,-0.12988281,0.21875,0.59375,0.25,-14.25,37.6875,-136.25
446,1695809559748,0.30664062,0.9160156,-0.12207031,0.34375,0.125,0.125,0.0,0.0,0.0
447,1695809559778,0.30664062,0.9199219,-0.12402344,0.21875,0.125,0.3125,0.0,0.0,0.0
448,1695809559837,0.31347656,0.9296875,-0.13378906,0.34375,0.0625,0.25,0.0,0.0,0.0
449,1695809559868,0.3076172,0.91796875,-0.11230469,0.09375,0.3125,0.1875,0.0,0.0,0.0
450,1695809559898,0.3076172,0.9404297,-0.11425781,0.28125,0.46875,0.1875,0.0,0.0,0.0
451,1695809559958,0.3154297,0.92089844,-0.123046875,0.21875,0.3125,0.0625,0.0,0.0,0.0
452,1695809559989,0.32714844,0.9238281,-0.13183594,0.40625,0.125,0.125,0.0,0.0,0.0
453,1695809560019,0.3203125,0.9248047,-0.11816406,0.34375,0.0,0.375,0.0,0.0,0.0
454,1695809560081,0.30859375,0.93066406,-0.12109375,0.21875,-0.25,0.375,0.0,0.0,0.0
455,1695809560110,0.31640625,0.9326172,-0.12207031,0.09375,-0.1875,0.25,0.0,0.0,0.0
456,1695809560140,0.31152344,0.9267578,-0.11035156,0.34375,0.1875,0.3125,0.0,0.0,0.0
457,1695809560203,0.3125,0.93359375,-0.12695312,-0.09375,-0.0625,0.25,0.0,0.0,0.0
458,1695809560229,0.31152344,0.9248047,-0.10644531,0.21875,0.3125,0.4375,-13.8125,38.125,-135.625
459,1695809560264,0.3173828,0.9248047,-0.119140625,0.09375,0.0625,0.0,0.0,0.0,0.0
460,1695809560321,0.3173828,0.92089844,-0.12109375,-0.21875,-0.375,0.125,0.0,0.0,0.0
461,1695809560379,0.31933594,0.9277344,-0.1328125,0.03125,-0.25,0.3125,0.0,0.0,0.0
462,1695809560382,0.3232422,0.93652344,-0.125,-0.03125,-0.0625,0.375,0.0,0.0,0.0
463,1695809560441,0.31835938,0.92089844,-0.12890625,-0.03125,-0.1875,0.125,0.0,0.0,0.0
464,1695809560469,0.3125,0.92285156,-0.11816406,-0.03125,-0.125,0.1875,0.0,0.0,0.0
465,1695809560498,0.31933594,0.93359375,-0.12207031,0.15625,0.53125,0.3125,0.0,0.0,0.0
466,1695809560562,0.31347656,0.921875,-0.11425781,0.15625,0.25,-0.0625,0.0,0.0,0.0
467,1695809560590,0.31347656,0.9345703,-0.125,-0.46875,-0.4375,-0.0625,0.0,0.0,0.0
468,1695809560619,0.31347656,0.91796875,-0.13867188,-0.15625,0.3125,-0.125,0.0,0.0,0.0
469,1695809560680,0.31445312,0.9248047,-0.13574219,-0.21875,0.25,-0.3125,0.0,0.0,0.0
470,1695809560710,0.31445312,0.92871094,-0.12207031,0.03125,0.25,0.0625,-13.0625,38.5625,-136.125
471,1695809560740,0.31933594,0.9189453,-0.12011719,0.625,0.90625,0.0625,0.0,0.0,0.0
472,1695809560799,0.31347656,0.93066406,-0.1171875,0.625,0.40625,0.0,0.0,0.0,0.0
473,1695809560829,0.31054688,0.92578125,-0.12109375,-0.03125,-0.375,0.0,0.0,0.0,0.0
474,1695809560863,0.31152344,0.92578125,-0.12792969,-0.03125,0.0625,0.25,0.0,0.0,0.0
475,1695809560921,0.31445312,0.9248047,-0.12792969,-0.09375,-0.125,0.0625,0.0,0.0,0.0
476,1695809560953,0.31347656,0.92871094,-0.12109375,-0.03125,-0.1875,0.0,0.0,0.0,0.0
477,1695809560982,0.31152344,0.9267578,-0.12207031,0.03125,0.1875,0.3125,0.0,0.0,0.0
478,1695809561040,0.3203125,0.921875,-0.12597656,-0.03125,-0.375,-0.125,0.0,0.0,0.0
479,1695809561075,0.3125,0.9267578,-0.1328125,-0.34375,-0.5625,-0.125,0.0,0.0,0.0
480,1695809561129,0.3154297,0.9296875,-0.12207031,-0.15625,-0.0625,-0.125,0.0,0.0,0.0
481,1695809561162,0.3154297,0.92578125,-0.115234375,-0.21875,0.40625,0.0,0.0,0.0,0.0
482,1695809561191,0.3046875,0.9355469,-0.1171875,0.21875,0.375,0.0,0.0,0.0,0.0
483,1695809561250,0.30273438,0.9277344,-0.12988281,0.03125,0.0625,0.1875,-12.625,37.8125,-136.125
484,1695809561281,0.31152344,0.9238281,-0.11816406,0.03125,0.25,-0.0625,0.0,0.0,0.0
485,1695809561311,0.31152344,0.9316406,-0.12207031,-0.65625,-0.625,-0.125,0.0,0.0,0.0
486,1695809561340,0.31347656,0.9326172,-0.11621094,-0.15625,-0.0625,0.0625,0.0,0.0,0.0
487,1695809561399,0.31445312,0.9238281,-0.12207031,-0.21875,0.0625,0.3125,0.0,0.0,0.0
488,1695809561430,0.30859375,0.9267578,-0.12109375,-0.40625,-0.125,0.125,0.0,0.0,0.0
489,1695809561460,0.31835938,0.9238281,-0.125,-0.46875,-0.1875,-0.1875,0.0,0.0,0.0
490,1695809561522,0.3076172,0.9316406,-0.11621094,-0.53125,-0.4375,0.0,0.0,0.0,0.0
491,1695809561551,0.30664062,0.92578125,-0.123046875,0.03125,0.3125,0.25,0.0,0.0,0.0
492,1695809561583,0.31445312,0.9277344,-0.11425781,-0.03125,-0.1875,-0.0625,0.0,0.0,0.0
493,1695809561647,0.31347656,0.9296875,-0.12695312,-0.03125,-0.3125,0.1875,0.0,0.0,0.0
494,1695809561672,0.31347656,0.921875,-0.12109375,0.03125,0.65625,0.1875,0.0,0.0,0.0
495,1695809561731,0.31933594,0.9277344,-0.13183594,-0.28125,-0.25,-0.125,-12.875,36.625,-135.1875
496,1695809561764,0.3154297,0.9277344,-0.119140625,-0.34375,-0.5,-0.0625,0.0,0.0,0.0
497,1695809561792,0.3125,0.9238281,-0.140625,0.03125,0.3125,0.125,0.0,0.0,0.0
498,1695809561849,0.29882812,0.9267578,-0.11328125,0.09375,0.40625,0.0,0.0,0.0,0.0
499,1695809561881,0.29882812,0.9248047,-0.11621094,0.03125,0.125,-0.0625,0.0,0.0,0.0
500,1695809561912,0.3076172,0.9355469,-0.10546875,-0.46875,-0.0625,0.0625,0.0,0.0,0.0
501,1695809561972,0.30371094,0.9316406,-0.12109375,-0.40625,-0.1875,-0.125,0.0,0.0,0.0
502,1695809562004,0.3076172,0.92871094,-0.119140625,-0.34375,-0.125,0.0,0.0,0.0,0.0
503,1695809562033,0.30371094,0.93359375,-0.12011719,-0.09375,0.0,0.1875,0.0,0.0,0.0
504,1695809562090,0.3095703,0.9267578,-0.115234375,0.09375,-0.0625,0.3125,0.0,0.0,0.0
505,1695809562121,0.3046875,0.921875,-0.12011719,-0.09375,-0.75,0.1875,0.0,0.0,0.0
506,1695809562150,0.3017578,0.93066406,-0.11621094,-0.28125,-0.6875,0.4375,0.0,0.0,0.0
507,1695809562209,0.3125,0.9296875,-0.119140625,0.40625,-0.0625,0.5625,0.0,0.0,0.0
508,1695809562242,0.30859375,0.9296875,-0.115234375,0.09375,-0.6875,0.4375,-15.0,37.25,-135.9375
509,1695809562270,0.3154297,0.92089844,-0.119140625,-0.09375,-0.4375,0.3125,0.0,0.0,0.0
510,1695809562337,0.31445312,0.92578125,-0.1171875,0.09375,0.0625,0.25,0.0,0.0,0.0
511,1695809562361,0.3046875,0.92871094,-0.125,-0.28125,-0.5,0.25,0.0,0.0,0.0
512,1695809562391,0.31054688,0.93066406,-0.11230469,-0.09375,-0.0625,0.3125,0.0,0.0,0.0
513,1695809562451,0.31347656,0.93359375,-0.12207031,0.03125,-0.4375,0.4375,0.0,0.0,0.0
514,1695809562480,0.30664062,0.92089844,-0.11621094,0.40625,-0.375,0.375,0.0,0.0,0.0
515,1695809562512,0.3046875,0.9326172,-0.12207031,0.28125,0.0,0.4375,0.0,0.0,0.0
516,1695809562571,0.31054688,0.93066406,-0.12011719,0.21875,-0.125,0.25,0.0,0.0,0.0
517,1695809562601,0.29492188,0.92871094,-0.12207031,0.21875,0.1875,0.3125,0.0,0.0,0.0
518,1695809562661,0.31445312,0.92285156,-0.12109375,0.46875,0.46875,0.3125,0.0,0.0,0.0
519,1695809562691,0.31054688,0.921875,-0.115234375,0.5625,-0.4375,0.5,0.0,0.0,0.0
520,1695809562721,0.3125,0.93359375,-0.13085938,0.40625,-0.6875,0.4375,-13.0625,36.3125,-135.625
521,1695809562751,0.30371094,0.9326172,-0.12402344,0.40625,-0.125,0.4375,0.0,0.0,0.0
522,1695809562812,0.31347656,0.92578125,-0.11621094,0.5,0.1875,0.5625,0.0,0.0,0.0
523,1695809562841,0.30371094,0.92285156,-0.12402344,0.21875,-0.1875,0.25,0.0,0.0,0.0
524,1695809562870,0.30273438,0.92871094,-0.11328125,0.15625,0.0,0.1875,0.0,0.0,0.0
525,1695809562932,0.31640625,0.92285156,-0.12890625,0.21875,0.0,0.4375,0.0,0.0,0.0
526,1695809562962,0.31445312,0.9326172,-0.123046875,0.28125,0.125,0.3125,0.0,0.0,0.0
527,1695809562990,0.3125,0.93359375,-0.12890625,0.28125,0.0,0.3125,0.0,0.0,0.0
528,1695809563048,0.3125,0.9316406,-0.13378906,0.28125,-0.0625,0.375,0.0,0.0,0.0
529,1695809563078,0.31054688,0.9316406,-0.13085938,0.5,0.0625,0.5,0.0,0.0,0.0
530,1695809563108,0.3154297,0.9169922,-0.12109375,0.34375,-0.25,0.4375,0.0,0.0,0.0
531,1695809563170,0.31445312,0.92285156,-0.11425781,0.09375,-0.125,0.375,0.0,0.0,0.0
532,1695809563198,0.31054688,0.9355469,-0.12402344,0.625,0.0625,0.5,0.0,0.0,0.0
533,1695809563228,0.31054688,0.9238281,-0.123046875,0.15625,-0.125,0.4375,-13.375,37.8125,-136.6875
534,1695809563288,0.3232422,0.92089844,-0.12597656,0.09375,-0.125,0.4375,0.0,0.0,0.0
535,1695809563319,0.30664062,0.921875,-0.12988281,0.03125,-0.125,0.4375,0.0,0.0,0.0
536,1695809563350,0.31054688,0.92578125,-0.13867188,0.40625,0.0,0.3125,0.0,0.0,0.0
537,1695809563408,0.30859375,0.9316406,-0.12792969,0.625,0.0625,0.3125,0.0,0.0,0.0
538,1695809563437,0.30859375,0.9267578,-0.1328125,0.75,-0.1875,0.5,0.0,0.0,0.0
539,1695809563468,0.31347656,0.92871094,-0.12597656,0.34375,-0.125,0.5,0.0,0.0,0.0
540,1695809563530,0.31933594,0.92285156,-0.12109375,0.09375,-0.25,0.3125,0.0,0.0,0.0
541,1695809563558,0.3154297,0.9296875,-0.12597656,0.09375,0.0625,0.3125,0.0,0.0,0.0
542,1695809563588,0.3154297,0.92285156,-0.12597656,0.75,0.25,0.1875,0.0,0.0,0.0
543,1695809563649,0.32226562,0.92285156,-0.12988281,0.03125,0.0,0.125,0.0,0.0,0.0
544,1695809563677,0.3173828,0.9267578,-0.1328125,-0.03125,-0.0625,0.3125,0.0,0.0,0.0
545,1695809563708,0.31347656,0.9277344,-0.13574219,0.34375,0.125,0.4375,-13.8125,39.9375,-135.625
546,1695809563768,0.30664062,0.9267578,-0.123046875,0.6875,0.40625,0.125,0.0,0.0,0.0
547,1695809563798,0.31835938,0.9248047,-0.12792969,-0.03125,-0.0625,0.125,0.0,0.0,0.0
548,1695809563828,0.31640625,0.9277344,-0.1328125,-0.40625,0.0,0.0,0.0,0.0,0.0
549,1695809563890,0.31347656,0.92285156,-0.12597656,-0.15625,0.4375,-0.1875,0.0,0.0,0.0
550,1695809563919,0.30664062,0.9296875,-0.1328125,-0.34375,0.0,-0.125,0.0,0.0,0.0
551,1695809563951,0.3125,0.9248047,-0.13183594,-0.34375,0.0,-0.125,0.0,0.0,0.0
552,1695809564042,0.31445312,0.93359375,-0.12207031,-0.53125,-0.0625,0.0625,0.0,0.0,0.0
553,1695809564045,0.31152344,0.9238281,-0.12890625,-0.15625,-0.40625,-0.125,0.0,0.0,0.0
554,1695809564069,0.3125,0.92578125,-0.12890625,-0.40625,-0.53125,0.0,0.0,0.0,0.0
555,1695809564159,0.31347656,0.9355469,-0.12207031,-0.15625,-0.34375,0.125,0.0,0.0,0.0
556,1695809564162,0.31445312,0.92871094,-0.13183594,-0.15625,-0.21875,-0.0625,0.0,0.0,0.0
557,1695809564189,0.3232422,0.93359375,-0.12597656,-0.0625,-0.0625,-0.125,0.0,0.0,0.0
558,1695809564249,0.3125,0.9238281,-0.13476562,-0.28125,0.4375,-0.125,-13.5,37.25,-136.25
559,1695809564278,0.31347656,0.93652344,-0.14453125,0.0,0.3125,-0.0625,0.0,0.0,0.0
560,1695809564310,0.3251953,0.9277344,-0.13085938,-0.0625,0.125,0.0,0.0,0.0,0.0
561,1695809564402,0.31445312,0.9316406,-0.123046875,0.0,-0.0625,0.0,0.0,0.0,0.0
562,1695809564403,0.3076172,0.9277344,-0.13574219,0.125,0.3125,0.125,0.0,0.0,0.0
563,1695809564430,0.3125,0.9248047,-0.12792969,0.375,0.0625,0.0,0.0,0.0,0.0
564,1695809564491,0.31933594,0.9267578,-0.13378906,-0.0625,0.25,-0.25,0.0,0.0,0.0
565,1695809564521,0.3173828,0.93359375,-0.1328125,-0.46875,0.0625,-0.25,0.0,0.0,0.0
566,1695809564550,0.328125,0.9189453,-0.123046875,0.1875,0.3125,-0.125,0.0,0.0,0.0
567,1695809564612,0.31445312,0.9121094,-0.125,-0.46875,-0.0625,-0.1875,0.0,0.0,0.0
568,1695809564640,0.3203125,0.9277344,-0.13476562,-0.28125,0.25,-0.1875,0.0,0.0,0.0
569,1695809564672,0.3203125,0.92578125,-0.13378906,-0.0625,0.125,0.0,0.0,0.0,0.0
570,1695809564733,0.31933594,0.92578125,-0.12597656,-0.34375,-0.1875,-0.125,-12.625,36.3125,-135.0625
571,1695809564761,0.3154297,0.9267578,-0.12988281,-0.34375,-0.1875,-0.125,0.0,0.0,0.0
572,1695809564791,0.31347656,0.92871094,-0.119140625,-0.28125,-0.21875,-0.0625,0.0,0.0,0.0
573,1695809564855,0.31054688,0.9277344,-0.12988281,-0.34375,-0.1875,-0.3125,0.0,0.0,0.0
574,1695809564880,0.31640625,0.9248047,-0.12988281,-0.28125,-0.0625,-0.125,0.0,0.0,0.0
575,1695809564938,0.31640625,0.9345703,-0.12890625,-0.34375,-0.1875,0.0625,0.0,0.0,0.0
576,1695809564969,0.3173828,0.92578125,-0.13867188,-0.34375,0.0625,-0.125,0.0,0.0,0.0
577,1695809565000,0.30664062,0.9267578,-0.12402344,-0.28125,-0.1875,-0.1875,0.0,0.0,0.0
578,1695809565030,0.31640625,0.9199219,-0.12988281,-0.15625,0.4375,-0.1875,0.0,0.0,0.0
579,1695809565091,0.3203125,0.9248047,-0.140625,-0.21875,0.3125,-0.3125,0.0,0.0,0.0
580,1695809565121,0.3154297,0.92285156,-0.115234375,-0.21875,-0.0625,-0.3125,0.0,0.0,0.0
581,1695809565151,0.3154297,0.92578125,-0.13574219,0.0625,0.125,0.0625,0.0,0.0,0.0
582,1695809565214,0.31347656,0.9277344,-0.11230469,-0.34375,-0.46875,0.125,0.0,0.0,0.0
583,1695809565242,0.31445312,0.92089844,-0.12695312,-0.0625,-0.125,0.0,-12.4375,36.1875,-135.5
584,1695809565271,0.3125,0.9248047,-0.12890625,0.25,0.0625,0.0625,0.0,0.0,0.0
585,1695809565334,0.3125,0.91796875,-0.123046875,0.125,0.5,-0.25,0.0,0.0,0.0
586,1695809565362,0.31152344,0.9326172,-0.123046875,-0.28125,0.1875,-0.1875,0.0,0.0,0.0
587,1695809565391,0.3154297,0.9296875,-0.12890625,-0.28125,0.0,-0.0625,0.0,0.0,0.0
588,1695809565449,0.31347656,0.9248047,-0.13378906,-0.09375,0.0,0.0,0.0,0.0,0.0
589,1695809565479,0.31152344,0.9277344,-0.13671875,-0.0625,0.1875,-0.25,0.0,0.0,0.0
590,1695809565510,0.31835938,0.9316406,-0.13476562,0.0,0.3125,-0.25,0.0,0.0,0.0
591,1695809565572,0.31347656,0.9199219,-0.13671875,-0.0625,0.25,-0.25,0.0,0.0,0.0
592,1695809565600,0.3173828,0.9267578,-0.13671875,0.0,0.125,-0.0625,0.0,0.0,0.0
593,1695809565629,0.31933594,0.9160156,-0.13867188,-0.0625,0.0625,-0.125,0.0,0.0,0.0
594,1695809565694,0.30371094,0.92285156,-0.12988281,-0.15625,-0.0625,-0.1875,0.0,0.0,0.0
595,1695809565722,0.31347656,0.9267578,-0.13085938,0.0,0.0,0.0,-13.1875,37.25,-136.25
596,1695809565752,0.3154297,0.9267578,-0.123046875,-0.21875,-0.28125,0.0,0.0,0.0,0.0
597,1695809565812,0.32226562,0.9189453,-0.13183594,-0.15625,0.25,-0.0625,0.0,0.0,0.0
598,1695809565844,0.3095703,0.9267578,-0.13183594,0.0,0.1875,-0.3125,0.0,0.0,0.0
599,1695809565871,0.31445312,0.92285156,-0.140625,-0.09375,0.4375,-0.25,0.0,0.0,0.0
600,1695809565933,0.3203125,0.91796875,-0.1328125,0.125,0.0625,-0.1875,0.0,0.0,0.0
601,1695809565961,0.31640625,0.9248047,-0.13867188,-0.34375,-0.0625,-0.25,0.0,0.0,0.0
602,1695809565990,0.31835938,0.9248047,-0.12695312,-0.40625,-0.40625,-0.0625,0.0,0.0,0.0
603,1695809566051,0.31347656,0.9238281,-0.1328125,-0.21875,-0.1875,-0.125,0.0,0.0,0.0
604,1695809566081,0.31347656,0.92285156,-0.13085938,-0.34375,-0.46875,-0.25,0.0,0.0,0.0
605,1695809566112,0.3173828,0.9238281,-0.123046875,-0.34375,-0.59375,-0.0625,0.0,0.0,0.0
606,1695809566173,0.32128906,0.92578125,-0.12695312,-0.46875,-0.59375,-0.0625,0.0,0.0,0.0
607,1695809566201,0.32128906,0.9267578,-0.13867188,-0.28125,0.125,-0.1875,0.0,0.0,0.0
608,1695809566233,0.31152344,0.9296875,-0.13378906,0.0,0.125,-0.3125,-13.5,37.25,-135.9375
609,1695809566291,0.30859375,0.92871094,-0.13378906,-0.0625,0.3125,-0.125,0.0,0.0,0.0
610,1695809566322,0.3095703,0.93066406,-0.13867188,0.0625,0.0625,-0.25,0.0,0.0,0.0
611,1695809566356,0.31347656,0.92578125,-0.12988281,0.1875,0.375,0.0,0.0,0.0,0.0
612,1695809566411,0.31933594,0.9267578,-0.13769531,-0.21875,-0.1875,-0.3125,0.0,0.0,0.0
613,1695809566441,0.3125,0.91796875,-0.13183594,0.0,-0.0625,-0.1875,0.0,0.0,0.0
614,1695809566471,0.3154297,0.93066406,-0.12792969,-0.09375,-0.0625,0.0625,0.0,0.0,0.0
615,1695809566531,0.31445312,0.9248047,-0.14160156,0.0625,0.0625,0.0,0.0,0.0,0.0
616,1695809566563,0.3232422,0.93652344,-0.13867188,0.125,0.25,-0.0625,0.0,0.0,0.0
617,1695809566592,0.31152344,0.92285156,-0.12597656,0.0625,0.1875,-0.125,0.0,0.0,0.0
618,1695809566651,0.31054688,0.9248047,-0.12695312,0.1875,0.5,-0.125,0.0,0.0,0.0
619,1695809566681,0.3154297,0.93359375,-0.1171875,-0.28125,0.25,-0.125,0.0,0.0,0.0
620,1695809566712,0.31445312,0.92578125,-0.13378906,-0.0625,0.4375,-0.1875,-12.875,36.625,-137.0
621,1695809566773,0.3154297,0.92089844,-0.13476562,0.375,0.3125,-0.1875,0.0,0.0,0.0
622,1695809566803,0.31347656,0.92871094,-0.14355469,-0.21875,-0.0625,-0.0625,0.0,0.0,0.0
623,1695809566830,0.31835938,0.921875,-0.12890625,-0.53125,-0.21875,-0.1875,0.0,0.0,0.0
624,1695809566892,0.31054688,0.9267578,-0.14550781,-0.21875,-0.1875,-0.3125,0.0,0.0,0.0
625,1695809566921,0.3203125,0.92871094,-0.13964844,-0.21875,-0.0625,-0.3125,0.0,0.0,0.0
626,1695809566951,0.31445312,0.9199219,-0.13476562,-0.21875,0.0,-0.0625,0.0,0.0,0.0
627,1695809567011,0.31347656,0.9238281,-0.12207031,0.0625,0.0625,-0.25,0.0,0.0,0.0
628,1695809567039,0.31152344,0.92089844,-0.140625,-0.34375,0.0,-0.1875,0.0,0.0,0.0
629,1695809567070,0.3232422,0.92089844,-0.14550781,0.0,0.25,-0.0625,0.0,0.0,0.0
630,1695809567131,0.31835938,0.92578125,-0.12988281,-0.15625,0.125,-0.125,0.0,0.0,0.0
631,1695809567162,0.31152344,0.92089844,-0.140625,-0.59375,-0.59375,-0.25,0.0,0.0,0.0
632,1695809567223,0.31640625,0.9169922,-0.13671875,-0.34375,-0.0625,-0.25,0.0,0.0,0.0
633,1695809567252,0.3154297,0.9189453,-0.12792969,-0.21875,0.125,-0.25,-12.125,36.9375,-137.875
634,1695809567281,0.32128906,0.93066406,-0.140625,-0.28125,0.0,-0.3125,0.0,0.0,0.0
635,1695809567314,0.32226562,0.9238281,-0.14648438,-0.46875,-0.21875,-0.1875,0.0,0.0,0.0
636,1695809567373,0.3125,0.9267578,-0.12988281,-0.53125,-0.21875,-0.125,0.0,0.0,0.0
637,1695809567402,0.32617188,0.9248047,-0.13671875,-0.59375,-0.0625,-0.1875,0.0,0.0,0.0
638,1695809567432,0.3017578,0.92089844,-0.14648438,-0.71875,-0.53125,-0.25,0.0,0.0,0.0
639,1695809567489,0.31152344,0.93359375,-0.12988281,-0.53125,-0.53125,-0.125,0.0,0.0,0.0
640,1695809567519,0.31640625,0.92089844,-0.13574219,-0.15625,0.0,-0.1875,0.0,0.0,0.0
641,1695809567549,0.30664062,0.92578125,-0.12109375,-0.40625,-0.34375,-0.25,0.0,0.0,0.0
642,1695809567614,0.31445312,0.9248047,-0.12792969,-0.15625,-0.125,-0.0625,0.0,0.0,0.0
643,1695809567641,0.3232422,0.9169922,-0.14355469,-0.40625,0.0,-0.1875,0.0,0.0,0.0
644,1695809567671,0.3076172,0.9248047,-0.13378906,-0.28125,0.25,-0.25,0.0,0.0,0.0
645,1695809567732,0.32128906,0.91796875,-0.14746094,-0.53125,-0.0625,-0.125,-13.375,37.0625,-137.4375
646,1695809567765,0.32226562,0.9248047,-0.13867188,-0.125,-0.40625,0.03125,0.0,0.0,0.0
647,1695809567790,0.31835938,0.921875,-0.13671875,-0.125,-0.46875,-0.03125,0.0,0.0,0.0
648,1695809567852,0.32128906,0.9296875,-0.140625,-0.3125,-0.34375,-0.09375,0.0,0.0,0.0
649,1695809567882,0.3125,0.9277344,-0.1328125,-0.125,-0.40625,0.09375,0.0,0.0,0.0
650,1695809567910,0.31152344,0.9345703,-0.13671875,-0.0625,0.09375,0.21875,0.0,0.0,0.0
651,1695809567973,0.32226562,0.9189453,-0.12695312,-0.1875,-0.40625,0.09375,0.0,0.0,0.0
652,1695809568003,0.3154297,0.92871094,-0.13769531,-0.4375,-1.09375,0.28125,0.0,0.0,0.0
653,1695809568031,0.31640625,0.92285156,-0.13671875,-0.25,-0.78125,0.21875,0.0,0.0,0.0
654,1695809568090,0.31445312,0.92578125,-0.13476562,-0.3125,-1.1875,0.15625,0.0,0.0,0.0
655,1695809568126,0.31347656,0.92871094,-0.14355469,-0.4375,-0.84375,0.03125,0.0,0.0,0.0
656,1695809568153,0.3251953,0.9199219,-0.14160156,-0.1875,-0.46875,0.21875,0.0,0.0,0.0
657,1695809568212,0.32128906,0.9199219,-0.13476562,-0.25,-0.09375,-0.09375,0.0,0.0,0.0
658,1695809568244,0.31054688,0.92871094,-0.13964844,-0.46875,0.03125,-0.21875,-12.4375,36.1875,-135.9375
659,1695809568279,0.3125,0.9199219,-0.13964844,-0.125,-0.15625,0.09375,0.0,0.0,0.0
660,1695809568332,0.32226562,0.93066406,-0.14257812,0.125,0.25,0.03125,0.0,0.0,0.0
661,1695809568365,0.31152344,0.9267578,-0.13671875,-0.125,0.09375,-0.03125,0.0,0.0,0.0
662,1695809568390,0.31933594,0.9248047,-0.12792969,0.125,0.15625,-0.03125,0.0,0.0,0.0
663,1695809568449,0.31347656,0.9248047,-0.12695312,-0.125,0.09375,-0.21875,0.0,0.0,0.0
664,1695809568478,0.31933594,0.9316406,-0.12890625,-0.90625,-0.34375,-0.40625,0.0,0.0,0.0
665,1695809568509,0.31347656,0.9316406,-0.140625,-0.1875,-0.09375,-0.09375,0.0,0.0,0.0
666,1695809568572,0.31640625,0.9169922,-0.12988281,-0.3125,-0.28125,0.21875,0.0,0.0,0.0
667,1695809568598,0.31933594,0.92285156,-0.13867188,-0.125,-0.46875,0.09375,0.0,0.0,0.0
668,1695809568629,0.31152344,0.92578125,-0.13183594,-0.125,-0.53125,0.09375,0.0,0.0,0.0
669,1695809568689,0.3173828,0.9277344,-0.13574219,0.25,-0.09375,0.03125,0.0,0.0,0.0
670,1695809568719,0.3076172,0.921875,-0.13378906,0.375,0.25,0.21875,-13.0625,35.3125,-136.6875
671,1695809568749,0.31445312,0.9238281,-0.1328125,0.125,0.09375,-0.03125,0.0,0.0,0.0
672,1695809568810,0.3154297,0.92871094,-0.13867188,0.25,0.15625,-0.15625,0.0,0.0,0.0
673,1695809568844,0.32226562,0.9267578,-0.13085938,0.375,0.3125,-0.03125,0.0,0.0,0.0
674,1695809568872,0.31445312,0.92285156,-0.13671875,0.0625,0.1875,0.09375,0.0,0.0,0.0
675,1695809568933,0.31835938,0.92871094,-0.13867188,0.3125,-0.15625,0.03125,0.0,0.0,0.0
676,1695809568964,0.31152344,0.92871094,-0.125,0.3125,-0.09375,0.03125,0.0,0.0,0.0
677,1695809568991,0.31835938,0.92089844,-0.13769531,0.25,0.25,0.09375,0.0,0.0,0.0
678,1695809569052,0.31152344,0.93359375,-0.13378906,0.375,-0.03125,0.09375,0.0,0.0,0.0
679,1695809569084,0.31054688,0.92285156,-0.140625,0.6875,0.375,0.09375,0.0,0.0,0.0
680,1695809569113,0.3203125,0.9248047,-0.140625,0.3125,0.25,0.09375,0.0,0.0,0.0
681,1695809569170,0.31445312,0.9375,-0.14453125,-0.125,-0.46875,0.15625,0.0,0.0,0.0
682,1695809569200,0.31347656,0.92578125,-0.140625,-0.375,0.03125,-0.03125,0.0,0.0,0.0
683,1695809569232,0.31152344,0.9296875,-0.13378906,0.1875,0.03125,0.03125,-12.4375,36.9375,-137.3125
684,1695809569292,0.31347656,0.9277344,-0.13867188,-0.0625,0.03125,0.15625,0.0,0.0,0.0
685,1695809569322,0.31933594,0.9277344,-0.13378906,-0.125,-0.15625,0.03125,0.0,0.0,0.0
686,1695809569352,0.3125,0.93359375,-0.14160156,-0.25,-0.34375,0.09375,0.0,0.0,0.0
687,1695809569415,0.3154297,0.92285156,-0.12207031,0.1875,0.1875,0.03125,0.0,0.0,0.0
688,1695809569441,0.32421875,0.9248047,-0.14648438,0.25,-0.15625,-0.03125,0.0,0.0,0.0
689,1695809569503,0.31054688,0.9277344,-0.13964844,-0.375,-0.15625,-0.03125,0.0,0.0,0.0
690,1695809569529,0.3154297,0.92578125,-0.14355469,-0.125,0.03125,-0.15625,0.0,0.0,0.0
691,1695809569560,0.32421875,0.92578125,-0.12402344,0.25,-0.03125,0.03125,0.0,0.0,0.0
692,1695809569591,0.31835938,0.92089844,-0.12988281,-0.125,-0.03125,0.09375,0.0,0.0,0.0
693,1695809569652,0.30371094,0.9189453,-0.14648438,-0.25,0.15625,0.09375,0.0,0.0,0.0
694,1695809569681,0.31445312,0.9345703,-0.13378906,0.1875,-0.03125,0.03125,0.0,0.0,0.0
695,1695809569711,0.32128906,0.9189453,-0.12792969,0.0625,0.09375,-0.03125,-13.375,38.125,-135.625
696,1695809569772,0.3154297,0.9199219,-0.14550781,-0.375,-0.03125,-0.15625,0.0,0.0,0.0
697,1695809569802,0.32128906,0.9248047,-0.13964844,-0.125,-0.03125,-0.09375,0.0,0.0,0.0
698,1695809569830,0.3232422,0.9267578,-0.13378906,0.125,0.03125,0.09375,0.0,0.0,0.0
699,1695809569892,0.32226562,0.92285156,-0.13769531,0.0625,-0.15625,-0.15625,0.0,0.0,0.0
700,1695809569922,0.3173828,0.9140625,-0.123046875,-0.53125,-0.21875,-0.15625,0.0,0.0,0.0
701,1695809569953,0.3232422,0.92871094,-0.125,-0.4375,0.09375,0.03125,0.0,0.0,0.0
702,1695809570011,0.3125,0.9345703,-0.13574219,0.25,0.09375,0.09375,0.0,0.0,0.0
703,1695809570041,0.3154297,0.9238281,-0.13574219,0.25,0.3125,-0.09375,0.0,0.0,0.0
704,1695809570070,0.31835938,0.9296875,-0.13476562,-0.375,-0.46875,0.15625,0.0,0.0,0.0
705,1695809570128,0.31054688,0.9199219,-0.11816406,-0.25,-0.40625,0.09375,0.0,0.0,0.0
706,1695809570158,0.31152344,0.9277344,-0.13964844,0.25,0.15625,0.15625,0.0,0.0,0.0
707,1695809570189,0.31933594,0.9248047,-0.13867188,0.125,0.1875,-0.09375,0.0,0.0,0.0
708,1695809570252,0.3173828,0.9248047,-0.1484375,-0.0625,0.15625,0.03125,-12.875,36.9375,-137.625
709,1695809570283,0.31152344,0.92578125,-0.13867188,0.125,0.4375,-0.09375,0.0,0.0,0.0
710,1695809570313,0.33007812,0.9169922,-0.13867188,0.0625,0.15625,-0.09375,0.0,0.0,0.0
711,1695809570374,0.31640625,0.92089844,-0.13574219,0.125,0.3125,0.03125,0.0,0.0,0.0
712,1695809570400,0.31640625,0.9277344,-0.13964844,0.375,0.5625,0.15625,0.0,0.0,0.0
713,1695809570433,0.32128906,0.9169922,-0.14550781,-0.125,0.15625,-0.03125,0.0,0.0,0.0
714,1695809570489,0.31445312,0.92285156,-0.13867188,0.125,0.3125,-0.15625,0.0,0.0,0.0
715,1695809570522,0.3203125,0.9248047,-0.14648438,-0.0625,0.09375,0.03125,0.0,0.0,0.0
716,1695809570550,0.32128906,0.9248047,-0.15234375,-0.0625,0.03125,0.03125,0.0,0.0,0.0
717,1695809570612,0.31640625,0.92578125,-0.14355469,0.0625,0.09375,-0.09375,0.0,0.0,0.0
718,1695809570641,0.3173828,0.9169922,-0.12792969,-0.125,-0.09375,-0.15625,0.0,0.0,0.0
719,1695809570671,0.3251953,0.9189453,-0.13964844,-0.25,0.03125,-0.09375,0.0,0.0,0.0
720,1695809570732,0.3154297,0.9199219,-0.14550781,-0.375,-0.15625,-0.15625,-12.875,37.25,-137.0
721,1695809570768,0.32226562,0.921875,-0.13964844,-0.125,0.15625,-0.09375,0.0,0.0,0.0
722,1695809570792,0.31933594,0.9248047,-0.14355469,0.125,0.25,0.03125,0.0,0.0,0.0
723,1695809570850,0.3203125,0.9267578,-0.14746094,-0.125,-0.21875,-0.15625,0.0,0.0,0.0
724,1695809570882,0.3203125,0.9238281,-0.13964844,-0.4375,-0.34375,0.09375,0.0,0.0,0.0
725,1695809570909,0.31054688,0.9121094,-0.14160156,-0.125,0.03125,0.03125,0.0,0.0,0.0
726,1695809570970,0.31640625,0.92871094,-0.14160156,-0.0625,0.1875,-0.46875,0.0,0.0,0.0
727,1695809571002,0.32910156,0.9316406,-0.1484375,-0.25,-0.21875,-0.15625,0.0,0.0,0.0
728,1695809571034,0.32128906,0.9296875,-0.13671875,-0.25,-0.03125,0.21875,0.0,0.0,0.0
729,1695809571091,0.3154297,0.9345703,-0.13769531,-0.0625,0.25,-0.15625,0.0,0.0,0.0
730,1695809571124,0.31347656,0.92871094,-0.14746094,0.0625,0.15625,-0.03125,0.0,0.0,0.0
731,1695809571152,0.3173828,0.92578125,-0.1484375,-0.0625,0.1875,-0.09375,0.0,0.0,0.0
732,1695809571209,0.3173828,0.92089844,-0.13769531,-0.125,-0.28125,0.03125,0.0,0.0,0.0
733,1695809571240,0.32617188,0.9238281,-0.14257812,0.25,0.25,-0.09375,-11.6875,36.9375,-137.875
734,1695809571274,0.31933594,0.9199219,-0.14648438,0.1875,0.15625,-0.03125,0.0,0.0,0.0
735,1695809571332,0.31054688,0.93359375,-0.13476562,-0.0625,0.15625,0.09375,0.0,0.0,0.0
736,1695809571364,0.31445312,0.9267578,-0.1328125,-0.0625,0.09375,-0.03125,0.0,0.0,0.0
737,1695809571392,0.31347656,0.92871094,-0.13671875,0.125,0.15625,-0.21875,0.0,0.0,0.0
738,1695809571452,0.32226562,0.92578125,-0.13671875,-0.125,0.03125,-0.03125,0.0,0.0,0.0
739,1695809571483,0.32421875,0.92285156,-0.13183594,-0.3125,0.15625,0.09375,0.0,0.0,0.0
740,1695809571510,0.32128906,0.92089844,-0.13867188,-0.0625,0.375,-0.09375,0.0,0.0,0.0
741,1695809571569,0.32226562,0.9238281,-0.13476562,-0.1875,-0.21875,0.03125,0.0,0.0,0.0
742,1695809571601,0.3173828,0.91796875,-0.14355469,-0.25,-0.46875,-0.09375,0.0,0.0,0.0
743,1695809571630,0.3154297,0.9238281,-0.12597656,-0.25,-0.34375,-0.15625,0.0,0.0,0.0
744,1695809571692,0.31933594,0.9277344,-0.12890625,-0.125,-0.28125,-0.03125,0.0,0.0,0.0
745,1695809571722,0.31835938,0.921875,-0.12792969,-0.0625,0.15625,-0.21875,-12.875,37.25,-137.625
746,1695809571783,0.3154297,0.9238281,-0.140625,-0.0625,0.09375,-0.03125,0.0,0.0,0.0
747,1695809571813,0.32226562,0.9248047,-0.14355469,-0.125,0.375,-0.09375,0.0,0.0,0.0
748,1695809571842,0.3173828,0.91503906,-0.12597656,0.0,0.375,-0.03125,0.0,0.0,0.0
749,1695809571872,0.32421875,0.92578125,-0.14453125,0.0,0.5,-0.21875,0.0,0.0,0.0
750,1695809571936,0.32226562,0.9189453,-0.13867188,0.125,0.3125,-0.15625,0.0,0.0,0.0
751,1695809571961,0.31933594,0.9267578,-0.13574219,-0.0625,-0.15625,0.03125,0.0,0.0,0.0
752,1695809571992,0.31640625,0.92871094,-0.15527344,-0.0625,0.5,-0.15625,0.0,0.0,0.0
753,1695809572054,0.3125,0.921875,-0.14550781,-0.1875,-0.09375,-0.09375,0.0,0.0,0.0
754,1695809572081,0.31152344,0.9189453,-0.14160156,-0.1875,0.1875,-0.09375,0.0,0.0,0.0
755,1695809572112,0.3203125,0.9248047,-0.13769531,0.125,0.625,-0.28125,0.0,0.0,0.0
756,1695809572172,0.3154297,0.9296875,-0.12402344,0.0,-0.03125,-0.09375,0.0,0.0,0.0
757,1695809572199,0.3173828,0.9121094,-0.14355469,-0.25,0.25,-0.15625,0.0,0.0,0.0
758,1695809572231,0.31640625,0.92089844,-0.14453125,-0.3125,0.3125,-0.34375,-13.0625,36.0625,-138.8125
759,1695809572293,0.31347656,0.92285156,-0.13867188,-0.375,-0.15625,-0.09375,0.0,0.0,0.0
760,1695809572321,0.31835938,0.92871094,-0.14648438,0.0,0.3125,-0.03125,0.0,0.0,0.0
761,1695809572353,0.31347656,0.921875,-0.140625,-0.0625,0.1875,-0.34375,0.0,0.0,0.0
762,1695809572410,0.31933594,0.9267578,-0.13574219,-0.46875,-0.21875,-0.09375,0.0,0.0,0.0
763,1695809572442,0.32421875,0.9199219,-0.13964844,-0.46875,-0.15625,-0.03125,0.0,0.0,0.0
764,1695809572469,0.3251953,0.9160156,-0.14453125,-0.3125,-0.34375,-0.28125,0.0,0.0,0.0
765,1695809572528,0.3173828,0.9296875,-0.140625,-0.25,-0.28125,-0.28125,0.0,0.0,0.0
766,1695809572559,0.31347656,0.92089844,-0.13769531,0.0625,0.15625,-0.03125,0.0,0.0,0.0
767,1695809572588,0.31347656,0.92089844,-0.13085938,-0.0625,0.5625,-0.21875,0.0,0.0,0.0
768,1695809572650,0.3173828,0.9316406,-0.15039062,-0.0625,0.25,-0.34375,0.0,0.0,0.0
769,1695809572678,0.3203125,0.92578125,-0.13378906,0.0,0.5,-0.09375,0.0,0.0,0.0
770,1695809572708,0.3203125,0.9296875,-0.14257812,-0.1875,0.3125,-0.21875,-11.6875,36.625,-138.625
771,1695809572769,0.31445312,0.92285156,-0.140625,-0.25,-0.15625,-0.09375,0.0,0.0,0.0
772,1695809572798,0.3125,0.9238281,-0.14746094,0.1875,0.3125,0.03125,0.0,0.0,0.0
773,1695809572830,0.3203125,0.9267578,-0.13964844,-0.0625,0.5625,0.03125,0.0,0.0,0.0
774,1695809572893,0.3173828,0.9169922,-0.14453125,-0.25,-0.15625,-0.34375,0.0,0.0,0.0
775,1695809572920,0.31445312,0.93066406,-0.14648438,-0.46875,-0.09375,-0.28125,0.0,0.0,0.0
776,1695809572950,0.3173828,0.92578125,-0.12988281,-0.0625,0.09375,-0.03125,0.0,0.0,0.0
777,1695809573011,0.3173828,0.9277344,-0.14648438,-0.1875,-0.03125,-0.21875,0.0,0.0,0.0
778,1695809573041,0.3173828,0.9326172,-0.14355469,0.0,0.15625,-0.09375,0.0,0.0,0.0
779,1695809573071,0.33007812,0.9267578,-0.12988281,0.3125,0.09375,0.09375,0.0,0.0,0.0
780,1695809573130,0.31445312,0.921875,-0.13476562,-0.25,-0.15625,-0.15625,0.0,0.0,0.0
781,1695809573163,0.3251953,0.9296875,-0.12792969,-0.3125,-0.15625,-0.09375,0.0,0.0,0.0
782,1695809573191,0.3173828,0.9277344,-0.13085938,-0.125,-0.09375,-0.03125,0.0,0.0,0.0
783,1695809573249,0.31445312,0.921875,-0.14648438,-0.125,-0.09375,-0.15625,-12.625,37.0625,-137.4375
784,1695809573280,0.31933594,0.9238281,-0.14648438,-0.4375,-0.15625,-0.15625,0.0,0.0,0.0
785,1695809573311,0.3173828,0.921875,-0.14257812,0.1875,0.375,0.03125,0.0,0.0,0.0
786,1695809573370,0.3076172,0.92089844,-0.13964844,-0.0625,0.25,-0.15625,0.0,0.0,0.0
787,1695809573400,0.31445312,0.9248047,-0.14648438,-0.125,0.25,-0.21875,0.0,0.0,0.0
788,1695809573430,0.32617188,0.9238281,-0.13867188,-0.125,0.03125,-0.09375,0.0,0.0,0.0
789,1695809573491,0.31933594,0.9267578,-0.14160156,-0.3125,-0.09375,-0.15625,0.0,0.0,0.0
790,1695809573524,0.31933594,0.92285156,-0.13476562,0.0625,-0.03125,-0.03125,0.0,0.0,0.0
791,1695809573552,0.32226562,0.9248047,-0.12207031,-0.53125,-0.03125,-0.21875,0.0,0.0,0.0
792,1695809573609,0.31933594,0.9238281,-0.14648438,-0.46875,0.4375,-0.28125,0.0,0.0,0.0
793,1695809573640,0.31445312,0.9199219,-0.13085938,0.0,0.25,-0.09375,0.0,0.0,0.0
794,1695809573670,0.31933594,0.9238281,-0.13671875,-0.125,-0.15625,-0.09375,0.0,0.0,0.0
795,1695809573730,0.3203125,0.92871094,-0.13183594,-0.125,-0.15625,-0.03125,-13.8125,36.0625,-137.4375
796,1695809573761,0.3154297,0.9296875,-0.13867188,-0.3125,-0.65625,0.09375,0.0,0.0,0.0
797,1695809573791,0.3095703,0.9199219,-0.13867188,-0.25,-0.40625,0.09375,0.0,0.0,0.0
798,1695809573852,0.31347656,0.9277344,-0.14355469,-0.3125,-0.46875,-0.03125,0.0,0.0,0.0
799,1695809573882,0.31640625,0.92285156,-0.13964844,-0.3125,-0.28125,-0.09375,0.0,0.0,0.0
800,1695809573912,0.31445312,0.9248047,-0.13769531,-0.0625,0.09375,0.03125,0.0,0.0,0.0
801,1695809573971,0.31835938,0.9189453,-0.140625,0.1875,0.15625,-0.03125,0.0,0.0,0.0
802,1695809574003,0.31152344,0.9326172,-0.13476562,-0.3125,-0.03125,-0.03125,0.0,0.0,0.0
803,1695809574061,0.31640625,0.9316406,-0.13476562,-0.125,0.03125,0.15625,0.0,0.0,0.0
804,1695809574091,0.31347656,0.92285156,-0.14453125,-0.125,-0.03125,-0.03125,0.0,0.0,0.0
805,1695809574122,0.31640625,0.9316406,-0.12792969,0.0625,0.375,-0.03125,0.0,0.0,0.0
806,1695809574151,0.31640625,0.921875,-0.13769531,-0.1875,0.09375,0.03125,0.0,0.0,0.0
807,1695809574209,0.31054688,0.92285156,-0.14550781,-0.125,0.375,-0.15625,0.0,0.0,0.0
808,1695809574240,0.3173828,0.9248047,-0.13769531,0.1875,0.3125,-0.03125,-13.9375,36.625,-137.0
809,1695809574270,0.3173828,0.9189453,-0.14257812,0.0625,0.125,-0.03125,0.0,0.0,0.0
810,1695809574332,0.31933594,0.9248047,-0.13769531,0.1875,0.25,-0.03125,0.0,0.0,0.0
811,1695809574362,0.32128906,0.92578125,-0.13085938,0.0,-0.1875,-0.03125,0.0,0.0,0.0
812,1695809574392,0.3154297,0.92578125,-0.13183594,0.125,-0.25,0.03125,0.0,0.0,0.0
813,1695809574453,0.32421875,0.92089844,-0.13769531,-0.125,-0.1875,0.03125,0.0,0.0,0.0
814,1695809574482,0.31933594,0.92578125,-0.13867188,0.0,-0.3125,-0.03125,0.0,0.0,0.0
815,1695809574513,0.31347656,0.9238281,-0.13378906,-0.1875,-0.1875,0.09375,0.0,0.0,0.0
816,1695809574571,0.31152344,0.9267578,-0.14355469,0.0625,-0.125,-0.09375,0.0,0.0,0.0
817,1695809574601,0.3125,0.9326172,-0.13378906,0.125,0.3125,0.09375,0.0,0.0,0.0
818,1695809574630,0.31933594,0.9316406,-0.13085938,-0.1875,-0.3125,0.15625,0.0,0.0,0.0
819,1695809574695,0.3203125,0.9248047,-0.13867188,0.0625,0.3125,-0.03125,0.0,0.0,0.0
820,1695809574721,0.3173828,0.9296875,-0.14648438,0.125,-0.0625,0.15625,-13.1875,37.25,-135.9375
821,1695809574752,0.3251953,0.92578125,-0.14648438,0.0,-0.25,0.03125,0.0,0.0,0.0
822,1695809574813,0.31933594,0.92089844,-0.13574219,0.0625,0.125,0.03125,0.0,0.0,0.0
823,1695809574841,0.3173828,0.92285156,-0.13085938,-0.125,0.0,0.09375,0.0,0.0,0.0
824,1695809574873,0.3154297,0.92578125,-0.140625,0.4375,0.625,0.09375,0.0,0.0,0.0
825,1695809574932,0.30859375,0.9248047,-0.14550781,0.5,0.125,0.15625,0.0,0.0,0.0
826,1695809574963,0.31640625,0.9238281,-0.13574219,0.25,-0.125,0.28125,0.0,0.0,0.0
827,1695809574993,0.31054688,0.92871094,-0.12988281,0.0625,-0.125,0.15625,0.0,0.0,0.0
828,1695809575054,0.3154297,0.92089844,-0.13867188,0.3125,-0.125,0.15625,0.0,0.0,0.0
829,1695809575082,0.31835938,0.9160156,-0.14355469,0.3125,0.125,0.15625,0.0,0.0,0.0
830,1695809575110,0.31152344,0.9189453,-0.12890625,0.125,0.0625,-0.03125,0.0,0.0,0.0
831,1695809575173,0.30566406,0.9169922,-0.13769531,0.0,0.25,0.21875,0.0,0.0,0.0
832,1695809575201,0.32128906,0.9199219,-0.13671875,0.3125,0.4375,0.03125,0.0,0.0,0.0
833,1695809575231,0.32226562,0.92285156,-0.13964844,0.1875,0.125,0.09375,-13.1875,37.25,-137.3125
834,1695809575293,0.3173828,0.92285156,-0.13867188,-0.0625,-0.1875,0.03125,0.0,0.0,0.0
835,1695809575320,0.3203125,0.93066406,-0.14257812,0.0625,-0.0625,0.15625,0.0,0.0,0.0
836,1695809575351,0.30859375,0.91796875,-0.14257812,0.0,-0.25,0.03125,0.0,0.0,0.0
837,1695809575411,0.31933594,0.9277344,-0.13378906,-0.125,-0.25,0.03125,0.0,0.0,0.0
838,1695809575442,0.31445312,0.921875,-0.14648438,-0.0625,-0.0625,0.03125,0.0,0.0,0.0
839,1695809575472,0.31835938,0.9189453,-0.14257812,0.125,0.3125,0.03125,0.0,0.0,0.0
840,1695809575532,0.32226562,0.9238281,-0.13964844,0.3125,0.25,0.03125,0.0,0.0,0.0
841,1695809575564,0.3330078,0.9199219,-0.13671875,0.0,-0.25,0.03125,0.0,0.0,0.0
842,1695809575591,0.3251953,0.92285156,-0.15917969,-0.3125,-0.4375,0.03125,0.0,0.0,0.0
843,1695809575650,0.3251953,0.921875,-0.13671875,-0.0625,-0.4375,0.09375,0.0,0.0,0.0
844,1695809575680,0.3125,0.92285156,-0.14648438,0.0,-0.3125,0.09375,0.0,0.0,0.0
845,1695809575710,0.31347656,0.92578125,-0.1484375,0.0,-0.0625,0.03125,-13.1875,35.125,-137.0
846,1695809575772,0.31835938,0.9267578,-0.14257812,0.375,0.4375,0.03125,0.0,0.0,0.0
847,1695809575800,0.31933594,0.921875,-0.13574219,0.0625,0.125,0.09375,0.0,0.0,0.0
848,1695809575830,0.32226562,0.9189453,-0.13574219,0.0,0.4375,-0.15625,0.0,0.0,0.0
849,1695809575889,0.3173828,0.9296875,-0.1328125,0.3125,0.625,-0.03125,0.0,0.0,0.0
850,1695809575924,0.3203125,0.91796875,-0.14648438,0.3125,0.25,-0.03125,0.0,0.0,0.0
851,1695809575950,0.3154297,0.9199219,-0.14648438,0.4375,0.4375,-0.03125,0.0,0.0,0.0
852,1695809576012,0.32128906,0.9160156,-0.14648438,0.25,0.3125,-0.09375,0.0,0.0,0.0
853,1695809576043,0.31835938,0.9169922,-0.14355469,0.1875,0.375,0.03125,0.0,0.0,0.0
854,1695809576071,0.32421875,0.92578125,-0.13964844,0.0625,0.125,0.03125,0.0,0.0,0.0
855,1695809576133,0.31347656,0.921875,-0.13867188,0.0625,0.1875,-0.15625,0.0,0.0,0.0
856,1695809576165,0.3173828,0.9238281,-0.14550781,-0.25,0.0625,-0.09375,0.0,0.0,0.0
857,1695809576192,0.3154297,0.9248047,-0.12792969,-0.1875,-0.0625,0.15625,-12.0,37.5625,-136.125
858,1695809576251,0.3232422,0.9199219,-0.13574219,0.0,-0.125,-0.03125,0.0,0.0,0.0
859,1695809576282,0.31835938,0.92285156,-0.14355469,-0.25,-0.375,-0.09375,0.0,0.0,0.0
860,1695809576341,0.3154297,0.9169922,-0.13378906,-0.25,-0.3125,0.03125,0.0,0.0,0.0
861,1695809576370,0.31640625,0.9169922,-0.12402344,-0.0625,-0.3125,0.15625,0.0,0.0,0.0
862,1695809576400,0.31640625,0.92089844,-0.14746094,-0.1875,-0.71875,0.03125,0.0,0.0,0.0
863,1695809576432,0.31933594,0.9277344,-0.13378906,-0.125,-0.375,0.09375,0.0,0.0,0.0
864,1695809576492,0.3232422,0.9248047,-0.14453125,-0.1875,-0.4375,0.03125,0.0,0.0,0.0
865,1695809576522,0.32128906,0.9169922,-0.13476562,-0.25,0.0,-0.15625,0.0,0.0,0.0
866,1695809576552,0.31152344,0.9248047,-0.13476562,0.25,0.1875,0.09375,0.0,0.0,0.0
867,1695809576612,0.3203125,0.92089844,-0.14257812,0.0625,0.0625,-0.03125,0.0,0.0,0.0
868,1695809576640,0.3173828,0.9296875,-0.13183594,0.0625,0.1875,0.03125,0.0,0.0,0.0
869,1695809576672,0.31933594,0.92285156,-0.15136719,0.0,0.25,-0.15625,0.0,0.0,0.0
870,1695809576733,0.32128906,0.9248047,-0.13769531,0.0625,0.1875,-0.28125,-11.375,36.625,-137.875
871,1695809576760,0.31152344,0.92089844,-0.12988281,-0.0625,0.125,-0.03125,0.0,0.0,0.0
872,1695809576791,0.32617188,0.9169922,-0.140625,-0.1875,0.25,-0.21875,0.0,0.0,0.0
873,1695809576852,0.3154297,0.93066406,-0.13769531,0.125,0.4375,-0.28125,0.0,0.0,0.0
874,1695809576884,0.31640625,0.9189453,-0.1328125,-0.0625,0.4375,-0.21875,0.0,0.0,0.0
875,1695809576914,0.32421875,0.9189453,-0.13867188,0.0,0.375,-0.15625,0.0,0.0,0.0
876,1695809576973,0.3173828,0.92578125,-0.14453125,0.0625,0.1875,-0.09375,0.0,0.0,0.0
877,1695809577002,0.31347656,0.921875,-0.14550781,0.0,-0.125,-0.15625,0.0,0.0,0.0
878,1695809577032,0.31933594,0.9277344,-0.13769531,-0.1875,-0.125,-0.09375,0.0,0.0,0.0
879,1695809577094,0.3154297,0.9199219,-0.14160156,-0.0625,-0.0625,-0.03125,0.0,0.0,0.0
880,1695809577122,0.31933594,0.9189453,-0.12988281,-0.1875,-0.375,-0.03125,0.0,0.0,0.0
881,1695809577152,0.31347656,0.921875,-0.14257812,-0.1875,-0.375,-0.09375,0.0,0.0,0.0
882,1695809577212,0.3232422,0.92089844,-0.13769531,-0.25,-0.375,-0.03125,-12.625,37.0625,-137.75
883,1695809577241,0.3173828,0.9316406,-0.12792969,-0.375,-0.3125,-0.03125,0.0,0.0,0.0
884,1695809577272,0.31933594,0.9248047,-0.1328125,-0.1875,-0.25,0.03125,0.0,0.0,0.0
885,1695809577333,0.30859375,0.92578125,-0.13964844,-0.0625,-0.125,-0.03125,0.0,0.0,0.0
886,1695809577363,0.3203125,0.9189453,-0.14355469,0.25,0.25,0.15625,0.0,0.0,0.0
887,1695809577391,0.3154297,0.9277344,-0.13964844,0.25,0.0,0.15625,0.0,0.0,0.0
888,1695809577451,0.3125,0.92871094,-0.13964844,0.1875,0.3125,-0.03125,0.0,0.0,0.0
889,1695809577481,0.3154297,0.92871094,-0.13867188,0.125,0.3125,0.03125,0.0,0.0,0.0
890,1695809577513,0.31347656,0.91796875,-0.15039062,0.1875,0.3125,-0.03125,0.0,0.0,0.0
891,1695809577573,0.31445312,0.9316406,-0.13574219,0.0,0.5625,-0.03125,0.0,0.0,0.0
892,1695809577603,0.32617188,0.9238281,-0.12890625,0.25,0.0625,-0.15625,0.0,0.0,0.0
893,1695809577633,0.31445312,0.9296875,-0.14648438,-0.25,0.375,-0.21875,0.0,0.0,0.0
894,1695809577692,0.3076172,0.9248047,-0.140625,0.0625,0.375,-0.15625,0.0,0.0,0.0
895,1695809577720,0.31152344,0.92285156,-0.13671875,-0.0625,0.0625,0.03125,-14.25,36.625,-136.5625
896,1695809577751,0.3173828,0.9267578,-0.140625,-0.125,0.0,-0.09375,0.0,0.0,0.0
897,1695809577813,0.31640625,0.9277344,-0.140625,-0.125,-0.5625,-0.03125,0.0,0.0,0.0
898,1695809577839,0.31933594,0.9267578,-0.13378906,-0.1875,-0.375,-0.03125,0.0,0.0,0.0
899,1695809577868,0.31152344,0.9296875,-0.13085938,-0.3125,-0.125,-0.09375,0.0,0.0,0.0
900,1695809577928,0.3173828,0.9199219,-0.13183594,-0.375,-0.5625,-0.09375,0.0,0.0,0.0
