,timestamp,accel_x,accel_y,accel_z,gyro_x,gyro_y,gyro_z,mag_x,mag_y,mag_z
0,1696168272922,-1.3105469,-0.20703125,0.01171875,51.0,-16.1875,0.90625,0.0,0.0,0.0
1,1696168272981,-0.8798828,-0.08203125,-0.0146484375,34.71875,-31.4375,10.84375,0.0,0.0,0.0
2,1696168273011,-1.0380859,-0.21289062,0.18652344,29.34375,-20.15625,20.4375,0.0,0.0,0.0
3,1696168273042,-1.0986328,-0.21582031,0.11230469,-17.90625,-11.6875,-23.15625,0.0,0.0,0.0
4,1696168273102,-1.0644531,-0.3095703,0.13867188,-26.0625,-38.84375,-53.1875,-45.0,16.6875,-113.625
5,1696168273132,-1.0126953,-0.3251953,0.12597656,-14.59375,-32.65625,-53.1875,0.0,0.0,0.0
6,1696168273162,-0.9628906,-0.19824219,0.12402344,3.46875,-27.65625,-47.75,0.0,0.0,0.0
7,1696168273222,-1.0498047,-0.1796875,0.057617188,22.03125,-18.03125,-24.3125,0.0,0.0,0.0
8,1696168273253,-0.953125,-0.21875,0.064453125,-1.53125,-14.0,-27.96875,0.0,0.0,0.0
9,1696168273281,-0.81152344,-0.15332031,0.13476562,-11.3125,0.03125,-26.25,0.0,0.0,0.0
10,1696168273341,-0.7919922,-0.20019531,0.12011719,-11.0,9.875,-7.21875,0.0,0.0,0.0
11,1696168273372,-0.7841797,-0.2890625,0.12402344,3.78125,13.53125,13.03125,0.0,0.0,0.0
12,1696168273402,-0.60253906,-0.2626953,0.18261719,10.25,13.96875,34.40625,0.0,0.0,0.0
13,1696168273462,-0.53027344,-0.27246094,0.08984375,-5.25,23.84375,65.21875,0.0,0.0,0.0
14,1696168273492,-1.0078125,-0.3671875,0.13671875,63.875,20.0,66.40625,0.0,0.0,0.0
15,1696168273522,-0.9902344,-0.38964844,0.18359375,76.78125,11.03125,52.21875,0.0,0.0,0.0
16,1696168273585,-1.0146484,-0.026367188,-0.017578125,41.65625,42.09375,26.90625,-47.125,13.5625,-112.25
17,1696168273614,-1.15625,-0.23632812,0.2783203,23.59375,69.375,12.0625,0.0,0.0,0.0
18,1696168273645,-1.0126953,-0.18066406,0.3017578,-13.25,10.65625,-6.65625,0.0,0.0,0.0
19,1696168273709,-1.0849609,-0.015625,0.1171875,-4.84375,2.84375,10.25,0.0,0.0,0.0
20,1696168273736,-1.3583984,-0.14257812,-0.064453125,-27.78125,45.21875,5.40625,0.0,0.0,0.0
21,1696168273766,-1.1757812,-0.1796875,0.0146484375,-61.1875,46.4375,-12.40625,0.0,0.0,0.0
22,1696168273826,-1.0839844,-0.3251953,0.07324219,-39.8125,2.375,-2.75,0.0,0.0,0.0
23,1696168273857,-1.0820312,-0.16015625,-0.032226562,6.8125,18.71875,-0.5625,0.0,0.0,0.0
24,1696168273889,-0.9042969,-0.21484375,-0.0859375,-23.15625,1.3125,-1.65625,0.0,0.0,0.0
25,1696168273949,-1.1621094,-0.15722656,-0.15917969,18.78125,35.75,12.875,0.0,0.0,0.0
26,1696168273974,-1.0634766,-0.14746094,-0.1953125,2.375,-2.28125,12.25,0.0,0.0,0.0
27,1696168274003,-0.9951172,-0.22167969,-0.08203125,1.4375,4.6875,3.34375,0.0,0.0,0.0
28,1696168274066,-0.9609375,-0.08105469,-0.12402344,22.6875,13.03125,3.46875,0.0,0.0,0.0
29,1696168274095,-0.9667969,-0.1328125,-0.08984375,12.0625,14.5,6.34375,-44.125,19.375,-122.0
30,1696168274127,-0.95410156,-0.16308594,-0.087890625,21.46875,11.9375,7.8125,0.0,0.0,0.0
31,1696168274184,-0.89746094,-0.2109375,-0.020507812,13.03125,1.03125,-4.90625,0.0,0.0,0.0
32,1696168274214,-0.8857422,-0.11035156,-0.07910156,15.5625,-14.125,-11.71875,0.0,0.0,0.0
33,1696168274244,-0.72753906,-0.19335938,-0.02734375,8.21875,-13.875,-14.59375,0.0,0.0,0.0
34,1696168274302,-0.9189453,-0.22265625,-0.0390625,-2.8125,-5.3125,-21.8125,0.0,0.0,0.0
35,1696168274332,-0.9111328,-0.17871094,-0.09472656,17.375,-9.21875,-18.15625,0.0,0.0,0.0
36,1696168274362,-0.9970703,-0.13769531,-0.08300781,-11.5,-16.0625,-12.71875,0.0,0.0,0.0
37,1696168274423,-0.9941406,-0.23632812,-0.13085938,-16.4375,1.3125,-7.03125,0.0,0.0,0.0
38,1696168274454,-1.0673828,-0.35351562,-0.09765625,-33.59375,13.0,-2.03125,0.0,0.0,0.0
39,1696168274481,-1.0205078,-0.2763672,-0.1640625,-12.90625,-21.25,-7.09375,0.0,0.0,0.0
40,1696168274542,-0.95703125,-0.3798828,-0.109375,-4.46875,-14.40625,-2.46875,0.0,0.0,0.0
41,1696168274572,-0.9873047,-0.34765625,0.059570312,37.03125,-12.40625,2.78125,-46.1875,17.5625,-120.625
42,1696168274602,-1.0869141,-0.1640625,-0.043945312,-4.65625,-22.84375,-14.125,0.0,0.0,0.0
43,1696168274664,-1.1816406,-0.3359375,0.068359375,-6.4375,-30.46875,-6.53125,0.0,0.0,0.0
44,1696168274694,-1.1435547,-0.2919922,0.049804688,11.75,-32.0625,-15.03125,0.0,0.0,0.0
45,1696168274726,-0.84472656,-0.1171875,0.025390625,38.1875,-46.9375,-12.84375,0.0,0.0,0.0
46,1696168274811,-1.0654297,-0.0068359375,0.13183594,-1.53125,-28.03125,-22.40625,0.0,0.0,0.0
47,1696168274813,-1.2929688,-0.11816406,0.10449219,-51.21875,-5.75,-35.71875,0.0,0.0,0.0
48,1696168274844,-1.0742188,-0.27246094,0.09863281,-60.8125,-15.09375,-43.65625,0.0,0.0,0.0
49,1696168274904,-1.0888672,-0.3623047,0.08203125,-30.09375,-5.3125,-32.59375,0.0,0.0,0.0
50,1696168274934,-1.0039062,-0.38867188,0.15625,-15.9375,-18.875,-35.0625,0.0,0.0,0.0
51,1696168274966,-0.9404297,-0.2734375,0.11621094,0.71875,-17.84375,-33.78125,0.0,0.0,0.0
52,1696168275027,-0.75878906,-0.13183594,0.052734375,6.8125,-9.78125,-14.96875,0.0,0.0,0.0
53,1696168275055,-0.6230469,-0.08984375,0.09472656,12.25,1.4375,4.25,0.0,0.0,0.0
54,1696168275115,-0.5410156,-0.13574219,0.13574219,16.9375,-17.28125,22.5625,-49.0625,11.5625,-110.625
55,1696168275176,-0.5957031,-0.12988281,0.06738281,-7.78125,-12.15625,46.5,0.0,0.0,0.0
56,1696168275180,-0.85253906,-0.39941406,0.1015625,-7.875,29.78125,51.1875,0.0,0.0,0.0
57,1696168275205,-0.9121094,-0.5332031,0.16308594,6.21875,21.65625,22.75,0.0,0.0,0.0
58,1696168275265,-1.0615234,-0.35546875,-0.08691406,31.0,40.75,14.375,0.0,0.0,0.0
59,1696168275294,-1.0078125,-0.25,0.17871094,34.09375,41.625,22.625,0.0,0.0,0.0
60,1696168275325,-1.0273438,-0.26367188,0.4248047,30.375,13.65625,17.375,0.0,0.0,0.0
61,1696168275384,-1.1162109,-0.3095703,0.22265625,11.40625,17.5,32.75,0.0,0.0,0.0
62,1696168275413,-1.1230469,-0.07910156,0.20605469,16.09375,22.8125,20.6875,0.0,0.0,0.0
63,1696168275443,-1.3212891,-0.107421875,-0.055664062,-29.6875,46.25,8.21875,0.0,0.0,0.0
64,1696168275505,-1.1152344,-0.25976562,-0.0703125,-28.875,-12.65625,7.125,0.0,0.0,0.0
65,1696168275536,-1.1074219,-0.37890625,-0.12695312,12.25,14.15625,-8.125,0.0,0.0,0.0
66,1696168275564,-1.0419922,-0.0126953125,-0.12890625,4.5625,26.15625,-10.15625,-46.9375,19.0625,-119.0
67,1696168275627,-1.2363281,-0.041992188,-0.049804688,8.03125,26.40625,22.6875,0.0,0.0,0.0
68,1696168275654,-1.0029297,-0.24609375,-0.103515625,2.0,8.71875,16.53125,0.0,0.0,0.0
69,1696168275684,-0.9667969,-0.16992188,-0.08105469,10.0625,10.46875,7.8125,0.0,0.0,0.0
70,1696168275746,-0.96875,-0.043945312,-0.07714844,-2.40625,16.78125,11.15625,0.0,0.0,0.0
71,1696168275774,-1.0068359,-0.13183594,-0.043945312,-11.4375,16.09375,14.625,0.0,0.0,0.0
72,1696168275804,-1.0009766,-0.23730469,-0.07128906,2.0,11.28125,17.5625,0.0,0.0,0.0
73,1696168275868,-0.98535156,-0.22558594,-0.0390625,12.375,5.125,11.9375,0.0,0.0,0.0
74,1696168275894,-0.9140625,-0.20898438,-0.033203125,5.46875,-3.0625,-0.6875,0.0,0.0,0.0
75,1696168275923,-0.79296875,-0.23730469,0.07128906,-23.625,-21.0625,-17.28125,0.0,0.0,0.0
76,1696168275988,-0.81152344,-0.22753906,-0.0068359375,-11.5,-23.5,-31.75,0.0,0.0,0.0
77,1696168276015,-0.85546875,-0.203125,-0.09472656,8.84375,0.40625,-23.09375,0.0,0.0,0.0
78,1696168276043,-0.7373047,-0.13671875,-0.049804688,-13.3125,-9.0,-16.96875,0.0,0.0,0.0
79,1696168276105,-1.2226562,-0.41601562,-0.09667969,-22.15625,33.375,-18.25,-46.5,19.375,-119.625
80,1696168276139,-0.8466797,-0.17382812,-0.020507812,-2.625,-28.75,-22.90625,0.0,0.0,0.0
81,1696168276163,-1.0654297,-0.12988281,-0.095703125,16.90625,-3.5,-1.46875,0.0,0.0,0.0
82,1696168276228,-1.0371094,-0.265625,-0.10449219,11.8125,7.5,7.8125,0.0,0.0,0.0
83,1696168276257,-1.0429688,-0.28222656,-0.026367188,-3.96875,-4.71875,5.0625,0.0,0.0,0.0
84,1696168276286,-0.9199219,-0.24414062,0.005859375,14.8125,-24.25,20.5625,0.0,0.0,0.0
85,1696168276344,-0.8886719,-0.3515625,-0.06542969,-0.4375,-14.3125,13.03125,0.0,0.0,0.0
86,1696168276373,-1.1552734,-0.3330078,0.009765625,2.125,6.9375,6.09375,0.0,0.0,0.0
87,1696168276405,-1.4648438,-0.1015625,0.1484375,-26.875,10.1875,-21.6875,0.0,0.0,0.0
88,1696168276465,-0.9824219,-0.07714844,-0.017578125,-4.09375,-56.28125,-19.125,0.0,0.0,0.0
89,1696168276493,-1.0546875,-0.12890625,0.11035156,-10.8125,-46.21875,-19.0,0.0,0.0,0.0
90,1696168276523,-1.1132812,-0.203125,-0.001953125,-29.5625,-17.28125,-27.0,0.0,0.0,0.0
91,1696168276585,-1.2021484,-0.10058594,0.07128906,-17.28125,-31.09375,-27.34375,-49.8125,17.5625,-110.625
92,1696168276617,-1.1757812,-0.35058594,0.07519531,-17.78125,-41.9375,-41.09375,0.0,0.0,0.0
93,1696168276647,-0.9199219,-0.3798828,0.15820312,-18.8125,-58.0625,-43.71875,0.0,0.0,0.0
94,1696168276705,-0.8955078,-0.29785156,0.1015625,5.1875,-23.40625,-31.3125,0.0,0.0,0.0
95,1696168276733,-0.94921875,-0.25,0.046875,-5.6875,7.5,-39.0625,0.0,0.0,0.0
96,1696168276769,-0.7841797,-0.15429688,0.11328125,-19.53125,12.8125,-33.09375,0.0,0.0,0.0
97,1696168276824,-0.6660156,-0.24023438,0.18554688,13.78125,-0.5,-2.75,0.0,0.0,0.0
98,1696168276856,-0.6152344,-0.3251953,0.16699219,48.25,-0.75,27.4375,0.0,0.0,0.0
99,1696168276885,-0.6767578,-0.20507812,0.103515625,38.4375,6.5625,27.21875,0.0,0.0,0.0
100,1696168276946,-0.7519531,-0.203125,0.140625,21.40625,23.84375,30.0625,0.0,0.0,0.0
101,1696168276976,-0.8232422,-0.21777344,0.11328125,25.9375,23.53125,37.03125,0.0,0.0,0.0
102,1696168277004,-1.0761719,-0.4140625,0.038085938,58.8125,38.5625,40.6875,0.0,0.0,0.0
103,1696168277065,-1.0712891,-0.40820312,0.21582031,48.375,49.0,29.46875,0.0,0.0,0.0
104,1696168277096,-1.2373047,-0.20117188,0.38085938,12.625,25.75,13.96875,-49.0625,16.25,-112.6875
105,1696168277131,-0.92089844,-0.27539062,0.040039062,-15.09375,1.5625,16.53125,0.0,0.0,0.0
106,1696168277186,-1.1113281,-0.22949219,0.24316406,-0.625,29.03125,8.15625,0.0,0.0,0.0
107,1696168277216,-1.1445312,-0.20605469,-0.0546875,-32.5625,46.75,-10.34375,0.0,0.0,0.0
108,1696168277245,-1.1816406,0.0087890625,-0.0146484375,13.40625,48.5,-8.0625,0.0,0.0,0.0
109,1696168277306,-0.8769531,-0.1171875,-0.026367188,-40.96875,7.75,-15.8125,0.0,0.0,0.0
110,1696168277335,-1.2529297,-0.038085938,-0.044921875,-11.0,36.4375,-3.25,0.0,0.0,0.0
111,1696168277398,-1.2578125,-0.17675781,-0.16015625,-17.96875,1.4375,8.15625,0.0,0.0,0.0
112,1696168277423,-1.078125,-0.2265625,-0.14453125,-18.75,-5.5625,17.6875,0.0,0.0,0.0
113,1696168277454,-1.0478516,-0.2841797,-0.103515625,12.625,14.375,24.8125,0.0,0.0,0.0
114,1696168277485,-1.0507812,-0.15625,-0.048828125,-7.53125,22.125,20.25,0.0,0.0,0.0
115,1696168277546,-0.9765625,-0.09277344,-0.0048828125,13.78125,-1.3125,27.21875,0.0,0.0,0.0
116,1696168277576,-0.86328125,-0.29296875,-0.03125,7.5,1.6875,18.65625,-46.9375,20.125,-117.5
117,1696168277604,-0.8173828,-0.31347656,-0.0126953125,3.21875,7.125,4.1875,0.0,0.0,0.0
118,1696168277663,-0.85253906,-0.21191406,0.028320312,-3.8125,-4.53125,-14.53125,0.0,0.0,0.0
119,1696168277695,-0.7705078,-0.20019531,-0.001953125,-7.09375,-22.96875,-26.1875,0.0,0.0,0.0
120,1696168277724,-0.7236328,-0.22851562,0.028320312,-9.21875,-29.3125,-27.0,0.0,0.0,0.0
121,1696168277784,-1.0195312,-0.2841797,-0.07324219,1.3125,1.875,-20.03125,0.0,0.0,0.0
122,1696168277813,-0.8261719,-0.15527344,-0.0859375,18.46875,-2.53125,-18.15625,0.0,0.0,0.0
123,1696168277843,-1.1816406,-0.21777344,-0.11035156,-28.9375,14.6875,-26.75,0.0,0.0,0.0
124,1696168277907,-0.9501953,-0.18652344,-0.0625,-29.6875,-10.03125,-14.71875,0.0,0.0,0.0
125,1696168277936,-1.0761719,-0.24511719,-0.14648438,9.09375,-30.78125,-0.5,0.0,0.0,0.0
126,1696168277964,-0.94433594,-0.41210938,-0.057617188,0.40625,-15.75,7.375,0.0,0.0,0.0
127,1696168278027,-1.1347656,-0.40820312,0.017578125,4.625,-10.9375,-5.5625,0.0,0.0,0.0
128,1696168278057,-1.3027344,-0.12597656,0.038085938,5.71875,-3.5,-9.28125,0.0,0.0,0.0
129,1696168278088,-1.0957031,-0.10546875,0.037109375,8.78125,-17.40625,0.46875,-47.6875,15.8125,-113.75
130,1696168278147,-1.0048828,-0.32714844,0.13769531,9.3125,-29.1875,4.25,0.0,0.0,0.0
131,1696168278177,-1.2363281,-0.35253906,0.14648438,-33.71875,-11.375,-29.96875,0.0,0.0,0.0
132,1696168278213,-1.1142578,-0.19824219,0.08496094,-24.0625,-18.875,-41.34375,0.0,0.0,0.0
133,1696168278268,-1.0410156,-0.08496094,0.0625,-15.625,-28.59375,-33.46875,0.0,0.0,0.0
134,1696168278296,-0.9794922,-0.265625,0.09277344,-25.09375,-31.25,-26.3125,0.0,0.0,0.0
135,1696168278325,-0.921875,-0.2939453,0.08203125,-15.09375,-9.0625,-24.1875,0.0,0.0,0.0
136,1696168278388,-0.95703125,-0.359375,0.056640625,-20.21875,1.4375,-32.375,0.0,0.0,0.0
137,1696168278418,-0.8417969,-0.18359375,0.103515625,-11.90625,-4.78125,-25.59375,0.0,0.0,0.0
138,1696168278444,-0.66796875,-0.15234375,0.11425781,-3.25,-5.9375,2.0,0.0,0.0,0.0
139,1696168278505,-0.66308594,-0.29003906,0.15527344,25.875,2.0,28.375,0.0,0.0,0.0
140,1696168278536,-0.6152344,-0.22851562,0.115234375,18.90625,-0.75,51.6875,0.0,0.0,0.0
141,1696168278567,-0.78125,-0.30371094,0.052734375,41.375,8.03125,57.78125,-49.8125,12.625,-107.875
142,1696168278627,-0.9404297,-0.34765625,0.14453125,45.40625,0.0,34.09375,0.0,0.0,0.0
143,1696168278660,-0.984375,-0.26171875,0.14941406,5.34375,20.8125,10.0625,0.0,0.0,0.0
144,1696168278685,-0.9980469,-0.2607422,0.026367188,1.15625,29.15625,12.0625,0.0,0.0,0.0
145,1696168278748,-1.0234375,-0.3984375,0.25585938,3.46875,32.625,8.71875,0.0,0.0,0.0
146,1696168278779,-1.125,-0.39746094,0.27539062,-0.8125,27.4375,6.8125,0.0,0.0,0.0
147,1696168278807,-1.0107422,-0.17773438,0.022460938,8.34375,6.9375,10.0625,0.0,0.0,0.0
148,1696168278865,-0.9902344,-0.21386719,0.15625,4.9375,34.03125,20.4375,0.0,0.0,0.0
149,1696168278894,-1.1943359,-0.16210938,0.08886719,-3.4375,49.84375,17.1875,0.0,0.0,0.0
150,1696168278927,-1.0859375,-0.103515625,-0.16113281,-7.21875,29.28125,-1.1875,0.0,0.0,0.0
151,1696168278985,-1.0078125,-0.15234375,-0.021484375,-7.21875,19.40625,-9.46875,0.0,0.0,0.0
152,1696168279015,-1.2832031,-0.0703125,0.0029296875,4.0,34.34375,2.5,0.0,0.0,0.0
153,1696168279045,-1.2021484,-0.15820312,-0.15332031,5.53125,20.0625,5.65625,0.0,0.0,0.0
154,1696168279106,-1.0644531,-0.15429688,-0.13964844,-19.78125,-32.59375,-1.84375,-47.125,18.1875,-117.0625
155,1696168279135,-0.93652344,-0.1171875,-0.19238281,-10.15625,11.09375,7.125,0.0,0.0,0.0
156,1696168279168,-0.9404297,-0.18457031,-0.119140625,16.40625,34.34375,12.375,0.0,0.0,0.0
157,1696168279225,-1.0332031,0.06542969,-0.04296875,-1.40625,6.09375,13.71875,0.0,0.0,0.0
158,1696168279262,-0.9824219,-0.18457031,-0.00390625,-4.34375,-8.1875,19.21875,0.0,0.0,0.0
159,1696168279290,-0.8183594,-0.3798828,-0.05078125,-9.40625,-16.25,-1.96875,0.0,0.0,0.0
160,1696168279347,-0.8769531,-0.3408203,-0.005859375,-7.34375,-4.53125,-13.75,0.0,0.0,0.0
161,1696168279375,-0.765625,-0.13867188,-0.044921875,12.3125,-12.21875,-26.4375,0.0,0.0,0.0
162,1696168279410,-0.9404297,-0.1484375,-0.041992188,-14.0,-13.03125,-17.90625,0.0,0.0,0.0
163,1696168279466,-0.890625,-0.21972656,-0.08984375,9.75,-2.21875,-3.375,0.0,0.0,0.0
164,1696168279492,-1.0244141,-0.42578125,-0.08691406,16.84375,6.09375,-7.15625,0.0,0.0,0.0
165,1696168279523,-1.015625,-0.14453125,-0.08886719,-21.375,2.96875,-11.90625,0.0,0.0,0.0
166,1696168279585,-1.0068359,-0.22265625,-0.09277344,20.5,-7.53125,7.0,-48.625,17.4375,-117.375
167,1696168279618,-1.0205078,-0.37109375,-0.064453125,3.9375,-17.53125,5.59375,0.0,0.0,0.0
168,1696168279675,-1.0556641,-0.28710938,-0.048828125,11.875,-19.4375,3.65625,0.0,0.0,0.0
169,1696168279705,-1.1826172,-0.2861328,0.047851562,15.65625,-16.75,-0.25,0.0,0.0,0.0
170,1696168279735,-1.2177734,-0.14550781,-0.09082031,8.65625,-8.3125,-1.65625,0.0,0.0,0.0
171,1696168279766,-1.1845703,-0.16210938,0.12597656,29.71875,-26.4375,1.375,0.0,0.0,0.0
172,1696168279825,-1.109375,-0.18457031,0.09863281,-11.90625,-10.34375,-24.0625,0.0,0.0,0.0
173,1696168279857,-0.9824219,-0.13769531,0.13769531,-23.9375,-31.8125,-40.3125,0.0,0.0,0.0
174,1696168279889,-1.140625,-0.076171875,0.060546875,-32.90625,-24.78125,-40.0625,0.0,0.0,0.0
175,1696168279943,-1.0166016,-0.15917969,0.041992188,-29.96875,-24.4375,-32.125,0.0,0.0,0.0
176,1696168279973,-1.0595703,-0.36132812,0.10839844,-23.6875,-12.96875,-31.9375,0.0,0.0,0.0
177,1696168280004,-0.8964844,-0.2939453,0.060546875,-8.0625,-14.0625,-32.0625,0.0,0.0,0.0
178,1696168280065,-0.7558594,-0.13867188,0.09472656,3.84375,-14.84375,-23.15625,0.0,0.0,0.0
179,1696168280097,-0.65527344,-0.04296875,0.12011719,-3.125,-8.0625,-2.6875,-48.875,12.0625,-108.375
180,1696168280124,-0.62597656,-0.07421875,0.09667969,8.78125,-12.90625,18.21875,0.0,0.0,0.0
181,1696168280188,-0.69921875,-0.22070312,0.13671875,23.71875,-0.5625,37.28125,0.0,0.0,0.0
182,1696168280215,-0.86621094,-0.2685547,0.12890625,29.15625,17.3125,47.46875,0.0,0.0,0.0
183,1696168280244,-0.9267578,-0.2763672,0.19628906,42.15625,16.34375,39.34375,0.0,0.0,0.0
184,1696168280309,-0.9111328,-0.5078125,0.0859375,-4.90625,11.65625,25.125,0.0,0.0,0.0
185,1696168280336,-1.2089844,-0.296875,0.16210938,17.4375,64.375,8.59375,0.0,0.0,0.0
186,1696168280368,-0.9892578,-0.2861328,0.1953125,-4.09375,31.71875,-2.53125,0.0,0.0,0.0
187,1696168280428,-1.2431641,-0.2578125,0.33789062,-12.96875,8.78125,1.8125,0.0,0.0,0.0
188,1696168280456,-1.2119141,-0.16015625,-0.11621094,-22.65625,43.125,-5.75,0.0,0.0,0.0
189,1696168280484,-1.2490234,0.022460938,0.061523438,9.375,28.625,18.34375,0.0,0.0,0.0
190,1696168280546,-0.98339844,-0.2578125,-0.052734375,-36.75,1.09375,1.6875,0.0,0.0,0.0
191,1696168280573,-0.8671875,-0.12402344,-0.23535156,-12.90625,22.5,4.75,-48.625,17.125,-114.9375
192,1696168280605,-1.1083984,-0.0703125,-0.047851562,11.15625,31.40625,13.84375,0.0,0.0,0.0
193,1696168280669,-1.3027344,-0.24609375,-0.091796875,-9.40625,32.34375,11.8125,0.0,0.0,0.0
194,1696168280696,-1.0302734,-0.22363281,-0.111328125,-1.25,-17.78125,1.5625,0.0,0.0,0.0
195,1696168280723,-0.89941406,-0.13769531,-0.15332031,-2.625,-0.9375,7.5625,0.0,0.0,0.0
196,1696168280790,-1.0908203,-0.16699219,-0.08203125,7.90625,34.15625,17.75,0.0,0.0,0.0
197,1696168280818,-0.9667969,-0.20605469,-0.044921875,4.8125,1.8125,6.03125,0.0,0.0,0.0
198,1696168280845,-0.92089844,-0.12695312,-0.072265625,17.8125,-1.96875,10.375,0.0,0.0,0.0
199,1696168280907,-0.8173828,-0.17871094,0.021484375,27.03125,-1.96875,2.4375,0.0,0.0,0.0
200,1696168280937,-0.7109375,-0.13085938,-0.01953125,-0.625,-4.65625,-18.9375,0.0,0.0,0.0
201,1696168280965,-0.86621094,-0.21191406,-0.016601562,3.53125,-3.5,-27.125,0.0,0.0,0.0
202,1696168281030,-0.79785156,-0.20019531,-0.0107421875,-11.3125,7.5,-20.34375,0.0,0.0,0.0
203,1696168281056,-1.0888672,-0.15722656,-0.17480469,7.125,8.15625,0.0,0.0,0.0,0.0
204,1696168281085,-0.9863281,-0.40039062,-0.087890625,-10.875,6.625,-9.0625,-45.0,18.1875,-118.375
205,1696168281143,-0.97265625,-0.18164062,-0.09765625,-19.90625,-24.25,-15.875,0.0,0.0,0.0
206,1696168281173,-1.0078125,-0.2783203,-0.18652344,10.0,-17.03125,4.5625,0.0,0.0,0.0
207,1696168281203,-0.97753906,-0.41601562,-0.11328125,15.78125,-19.84375,7.8125,0.0,0.0,0.0
208,1696168281263,-1.3203125,-0.15820312,0.009765625,-12.96875,-3.125,-10.5,0.0,0.0,0.0
209,1696168281292,-1.0507812,-0.10058594,-0.049804688,9.4375,-32.5625,2.25,0.0,0.0,0.0
210,1696168281322,-1.2753906,-0.4658203,0.18945312,4.25,-38.28125,-7.9375,0.0,0.0,0.0
211,1696168281382,-1.2626953,-0.2734375,0.08105469,-39.875,-13.0625,-42.75,0.0,0.0,0.0
212,1696168281412,-1.1132812,-0.0703125,0.0390625,9.5,-37.1875,-32.96875,0.0,0.0,0.0
213,1696168281442,-1.0458984,-0.0859375,0.057617188,-22.0,-28.75,-29.125,0.0,0.0,0.0
214,1696168281505,-1.0634766,-0.2734375,0.057617188,-32.78125,-27.40625,-32.84375,0.0,0.0,0.0
215,1696168281534,-1.0185547,-0.26367188,0.0859375,-13.625,-24.5625,-31.25,0.0,0.0,0.0
216,1696168281564,-0.8408203,-0.22070312,0.10253906,-14.25,-22.28125,-29.25,-48.875,12.5,-109.125
217,1696168281624,-0.71972656,-0.12695312,0.07421875,-13.6875,-16.5625,-12.46875,0.0,0.0,0.0
218,1696168281654,-0.7001953,-0.09472656,0.11621094,-5.625,-8.5625,9.8125,0.0,0.0,0.0
219,1696168281690,-0.7001953,-0.15136719,0.13476562,-5.5625,5.34375,30.4375,0.0,0.0,0.0
220,1696168281744,-0.5654297,-0.16210938,-0.001953125,-17.59375,11.53125,46.90625,0.0,0.0,0.0
221,1696168281774,-0.8408203,-0.4482422,0.12792969,70.90625,6.6875,51.5,0.0,0.0,0.0
222,1696168281806,-1.0390625,-0.38964844,0.2685547,41.625,14.875,27.9375,0.0,0.0,0.0
223,1696168281869,-0.7949219,-0.17773438,-0.06738281,-4.34375,14.03125,4.3125,0.0,0.0,0.0
224,1696168281893,-1.2324219,-0.27539062,0.27441406,13.40625,58.59375,23.125,0.0,0.0,0.0
225,1696168281956,-1.1191406,-0.4296875,0.24609375,-12.21875,26.28125,1.5625,0.0,0.0,0.0
226,1696168281984,-0.9326172,-0.18066406,0.19140625,-22.21875,34.40625,-17.28125,0.0,0.0,0.0
227,1696168282014,-1.2021484,-0.15039062,0.07714844,23.78125,30.4375,4.25,0.0,0.0,0.0
228,1696168282043,-1.1269531,-0.21386719,-0.19824219,-32.375,34.03125,-1.53125,0.0,0.0,0.0
229,1696168282106,-1.2236328,-0.375,0.12792969,-33.875,40.6875,-12.46875,-46.0625,17.875,-116.3125
230,1696168282134,-1.2128906,-0.083984375,0.01953125,-3.6875,5.1875,-16.4375,0.0,0.0,0.0
231,1696168282167,-1.0703125,-0.07128906,-0.15136719,14.28125,-28.46875,12.375,0.0,0.0,0.0
232,1696168282226,-1.0039062,-0.16210938,-0.15625,6.9375,-5.375,24.875,0.0,0.0,0.0
233,1696168282253,-1.0458984,-0.46191406,-0.203125,20.5,32.28125,19.46875,0.0,0.0,0.0
234,1696168282288,-1.1757812,-0.13867188,-0.046875,-3.4375,26.34375,3.03125,0.0,0.0,0.0
235,1696168282345,-0.99316406,-0.0126953125,-0.12792969,25.875,-0.875,18.0625,0.0,0.0,0.0
236,1696168282373,-0.86328125,-0.10546875,-0.078125,-2.75,-1.46875,19.03125,0.0,0.0,0.0
237,1696168282409,-0.8173828,-0.2421875,-0.0703125,-7.78125,2.125,10.59375,0.0,0.0,0.0
238,1696168282466,-0.7890625,-0.18652344,0.072265625,-9.34375,-6.4375,-1.71875,0.0,0.0,0.0
239,1696168282495,-0.90234375,-0.21582031,-0.052734375,-1.3125,-7.875,-8.6875,0.0,0.0,0.0
240,1696168282523,-0.70996094,-0.21972656,0.021484375,-11.5625,-27.34375,-15.40625,0.0,0.0,0.0
241,1696168282588,-0.8339844,-0.21582031,-0.12695312,-18.6875,-17.28125,-14.1875,-48.0,21.625,-115.5625
242,1696168282614,-0.93847656,-0.4326172,-0.059570312,-9.46875,23.1875,-8.3125,0.0,0.0,0.0
243,1696168282643,-1.1171875,-0.24804688,-0.1640625,-6.375,-12.53125,-18.15625,0.0,0.0,0.0
244,1696168282707,-0.9794922,-0.22753906,-0.0078125,26.40625,-6.65625,0.90625,0.0,0.0,0.0
245,1696168282736,-1.0302734,-0.40625,-0.064453125,10.53125,-13.25,-8.875,0.0,0.0,0.0
246,1696168282766,-1.0351562,-0.22363281,0.03515625,15.90625,-34.5,2.3125,0.0,0.0,0.0
247,1696168282828,-1.3964844,-0.08984375,0.07714844,16.21875,-25.71875,0.21875,0.0,0.0,0.0
248,1696168282856,-0.9628906,-0.25683594,-0.0009765625,-3.125,-39.1875,-2.9375,0.0,0.0,0.0
249,1696168282887,-1.4238281,-0.27929688,0.13964844,-0.8125,-13.875,-29.9375,0.0,0.0,0.0
250,1696168282947,-1.203125,-0.08691406,0.0703125,-12.46875,-9.46875,-43.59375,0.0,0.0,0.0
251,1696168282986,-0.99902344,-0.06640625,0.057617188,-3.1875,-37.4375,-32.5,0.0,0.0,0.0
252,1696168283007,-0.9404297,-0.10644531,0.13574219,-28.28125,-36.9375,-17.78125,0.0,0.0,0.0
253,1696168283068,-1.0556641,-0.33496094,0.16210938,-29.6875,-11.96875,-19.96875,0.0,0.0,0.0
254,1696168283096,-0.9580078,-0.3251953,0.068359375,-36.5625,-4.15625,-30.90625,-48.75,15.5,-107.625
255,1696168283123,-0.83203125,-0.22265625,0.078125,-12.40625,-9.71875,-29.0,0.0,0.0,0.0
256,1696168283185,-0.8027344,-0.17382812,0.13671875,-10.4375,5.28125,-9.65625,0.0,0.0,0.0
257,1696168283214,-0.75,-0.12890625,0.14550781,-7.28125,2.375,2.25,0.0,0.0,0.0
258,1696168283244,-0.7578125,-0.21386719,0.1875,9.8125,14.5,18.40625,0.0,0.0,0.0
259,1696168283308,-0.67285156,-0.39257812,0.045898438,10.1875,11.40625,41.625,0.0,0.0,0.0
260,1696168283337,-0.6894531,-0.4189453,0.09472656,73.40625,7.375,35.1875,0.0,0.0,0.0
261,1696168283364,-1.0380859,-0.16796875,0.3046875,50.46875,-6.25,22.625,0.0,0.0,0.0
262,1696168283426,-0.9589844,-0.15039062,0.0078125,32.6875,39.0,29.59375,0.0,0.0,0.0
263,1696168283459,-0.96875,-0.35058594,0.107421875,12.375,40.375,29.46875,0.0,0.0,0.0
264,1696168283485,-1.0898438,-0.4560547,0.2265625,5.0625,50.34375,17.5625,0.0,0.0,0.0
265,1696168283549,-0.94628906,-0.26367188,0.13671875,9.25,29.71875,6.5625,0.0,0.0,0.0
266,1696168283581,-1.0214844,-0.11621094,0.20117188,26.34375,16.34375,17.1875,-50.25,17.875,-111.8125
267,1696168283607,-1.3076172,-0.13867188,-0.15234375,-36.625,48.625,15.0625,0.0,0.0,0.0
268,1696168283663,-1.1572266,-0.02734375,-0.020507812,-4.46875,22.03125,3.34375,0.0,0.0,0.0
269,1696168283694,-0.90722656,-0.23242188,-0.08203125,-24.84375,3.46875,-11.90625,0.0,0.0,0.0
270,1696168283726,-1.2255859,-0.28320312,-0.09277344,2.5625,52.84375,-17.34375,0.0,0.0,0.0
271,1696168283785,-1.0878906,-0.020507812,-0.0078125,-26.0625,-28.65625,-30.59375,0.0,0.0,0.0
272,1696168283814,-0.9765625,-0.013671875,-0.20507812,6.625,-37.5,3.71875,0.0,0.0,0.0
273,1696168283848,-1.1660156,-0.2265625,-0.040039062,21.40625,42.34375,25.75,0.0,0.0,0.0
274,1696168283905,-0.9707031,-0.29785156,-0.13085938,4.125,13.03125,3.59375,0.0,0.0,0.0
275,1696168283934,-0.9765625,-0.0625,-0.029296875,10.3125,-8.375,-4.34375,0.0,0.0,0.0
276,1696168283963,-0.8486328,-0.0546875,-0.07324219,28.5,-1.90625,1.03125,0.0,0.0,0.0
277,1696168284025,-0.8486328,-0.08203125,-0.06640625,-9.34375,4.8125,1.3125,0.0,0.0,0.0
278,1696168284055,-0.8417969,-0.22070312,0.017578125,-3.8125,-1.84375,3.90625,0.0,0.0,0.0
279,1696168284117,-0.7998047,-0.3408203,-0.028320312,-18.4375,-5.8125,-20.71875,-47.6875,19.8125,-114.8125
280,1696168284151,-0.77734375,-0.14257812,-0.0107421875,-21.5,-30.65625,-32.125,0.0,0.0,0.0
281,1696168284178,-0.9013672,-0.20507812,-0.10546875,-3.6875,7.84375,-4.21875,0.0,0.0,0.0
282,1696168284235,-0.98828125,-0.41992188,-0.12988281,-13.1875,7.0625,-1.71875,0.0,0.0,0.0
283,1696168284271,-1.0761719,-0.37695312,-0.021484375,-33.9375,2.4375,-2.34375,0.0,0.0,0.0
284,1696168284305,-0.8671875,-0.17675781,-0.11621094,16.59375,-58.59375,4.3125,0.0,0.0,0.0
285,1696168284326,-1.1640625,-0.390625,-0.17773438,19.75,-1.34375,4.5625,0.0,0.0,0.0
286,1696168284385,-1.3242188,-0.18066406,-0.0068359375,11.875,-25.71875,5.21875,0.0,0.0,0.0
287,1696168284415,-1.2548828,-0.23339844,0.064453125,7.625,-27.96875,16.40625,0.0,0.0,0.0
288,1696168284443,-1.1972656,-0.34472656,0.17871094,-7.8125,-12.65625,-8.875,0.0,0.0,0.0
289,1696168284503,-1.1582031,-0.23339844,0.14941406,-24.75,-31.625,-37.1875,0.0,0.0,0.0
290,1696168284535,-1.2392578,-0.09277344,0.16503906,-43.96875,-33.875,-44.75,0.0,0.0,0.0
291,1696168284595,-1.0126953,-0.12109375,0.072265625,-23.75,-40.96875,-26.75,-49.8125,16.5625,-108.1875
292,1696168284625,-0.95410156,-0.23339844,0.13085938,-9.40625,-18.6875,-9.84375,0.0,0.0,0.0
293,1696168284655,-0.9160156,-0.32421875,0.09765625,-20.46875,-8.875,-17.53125,0.0,0.0,0.0
294,1696168284685,-0.8095703,-0.19824219,0.14550781,-10.40625,-21.9375,-30.34375,0.0,0.0,0.0
295,1696168284745,-0.81152344,-0.18359375,0.12597656,-17.40625,-4.21875,-22.28125,0.0,0.0,0.0
296,1696168284776,-0.7988281,-0.15332031,0.068359375,-27.3125,10.78125,-9.78125,0.0,0.0,0.0
297,1696168284804,-0.69433594,-0.21777344,0.125,-11.78125,12.875,10.1875,0.0,0.0,0.0
298,1696168284865,-0.7734375,-0.3076172,0.17089844,0.65625,7.375,31.59375,0.0,0.0,0.0
299,1696168284895,-0.8261719,-0.39746094,0.06347656,24.9375,20.96875,46.3125,0.0,0.0,0.0
300,1696168284926,-0.7734375,-0.3359375,0.203125,49.84375,6.15625,36.78125,0.0,0.0,0.0
301,1696168284986,-0.8720703,-0.1953125,0.091796875,50.78125,27.15625,14.5,0.0,0.0,0.0
302,1696168285015,-0.9355469,-0.22265625,0.009765625,23.84375,47.09375,25.4375,0.0,0.0,0.0
303,1696168285044,-1.1210938,-0.390625,0.21972656,-16.25,46.4375,15.625,0.0,0.0,0.0
304,1696168285105,-1.015625,-0.3623047,0.20703125,-24.0625,18.71875,-1.71875,-50.5625,18.8125,-110.625
305,1696168285144,-1.0029297,-0.19238281,0.087890625,-3.96875,10.65625,-3.875,0.0,0.0,0.0
306,1696168285170,-1.2431641,-0.35839844,-0.08105469,-11.5625,37.53125,10.59375,0.0,0.0,0.0
307,1696168285228,-1.3583984,0.08984375,-0.091796875,-12.90625,67.125,-4.46875,0.0,0.0,0.0
308,1696168285256,-0.9550781,-0.22167969,0.033203125,-19.3125,-10.4375,0.53125,0.0,0.0,0.0
309,1696168285285,-1.1689453,-0.15917969,-0.095703125,15.71875,9.5,-8.3125,0.0,0.0,0.0
310,1696168285350,-1.2089844,-0.076171875,-0.17285156,18.21875,17.75,6.5625,0.0,0.0,0.0
311,1696168285375,-1.0410156,-0.16015625,-0.12988281,-7.78125,-9.40625,7.6875,0.0,0.0,0.0
312,1696168285403,-0.99121094,-0.16992188,-0.12792969,-8.75,4.9375,12.5,0.0,0.0,0.0
313,1696168285472,-1.1210938,-0.20507812,-0.09863281,16.15625,31.1875,21.09375,0.0,0.0,0.0
314,1696168285496,-1.0410156,-0.10449219,-0.11328125,11.59375,13.96875,23.4375,0.0,0.0,0.0
315,1696168285524,-0.8769531,-0.16015625,-0.053710938,5.1875,-9.53125,17.4375,0.0,0.0,0.0
316,1696168285589,-0.7890625,-0.19238281,-0.045898438,-3.5625,-7.09375,-1.46875,-47.6875,22.6875,-115.875
317,1696168285618,-0.7998047,-0.13183594,0.032226562,-15.75,-9.40625,-18.6875,0.0,0.0,0.0
318,1696168285645,-0.9326172,-0.22363281,-0.11035156,-19.4375,-4.90625,-11.5,0.0,0.0,0.0
319,1696168285705,-0.8623047,-0.31640625,0.028320312,-5.6875,6.75,-9.78125,0.0,0.0,0.0
320,1696168285737,-0.71191406,-0.20410156,-0.11425781,1.15625,-32.375,-19.53125,0.0,0.0,0.0
321,1696168285766,-0.9189453,-0.3125,-0.12792969,5.0,14.875,-12.65625,0.0,0.0,0.0
322,1696168285828,-1.0068359,-0.23828125,-0.15332031,-3.0625,23.46875,-13.1875,0.0,0.0,0.0
323,1696168285856,-0.99121094,-0.16992188,-0.123046875,-9.21875,-16.1875,-3.3125,0.0,0.0,0.0
324,1696168285885,-0.95214844,-0.38476562,-0.10058594,7.0625,-25.84375,7.8125,0.0,0.0,0.0
325,1696168285947,-0.9892578,-0.49804688,-0.034179688,28.96875,-17.71875,13.15625,0.0,0.0,0.0
326,1696168285978,-1.3251953,-0.10449219,-0.057617188,6.28125,5.65625,-6.53125,0.0,0.0,0.0
327,1696168286077,-1.1953125,-0.07714844,0.036132812,25.875,-27.96875,13.03125,-47.875,20.3125,-113.625
328,1696168286082,-1.2441406,-0.27246094,0.111328125,-5.5,-23.4375,-6.78125,0.0,0.0,0.0
329,1696168286096,-1.1464844,-0.23144531,0.13769531,-27.96875,-30.21875,-39.625,0.0,0.0,0.0
330,1696168286125,-1.1210938,0.013671875,0.053710938,-11.5,-29.6875,-37.25,0.0,0.0,0.0
331,1696168286184,-1.1269531,-0.05859375,0.040039062,-10.40625,-32.0625,-14.53125,0.0,0.0,0.0
332,1696168286214,-1.0839844,-0.24121094,0.0234375,-38.21875,-24.96875,-22.34375,0.0,0.0,0.0
333,1696168286246,-0.93066406,-0.265625,0.07519531,-34.125,-11.84375,-25.65625,0.0,0.0,0.0
334,1696168286307,-0.8955078,-0.23535156,0.1015625,-7.78125,-3.90625,-21.0625,0.0,0.0,0.0
335,1696168286335,-0.8076172,-0.13085938,0.07324219,-5.25,3.28125,-8.3125,0.0,0.0,0.0
336,1696168286367,-0.60253906,-0.060546875,0.07128906,-1.96875,-2.15625,10.0625,0.0,0.0,0.0
337,1696168286422,-0.61816406,-0.0859375,0.115234375,5.34375,-7.78125,21.53125,0.0,0.0,0.0
338,1696168286455,-0.6357422,-0.2265625,0.07910156,23.3125,-8.6875,45.875,0.0,0.0,0.0
339,1696168286516,-0.8144531,-0.26367188,0.0703125,95.75,2.4375,52.28125,0.0,0.0,0.0
340,1696168286545,-1.0087891,-0.34765625,0.3125,48.5,10.375,50.28125,0.0,0.0,0.0
341,1696168286576,-0.8769531,-0.29589844,0.07421875,-40.65625,32.21875,1.21875,-48.625,19.25,-106.6875
342,1696168286607,-1.1601562,-0.29785156,0.13476562,-7.15625,43.0,3.09375,0.0,0.0,0.0
343,1696168286665,-1.0244141,-0.2861328,0.20507812,6.03125,31.34375,-10.03125,0.0,0.0,0.0
344,1696168286695,-1.0458984,-0.13964844,0.21972656,4.0625,25.875,-6.1875,0.0,0.0,0.0
345,1696168286725,-1.2587891,-0.0234375,-0.0048828125,-16.6875,47.21875,9.125,0.0,0.0,0.0
346,1696168286785,-1.2294922,0.0,-0.05078125,0.65625,33.75,4.6875,0.0,0.0,0.0
347,1696168286815,-1.2216797,-0.3984375,0.07128906,-6.71875,5.34375,-15.6875,0.0,0.0,0.0
348,1696168286846,-1.1025391,-0.15722656,-0.13476562,16.15625,8.84375,-21.0625,0.0,0.0,0.0
349,1696168286907,-1.0791016,-0.056640625,-0.22460938,1.625,4.9375,-14.53125,0.0,0.0,0.0
350,1696168286936,-1.1289062,-0.0107421875,-0.14257812,-3.5625,27.4375,3.03125,0.0,0.0,0.0
351,1696168286995,-1.0664062,-0.3515625,-0.13476562,23.78125,25.0625,16.21875,0.0,0.0,0.0
352,1696168287025,-1.0546875,-0.055664062,-0.12890625,11.59375,16.65625,7.6875,0.0,0.0,0.0
353,1696168287056,-0.9394531,-0.040039062,-0.07421875,25.125,11.03125,20.125,-46.8125,20.3125,-114.625
354,1696168287119,-0.796875,-0.22851562,-0.057617188,-3.8125,1.15625,5.0625,0.0,0.0,0.0
355,1696168287145,-0.9042969,-0.12988281,-0.08496094,-7.59375,5.71875,-2.03125,0.0,0.0,0.0
356,1696168287173,-0.9033203,-0.1953125,-0.07910156,21.78125,5.78125,3.21875,0.0,0.0,0.0
357,1696168287237,-0.7451172,-0.15527344,0.030273438,-12.46875,-36.09375,-14.65625,0.0,0.0,0.0
358,1696168287266,-0.75097656,-0.17480469,-0.030273438,-11.0,-14.71875,-9.65625,0.0,0.0,0.0
359,1696168287295,-0.7441406,-0.296875,-0.099609375,5.46875,12.625,-3.96875,0.0,0.0,0.0
360,1696168287354,-1.2041016,-0.40625,-0.041015625,-4.59375,8.96875,-13.75,0.0,0.0,0.0
361,1696168287388,-0.85839844,-0.22070312,-0.10253906,-4.15625,-31.8125,-27.3125,0.0,0.0,0.0
362,1696168287415,-0.8300781,-0.20703125,0.0126953125,11.875,-20.40625,0.53125,0.0,0.0,0.0
363,1696168287475,-1.0009766,-0.28125,-0.09277344,7.75,-9.65625,12.75,0.0,0.0,0.0
364,1696168287508,-1.2138672,-0.47753906,0.045898438,18.34375,-9.28125,5.21875,0.0,0.0,0.0
365,1696168287536,-1.3564453,-0.28222656,-0.01953125,8.53125,-6.53125,-11.78125,0.0,0.0,0.0
366,1696168287594,-1.1630859,-0.10546875,0.11035156,19.5625,-36.625,-13.1875,-47.375,19.5625,-112.5625
367,1696168287632,-1.3320312,-0.18066406,0.12597656,-5.03125,-34.75,-38.28125,0.0,0.0,0.0
368,1696168287658,-1.0517578,-0.08691406,0.07421875,-17.90625,-35.59375,-34.75,0.0,0.0,0.0
369,1696168287714,-0.99121094,-0.052734375,0.10449219,-6.53125,-26.03125,-20.875,0.0,0.0,0.0
370,1696168287748,-1.0068359,-0.18554688,0.0703125,-23.8125,-36.9375,-20.53125,0.0,0.0,0.0
371,1696168287778,-1.0986328,-0.31640625,0.09765625,-41.15625,-18.21875,-28.6875,0.0,0.0,0.0
372,1696168287834,-0.9638672,-0.30566406,0.076171875,-36.5,-27.71875,-35.0625,0.0,0.0,0.0
373,1696168287868,-0.77734375,-0.2841797,0.1171875,-18.8125,-12.28125,-34.125,0.0,0.0,0.0
374,1696168287896,-0.68652344,-0.19042969,0.115234375,-21.125,-4.46875,-11.6875,0.0,0.0,0.0
375,1696168287955,-0.7060547,-0.15332031,0.21972656,5.71875,-23.75,9.03125,0.0,0.0,0.0
376,1696168287989,-0.8027344,-0.13085938,0.17871094,11.53125,-19.3125,28.1875,0.0,0.0,0.0
377,1696168288015,-0.7558594,-0.32714844,0.045898438,15.3125,6.9375,39.34375,0.0,0.0,0.0
378,1696168288074,-0.75683594,-0.27148438,0.18847656,37.03125,6.9375,25.125,-49.9375,14.5625,-103.875
379,1696168288108,-0.9433594,-0.4921875,0.13769531,-5.09375,25.0625,17.4375,0.0,0.0,0.0
380,1696168288134,-0.81640625,-0.4404297,0.17578125,-6.5,20.5,7.0,0.0,0.0,0.0
381,1696168288193,-0.8769531,-0.29882812,0.22363281,53.28125,38.75,23.84375,0.0,0.0,0.0
382,1696168288233,-1.046875,-0.2685547,0.2626953,67.25,54.96875,24.59375,0.0,0.0,0.0
383,1696168288255,-0.9746094,-0.23535156,0.24316406,-11.3125,19.53125,0.90625,0.0,0.0,0.0
384,1696168288316,-0.97558594,-0.1796875,0.23535156,7.375,4.875,8.46875,0.0,0.0,0.0
385,1696168288349,-1.1376953,-0.24023438,0.3017578,-24.5625,9.3125,-14.1875,0.0,0.0,0.0
386,1696168288376,-1.0878906,-0.18457031,-0.19726562,-54.65625,35.625,-33.9375,0.0,0.0,0.0
387,1696168288435,-1.6259766,0.060546875,-0.13085938,-54.28125,7.75,9.5625,0.0,0.0,0.0
388,1696168288467,-1.0146484,-0.64746094,0.022460938,19.40625,2.96875,11.28125,0.0,0.0,0.0
389,1696168288499,-1.2744141,-0.14160156,-0.18652344,6.5625,64.5,-12.03125,0.0,0.0,0.0
390,1696168288556,-1.1337891,-0.12207031,-0.043945312,-15.03125,14.03125,9.8125,0.0,0.0,0.0
391,1696168288586,-1.0566406,0.07714844,-0.05078125,-5.4375,5.28125,12.75,-47.125,18.9375,-113.875
392,1696168288622,-1.0634766,-0.13085938,-0.12890625,17.75,25.5,23.3125,0.0,0.0,0.0
393,1696168288706,-1.0029297,-0.30273438,-0.15429688,-16.4375,13.0,29.34375,0.0,0.0,0.0
394,1696168288710,-0.97558594,-0.119140625,-0.1015625,8.03125,14.15625,15.96875,0.0,0.0,0.0
395,1696168288737,-0.9238281,-0.119140625,-0.11816406,22.625,6.9375,19.21875,0.0,0.0,0.0
396,1696168288797,-0.9765625,-0.119140625,-0.12988281,7.5,7.5,18.40625,0.0,0.0,0.0
397,1696168288825,-0.9560547,-0.087890625,-0.09472656,0.53125,19.15625,19.875,0.0,0.0,0.0
398,1696168288856,-1.0322266,-0.091796875,-0.06542969,11.28125,15.65625,18.40625,0.0,0.0,0.0
399,1696168288947,-1.0361328,-0.18847656,-0.1015625,-11.5,2.5,12.75,0.0,0.0,0.0
400,1696168288952,-0.98046875,-0.18261719,-0.16992188,16.53125,7.6875,8.28125,0.0,0.0,0.0
401,1696168288977,-1.0371094,-0.06640625,-0.15527344,12.25,5.34375,4.4375,0.0,0.0,0.0
402,1696168289036,-1.1210938,-0.021484375,-0.15527344,12.25,8.59375,7.5,0.0,0.0,0.0
403,1696168289065,-1.0205078,0.04296875,-0.13183594,13.84375,3.59375,15.84375,-45.0,24.1875,-118.875
404,1696168289095,-0.92578125,0.0087890625,-0.09375,-12.78125,-12.34375,11.9375,0.0,0.0,0.0
405,1696168289157,-0.9296875,-0.15917969,-0.06738281,-21.6875,-4.59375,11.53125,0.0,0.0,0.0
406,1696168289186,-1.0361328,-0.18359375,-0.13476562,-9.65625,2.0625,6.9375,0.0,0.0,0.0
407,1696168289217,-1.0371094,-0.1171875,-0.09863281,0.28125,-5.625,-4.28125,0.0,0.0,0.0
408,1696168289276,-0.97265625,-0.037109375,-0.083984375,4.5,-6.25,-2.15625,0.0,0.0,0.0
409,1696168289306,-0.9716797,-0.053710938,-0.0859375,6.875,0.21875,0.09375,0.0,0.0,0.0
410,1696168289334,-1.0361328,-0.026367188,-0.076171875,5.59375,2.0,5.21875,0.0,0.0,0.0
411,1696168289395,-1.0458984,-0.033203125,-0.044921875,6.8125,0.65625,11.40625,0.0,0.0,0.0
412,1696168289428,-1.0,-0.048828125,-0.08300781,0.59375,-2.21875,9.125,0.0,0.0,0.0
413,1696168289455,-1.0107422,-0.00390625,-0.056640625,0.09375,-0.75,7.125,0.0,0.0,0.0
414,1696168289515,-1.0244141,-0.0234375,-0.072265625,-5.75,-3.90625,5.34375,0.0,0.0,0.0
415,1696168289547,-1.0146484,-0.068359375,-0.06738281,-4.59375,-2.8125,4.3125,0.0,0.0,0.0
416,1696168289575,-1.0146484,-0.057617188,-0.057617188,-1.40625,-1.59375,2.4375,-44.5625,26.0,-117.375
417,1696168289635,-1.0117188,-0.0234375,-0.0703125,1.8125,-1.0625,0.96875,0.0,0.0,0.0
418,1696168289665,-1.0117188,-0.018554688,-0.057617188,-1.59375,-2.34375,0.46875,0.0,0.0,0.0
419,1696168289694,-1.0117188,-0.03515625,-0.05859375,-3.96875,-2.40625,0.78125,0.0,0.0,0.0
420,1696168289754,-1.0175781,-0.051757812,-0.037109375,-1.71875,-2.34375,1.15625,0.0,0.0,0.0
421,1696168289786,-1.0166016,-0.053710938,-0.060546875,-1.125,-2.03125,-0.875,0.0,0.0,0.0
422,1696168289818,-1.0136719,-0.033203125,-0.055664062,1.15625,-2.21875,-1.84375,0.0,0.0,0.0
423,1696168289874,-1.0361328,-0.029296875,-0.029296875,-1.46875,-2.34375,-1.78125,0.0,0.0,0.0
424,1696168289906,-1.0058594,-0.064453125,-0.041992188,-0.9375,-4.65625,-3.0625,0.0,0.0,0.0
425,1696168289934,-0.99609375,-0.0390625,-0.043945312,-2.875,-4.96875,-3.625,0.0,0.0,0.0
426,1696168289997,-1.0244141,-0.048828125,-0.051757812,-0.375,-1.25,-1.90625,0.0,0.0,0.0
427,1696168290033,-1.0322266,-0.045898438,-0.047851562,5.78125,0.46875,-0.5625,0.0,0.0,0.0
428,1696168290055,-1.015625,-0.022460938,-0.0546875,2.5,-3.875,-1.96875,-43.1875,25.6875,-116.0
429,1696168290115,-0.9980469,-0.01953125,-0.049804688,2.3125,-3.0625,-2.59375,0.0,0.0,0.0
430,1696168290150,-1.0068359,-0.017578125,-0.03125,-2.53125,-1.59375,-1.25,0.0,0.0,0.0
431,1696168290174,-1.0185547,-0.040039062,-0.045898438,1.75,-2.46875,1.8125,0.0,0.0,0.0
432,1696168290233,-1.0019531,-0.061523438,-0.0390625,0.0,-3.625,1.8125,0.0,0.0,0.0
433,1696168290262,-1.0175781,-0.018554688,-0.028320312,1.3125,-2.46875,1.3125,0.0,0.0,0.0
434,1696168290292,-1.0205078,-0.021484375,-0.020507812,-0.3125,-2.03125,0.46875,0.0,0.0,0.0
435,1696168290352,-1.0068359,-0.040039062,-0.029296875,-2.03125,-3.3125,1.75,0.0,0.0,0.0
436,1696168290382,-1.0126953,-0.03515625,-0.021484375,-3.90625,-1.46875,0.78125,0.0,0.0,0.0
437,1696168290415,-1.0322266,-0.01953125,-0.013671875,1.9375,-1.90625,2.1875,0.0,0.0,0.0
438,1696168290473,-1.0244141,-0.059570312,-0.013671875,-6.125,-4.90625,0.40625,0.0,0.0,0.0
439,1696168290502,-1.0166016,-0.034179688,0.0126953125,-1.25,-2.9375,1.4375,0.0,0.0,0.0
440,1696168290532,-1.0009766,-0.028320312,0.005859375,1.09375,-2.875,2.25,0.0,0.0,0.0
441,1696168290593,-1.0009766,-0.055664062,-0.022460938,-1.78125,-3.3125,-0.125,-44.5625,27.8125,-113.875
442,1696168290625,-1.046875,0.001953125,0.017578125,-0.0625,-1.78125,-0.75,0.0,0.0,0.0
443,1696168290653,-1.0058594,-0.03515625,0.005859375,-4.15625,-4.84375,-0.5,0.0,0.0,0.0
444,1696168290711,-1.0029297,-0.037109375,0.015625,-3.90625,-4.65625,-1.34375,0.0,0.0,0.0
445,1696168290741,-1.0039062,-0.022460938,0.0078125,1.15625,-2.53125,-0.125,0.0,0.0,0.0
446,1696168290773,-1.0078125,-0.043945312,0.02734375,1.3125,-3.125,-0.125,0.0,0.0,0.0
447,1696168290835,-1.0419922,-0.033203125,0.001953125,1.03125,-1.1875,-0.25,0.0,0.0,0.0
448,1696168290864,-1.0224609,-0.03125,0.005859375,2.71875,-3.0,1.21875,0.0,0.0,0.0
449,1696168290893,-0.9814453,-0.034179688,0.017578125,1.375,-3.0,2.3125,0.0,0.0,0.0
450,1696168290959,-1.0039062,-0.024414062,0.032226562,2.0,-2.15625,2.125,0.0,0.0,0.0
451,1696168290988,-1.0361328,-0.0068359375,0.045898438,2.84375,-3.25,2.125,0.0,0.0,0.0
452,1696168291012,-0.99902344,-0.056640625,0.028320312,-4.59375,-7.8125,-0.75,0.0,0.0,0.0
453,1696168291074,-0.9736328,-0.09765625,0.041992188,-6.3125,-9.15625,-3.375,-46.5,27.9375,-114.8125
454,1696168291105,-0.96875,-0.13085938,0.09765625,-3.375,-11.625,-10.5625,0.0,0.0,0.0
455,1696168291135,-1.0205078,-0.1796875,0.11816406,7.0625,-14.25,-18.15625,0.0,0.0,0.0
456,1696168291196,-0.99902344,-0.23144531,0.061523438,-3.25,-13.3125,-34.5,0.0,0.0,0.0
457,1696168291225,-1.0849609,-0.22558594,0.13574219,-3.5,-7.875,-53.46875,0.0,0.0,0.0
458,1696168291254,-1.0751953,-0.21386719,0.16210938,2.65625,-2.40625,-56.40625,0.0,0.0,0.0
459,1696168291318,-1.0908203,-0.095703125,0.16992188,0.09375,-15.46875,-50.75,0.0,0.0,0.0
460,1696168291345,-1.0,-0.15234375,0.041992188,2.84375,-6.3125,-31.6875,0.0,0.0,0.0
461,1696168291375,-0.9501953,-0.16015625,0.01953125,-19.65625,-11.78125,-31.875,0.0,0.0,0.0
462,1696168291436,-0.90625,-0.30859375,0.053710938,-3.90625,1.5625,-18.21875,0.0,0.0,0.0
463,1696168291465,-0.8642578,-0.34277344,0.12011719,1.21875,12.75,-30.71875,0.0,0.0,0.0
464,1696168291498,-0.85839844,-0.33691406,0.14746094,19.21875,9.125,-26.4375,0.0,0.0,0.0
465,1696168291554,-0.8330078,-0.26171875,0.1796875,25.6875,12.0625,-15.28125,0.0,0.0,0.0
466,1696168291587,-0.8076172,-0.28710938,0.15039062,19.15625,-5.5,6.5625,-48.0,14.75,-111.0625
467,1696168291616,-0.8310547,-0.31640625,0.19726562,35.4375,2.65625,28.4375,0.0,0.0,0.0
468,1696168291676,-0.9658203,-0.4482422,0.18847656,36.59375,-9.40625,26.21875,0.0,0.0,0.0
469,1696168291706,-1.0097656,-0.44726562,0.16699219,35.25,-13.9375,17.625,0.0,0.0,0.0
470,1696168291736,-0.9248047,-0.43066406,0.20996094,24.875,8.59375,-3.3125,0.0,0.0,0.0
471,1696168291796,-1.0263672,-0.40625,0.15917969,34.21875,23.46875,-3.96875,0.0,0.0,0.0
472,1696168291825,-1.3056641,-0.23632812,0.22167969,23.78125,66.28125,8.03125,0.0,0.0,0.0
473,1696168291853,-1.4619141,0.0009765625,0.125,19.40625,42.28125,2.78125,0.0,0.0,0.0
474,1696168291916,-0.86816406,-0.15820312,0.083984375,-19.0625,19.40625,-46.84375,0.0,0.0,0.0
475,1696168291945,-0.5517578,0.3408203,-0.17480469,13.09375,-18.09375,-3.375,0.0,0.0,0.0
476,1696168291975,-1.1464844,0.037109375,-0.33984375,-30.90625,58.28125,32.875,0.0,0.0,0.0
477,1696168292035,-1.15625,-0.37304688,-0.017578125,-7.28125,17.125,32.21875,0.0,0.0,0.0
478,1696168292066,-1.0234375,-0.4814453,-0.140625,-30.71875,-5.4375,-0.5,-47.375,17.875,-117.0625
479,1696168292093,-0.94628906,-0.032226562,-0.14257812,11.28125,11.15625,-12.09375,0.0,0.0,0.0
480,1696168292156,-1.0527344,0.07421875,-0.05078125,31.125,20.8125,12.5,0.0,0.0,0.0
481,1696168292185,-1.0449219,-0.09082031,-0.1640625,-18.21875,19.875,18.90625,0.0,0.0,0.0
482,1696168292215,-0.94921875,-0.10839844,-0.07519531,-12.46875,10.1875,22.875,0.0,0.0,0.0
483,1696168292274,-0.98535156,-0.20605469,-0.08984375,-10.15625,14.3125,25.4375,0.0,0.0,0.0
484,1696168292305,-0.97265625,-0.24804688,-0.12402344,-3.5625,19.75,15.0,0.0,0.0,0.0
485,1696168292334,-1.0087891,-0.111328125,-0.046875,-1.125,15.25,10.46875,0.0,0.0,0.0
486,1696168292396,-0.9199219,-0.10058594,-0.08203125,-4.59375,9.75,9.8125,0.0,0.0,0.0
487,1696168292425,-0.9863281,-0.17089844,-0.10449219,-6.90625,6.21875,15.625,0.0,0.0,0.0
488,1696168292456,-0.98828125,-0.26367188,-0.18261719,-16.625,5.1875,16.09375,0.0,0.0,0.0
489,1696168292516,-0.9482422,-0.22851562,-0.15039062,-25.15625,-3.6875,9.375,0.0,0.0,0.0
490,1696168292550,-0.9951172,-0.20800781,-0.12695312,1.28125,-3.0,10.0625,0.0,0.0,0.0
491,1696168292576,-1.1123047,-0.2529297,-0.15332031,6.15625,-7.21875,-4.65625,-45.125,26.3125,-121.125
492,1696168292634,-1.1230469,-0.053710938,-0.103515625,1.4375,-16.8125,-15.53125,0.0,0.0,0.0
493,1696168292668,-1.15625,-0.08886719,0.08496094,-21.5625,-36.40625,-25.46875,0.0,0.0,0.0
494,1696168292697,-1.1064453,-0.0546875,0.0009765625,-30.71875,-63.3125,-34.9375,0.0,0.0,0.0
495,1696168292755,-0.94140625,-0.0068359375,0.02734375,-21.8125,-58.78125,-36.40625,0.0,0.0,0.0
496,1696168292787,-1.0546875,0.01171875,0.0546875,-2.625,-39.0625,-24.5,0.0,0.0,0.0
497,1696168292815,-1.1650391,-0.020507812,0.08886719,-0.875,-31.9375,-23.625,0.0,0.0,0.0
498,1696168292875,-1.0585938,0.10253906,0.0625,-12.34375,-37.0,-25.40625,0.0,0.0,0.0
499,1696168292912,-0.97558594,0.03125,0.10546875,-38.53125,-33.59375,-18.8125,0.0,0.0,0.0
500,1696168292936,-0.91015625,-0.14648438,0.09277344,-49.875,-17.15625,-13.4375,0.0,0.0,0.0
501,1696168292996,-0.98339844,-0.18847656,0.13085938,-41.28125,-1.59375,-3.75,0.0,0.0,0.0
502,1696168293030,-0.9238281,-0.13964844,0.10253906,7.8125,5.90625,4.0,0.0,0.0,0.0
503,1696168293056,-0.85253906,-0.31445312,0.07421875,8.03125,15.1875,15.0625,-49.0625,20.4375,-110.0
504,1696168293117,-0.84472656,-0.25585938,0.034179688,12.5,21.78125,2.125,0.0,0.0,0.0
505,1696168293143,-0.88183594,-0.119140625,0.11425781,19.40625,24.21875,-3.5625,0.0,0.0,0.0
506,1696168293171,-0.97558594,-0.10546875,0.09667969,20.375,25.5625,3.90625,0.0,0.0,0.0
507,1696168293232,-1.3798828,-0.14355469,0.25,26.34375,34.90625,11.9375,0.0,0.0,0.0
508,1696168293270,-1.1162109,-0.103515625,0.09375,-25.40625,-4.96875,3.71875,0.0,0.0,0.0
509,1696168293292,-0.9482422,-0.17773438,0.022460938,17.125,-27.1875,16.65625,0.0,0.0,0.0
510,1696168293355,-0.7910156,-0.14550781,-0.0048828125,-17.46875,10.78125,-2.40625,0.0,0.0,0.0
511,1696168293390,-1.0234375,-0.10058594,0.049804688,30.6875,36.3125,14.3125,0.0,0.0,0.0
512,1696168293411,-1.1132812,-0.20117188,0.046875,24.75,16.53125,11.71875,0.0,0.0,0.0
513,1696168293471,-1.0693359,-0.11230469,-0.051757812,22.875,15.5625,7.375,0.0,0.0,0.0
514,1696168293509,-0.9746094,-0.026367188,0.021484375,19.8125,17.375,6.6875,0.0,0.0,0.0
515,1696168293532,-0.97753906,-0.08203125,0.032226562,2.3125,11.40625,5.34375,0.0,0.0,0.0
516,1696168293592,-0.9980469,-0.12402344,-0.016601562,-2.28125,9.1875,6.8125,-48.0,22.25,-115.875
517,1696168293621,-1.0390625,-0.16894531,-0.03515625,-2.9375,6.8125,6.8125,0.0,0.0,0.0
518,1696168293653,-0.984375,-0.16796875,-0.02734375,-6.65625,4.75,0.90625,0.0,0.0,0.0
519,1696168293712,-1.0107422,-0.10253906,0.044921875,2.4375,5.59375,2.1875,0.0,0.0,0.0
520,1696168293742,-0.9980469,-0.15039062,-0.013671875,-5.25,5.0625,0.53125,0.0,0.0,0.0
521,1696168293773,-1.0224609,-0.12890625,-0.021484375,-5.21875,3.28125,2.4375,0.0,0.0,0.0
522,1696168293851,-1.0263672,-0.12988281,-0.01953125,2.5,7.25,-0.5,0.0,0.0,0.0
523,1696168293864,-1.0175781,-0.13769531,-0.0390625,5.34375,9.125,0.34375,0.0,0.0,0.0
524,1696168293893,-1.0,-0.08691406,0.0009765625,-5.21875,-0.25,-1.125,0.0,0.0,0.0
525,1696168293953,-1.0039062,-0.11035156,-0.020507812,4.3125,5.125,1.5625,0.0,0.0,0.0
526,1696168293986,-1.0498047,-0.078125,-0.015625,4.0625,6.03125,0.28125,0.0,0.0,0.0
527,1696168294013,-1.0107422,-0.123046875,-0.01171875,-1.71875,-1.78125,-0.75,0.0,0.0,0.0
528,1696168294073,-1.0126953,-0.11230469,-0.01953125,4.375,5.65625,-1.0625,-46.0625,22.0625,-117.0625
529,1696168294103,-0.9902344,-0.07324219,-0.03125,-0.6875,-1.53125,-0.375,0.0,0.0,0.0
530,1696168294134,-0.9863281,-0.09277344,-0.021484375,0.28125,1.03125,2.0,0.0,0.0,0.0
531,1696168294196,-0.9970703,-0.11328125,-0.053710938,1.09375,7.25,0.40625,0.0,0.0,0.0
532,1696168294225,-1.0556641,-0.14648438,-0.0146484375,-3.0625,5.0625,-0.875,0.0,0.0,0.0
533,1696168294255,-1.0009766,-0.17285156,-0.05078125,2.90625,2.65625,1.3125,0.0,0.0,0.0
534,1696168294317,-1.0302734,-0.07910156,-0.01171875,3.71875,5.34375,-2.21875,0.0,0.0,0.0
535,1696168294344,-0.9921875,-0.09863281,-0.024414062,-2.46875,0.84375,-0.625,0.0,0.0,0.0
536,1696168294373,-1.0214844,-0.11035156,-0.0234375,-1.84375,5.84375,0.71875,0.0,0.0,0.0
537,1696168294436,-1.0185547,-0.10449219,-0.032226562,-5.8125,3.03125,-1.1875,0.0,0.0,0.0
538,1696168294467,-1.015625,-0.091796875,-0.01953125,-0.5,2.90625,3.21875,0.0,0.0,0.0
539,1696168294494,-0.9951172,-0.14941406,-0.060546875,-5.4375,5.40625,0.0,0.0,0.0,0.0
540,1696168294554,-1.0039062,-0.107421875,-0.02734375,-6.125,3.9375,0.0,0.0,0.0,0.0
541,1696168294585,-1.0078125,-0.12011719,-0.048828125,3.53125,4.875,4.125,-46.1875,22.6875,-118.5625
542,1696168294618,-1.0273438,-0.13476562,-0.0390625,3.53125,6.28125,2.5625,0.0,0.0,0.0
543,1696168294677,-0.9970703,-0.125,-0.038085938,-2.46875,1.9375,2.0625,0.0,0.0,0.0
544,1696168294704,-1.0029297,-0.11425781,-0.032226562,3.90625,6.09375,0.28125,0.0,0.0,0.0
545,1696168294736,-1.0097656,-0.12011719,-0.053710938,-6.0,2.90625,-3.375,0.0,0.0,0.0
546,1696168294796,-1.015625,-0.08691406,-0.0068359375,0.21875,2.4375,-3.625,0.0,0.0,0.0
547,1696168294829,-0.9970703,-0.08300781,-0.064453125,-11.0,1.5625,-7.03125,0.0,0.0,0.0
548,1696168294853,-0.9736328,-0.10546875,0.0068359375,-17.40625,4.75,-11.625,0.0,0.0,0.0
549,1696168294915,-1.0283203,-0.15136719,-0.060546875,-18.5,4.875,-14.53125,0.0,0.0,0.0
550,1696168294946,-1.0039062,-0.12988281,-0.0078125,-8.75,2.71875,-11.5625,0.0,0.0,0.0
551,1696168294974,-0.9199219,-0.14746094,-0.083984375,-21.8125,-12.03125,-20.28125,0.0,0.0,0.0
552,1696168295033,-0.9892578,-0.13671875,-0.1015625,-12.53125,21.34375,-13.4375,0.0,0.0,0.0
553,1696168295071,-0.9941406,-0.12011719,-0.047851562,1.375,11.03125,-1.59375,-47.6875,20.875,-117.5
554,1696168295095,-1.0302734,-0.21191406,-0.13378906,-9.0625,5.96875,-5.8125,0.0,0.0,0.0
555,1696168295155,-0.97753906,-0.3251953,-0.13867188,-19.78125,-8.5625,-17.15625,0.0,0.0,0.0
556,1696168295191,-0.9863281,-0.25683594,-0.11621094,-6.96875,4.8125,-11.1875,0.0,0.0,0.0
557,1696168295219,-1.0732422,-0.24414062,-0.09082031,-14.71875,-6.5,-8.5625,0.0,0.0,0.0
558,1696168295275,-1.0107422,-0.3466797,-0.078125,11.8125,15.4375,2.4375,0.0,0.0,0.0
559,1696168295305,-0.9277344,-0.2626953,-0.14746094,20.4375,16.65625,9.25,0.0,0.0,0.0
560,1696168295335,-0.9794922,-0.28125,-0.07128906,31.78125,-0.5625,6.34375,0.0,0.0,0.0
561,1696168295397,-0.8691406,-0.21972656,-0.030273438,17.625,-9.84375,-5.8125,0.0,0.0,0.0
562,1696168295428,-0.83496094,-0.21777344,-0.08886719,-2.9375,-3.8125,-22.28125,0.0,0.0,0.0
563,1696168295454,-0.8925781,-0.080078125,0.013671875,-19.0625,-9.53125,-23.9375,0.0,0.0,0.0
564,1696168295515,-0.8076172,-0.13378906,-0.051757812,-13.5625,-36.03125,-14.0625,0.0,0.0,0.0
565,1696168295545,-0.9375,-0.44921875,0.0048828125,-3.8125,-5.4375,-1.65625,0.0,0.0,0.0
566,1696168295577,-0.8544922,-0.19921875,-0.14257812,-35.84375,-33.15625,-22.28125,-46.5,19.375,-117.5
567,1696168295636,-1.0009766,-0.26464844,-0.1015625,-19.78125,13.34375,-5.3125,0.0,0.0,0.0
568,1696168295669,-0.93066406,-0.45898438,-0.09472656,18.125,-18.03125,-3.1875,0.0,0.0,0.0
569,1696168295697,-1.0429688,-0.2919922,-0.12011719,-32.59375,-1.3125,-15.15625,0.0,0.0,0.0
570,1696168295758,-0.8222656,-0.28125,-0.07421875,25.0,-32.4375,0.65625,0.0,0.0,0.0
571,1696168295788,-1.046875,-0.47753906,-0.14941406,-3.3125,-19.0625,4.25,0.0,0.0,0.0
572,1696168295813,-1.3320312,-0.24023438,0.037109375,-2.46875,2.0625,0.78125,0.0,0.0,0.0
573,1696168295873,-1.2392578,-0.34375,0.02734375,-1.84375,-30.78125,-12.28125,0.0,0.0,0.0
574,1696168295904,-1.2685547,-0.34179688,0.06933594,22.3125,-26.4375,2.375,0.0,0.0,0.0
575,1696168295934,-1.1298828,-0.044921875,0.076171875,47.59375,-16.1875,12.625,0.0,0.0,0.0
576,1696168295993,-0.9042969,-0.16992188,0.1015625,12.5625,-25.96875,19.40625,0.0,0.0,0.0
577,1696168296024,-0.9716797,-0.32226562,0.1015625,-8.9375,-18.9375,9.5,0.0,0.0,0.0
578,1696168296053,-1.0117188,-0.23339844,0.119140625,-14.40625,-27.40625,-17.46875,-49.8125,18.3125,-111.0625
579,1696168296113,-1.0605469,-0.103515625,0.09765625,-38.03125,-27.1875,-36.09375,0.0,0.0,0.0
580,1696168296145,-0.9199219,-0.24316406,0.19335938,-28.8125,-28.28125,-35.78125,0.0,0.0,0.0
581,1696168296173,-0.9267578,-0.36132812,0.16894531,-14.1875,-35.71875,-40.40625,0.0,0.0,0.0
582,1696168296233,-1.1064453,-0.23828125,0.08886719,-11.96875,-32.71875,-42.4375,0.0,0.0,0.0
583,1696168296262,-0.97265625,-0.2685547,0.17480469,-16.75,-39.03125,-47.375,0.0,0.0,0.0
584,1696168296293,-0.75878906,-0.3076172,0.09863281,-35.0625,-14.71875,-36.46875,0.0,0.0,0.0
585,1696168296353,-0.7421875,-0.28320312,0.091796875,-41.40625,12.3125,-22.46875,0.0,0.0,0.0
586,1696168296383,-0.6748047,-0.20996094,0.15625,-42.0625,13.78125,-5.9375,0.0,0.0,0.0
587,1696168296413,-0.6308594,-0.32421875,0.12597656,-33.65625,16.71875,7.8125,0.0,0.0,0.0
588,1696168296473,-0.5673828,-0.4658203,0.20117188,10.1875,23.71875,26.28125,0.0,0.0,0.0
589,1696168296503,-0.8046875,-0.50683594,0.099609375,23.96875,18.21875,46.3125,0.0,0.0,0.0
590,1696168296532,-0.9091797,-0.38378906,0.11230469,81.21875,6.03125,36.25,0.0,0.0,0.0
591,1696168296593,-0.8769531,-0.021484375,0.23535156,52.53125,26.46875,38.3125,-51.625,14.75,-104.125
592,1696168296623,-1.2050781,-0.41210938,0.16308594,26.40625,35.25,29.03125,0.0,0.0,0.0
593,1696168296653,-0.79785156,-0.7089844,0.12597656,-6.71875,64.9375,-4.21875,0.0,0.0,0.0
594,1696168296712,-1.0722656,-0.2998047,0.5917969,14.09375,20.90625,-25.09375,0.0,0.0,0.0
595,1696168296745,-1.1484375,-0.0068359375,0.14941406,18.78125,28.0,-3.5625,0.0,0.0,0.0
596,1696168296773,-1.2490234,-0.2939453,-0.15625,-24.1875,24.59375,5.59375,0.0,0.0,0.0
597,1696168296834,-1.2480469,-0.17089844,0.08496094,-40.71875,15.78125,3.65625,0.0,0.0,0.0
598,1696168296862,-1.125,-0.37695312,-0.0048828125,5.46875,-8.75,10.71875,0.0,0.0,0.0
599,1696168296892,-1.0205078,-0.32128906,-0.16503906,3.40625,11.9375,1.75,0.0,0.0,0.0
600,1696168296954,-1.0195312,-0.12011719,-0.13769531,-12.21875,10.96875,3.09375,0.0,0.0,0.0
601,1696168296985,-1.0361328,-0.09375,-0.037109375,1.5,31.25,18.0625,0.0,0.0,0.0
602,1696168297016,-1.0722656,-0.25195312,-0.057617188,-8.6875,23.84375,28.375,0.0,0.0,0.0
603,1696168297076,-1.0019531,-0.2783203,-0.10839844,-13.03125,1.375,13.15625,-49.1875,16.375,-114.9375
604,1696168297103,-0.96191406,-0.26367188,-0.06640625,-8.0625,17.3125,12.625,0.0,0.0,0.0
605,1696168297137,-0.98046875,-0.26660156,-0.026367188,-14.78125,13.90625,12.75,0.0,0.0,0.0
606,1696168297196,-0.8935547,-0.29003906,-0.09277344,7.25,7.25,13.28125,0.0,0.0,0.0
607,1696168297234,-0.8935547,-0.29101562,-0.06640625,7.8125,1.5625,8.71875,0.0,0.0,0.0
608,1696168297256,-0.94433594,-0.2939453,-0.049804688,7.125,0.96875,2.90625,0.0,0.0,0.0
609,1696168297314,-0.9169922,-0.26464844,-0.076171875,13.59375,-0.9375,-2.8125,0.0,0.0,0.0
610,1696168297349,-0.859375,-0.20996094,-0.02734375,16.03125,-3.5625,-10.15625,0.0,0.0,0.0
611,1696168297376,-0.83496094,-0.20996094,0.056640625,-1.25,-8.625,-8.5,0.0,0.0,0.0
612,1696168297432,-0.87597656,-0.18945312,-0.06933594,7.96875,-7.15625,-7.59375,0.0,0.0,0.0
613,1696168297462,-0.9345703,-0.36328125,-0.0068359375,12.4375,-0.125,-1.34375,0.0,0.0,0.0
614,1696168297492,-0.96484375,-0.27539062,-0.09863281,-15.28125,-4.59375,-16.5625,0.0,0.0,0.0
615,1696168297552,-1.0126953,-0.20214844,-0.052734375,3.28125,-1.1875,-6.1875,0.0,0.0,0.0
616,1696168297582,-0.85839844,-0.1953125,-0.0703125,17.6875,-31.5,-0.1875,-49.0625,18.3125,-115.125
617,1696168297614,-0.93652344,-0.4638672,-0.064453125,4.25,-1.59375,6.46875,0.0,0.0,0.0
618,1696168297673,-0.9658203,-0.37695312,-0.032226562,2.84375,-5.6875,5.34375,0.0,0.0,0.0
619,1696168297702,-0.98046875,-0.35253906,-0.048828125,2.4375,-9.21875,3.71875,0.0,0.0,0.0
620,1696168297733,-1.2431641,-0.28222656,-0.0390625,18.0625,-8.5,-10.8125,0.0,0.0,0.0
621,1696168297791,-1.3339844,-0.099609375,-0.08300781,2.5,-4.09375,-9.53125,0.0,0.0,0.0
622,1696168297821,-1.4482422,-0.19140625,0.111328125,8.21875,-30.15625,-7.21875,0.0,0.0,0.0
623,1696168297852,-1.0732422,-0.38183594,0.07714844,-29.0,-27.90625,-18.5,0.0,0.0,0.0
624,1696168297912,-0.85546875,-0.35742188,0.13671875,0.0,-16.75,-24.90625,0.0,0.0,0.0
625,1696168297941,-1.0449219,-0.22363281,0.09667969,-29.8125,-13.0625,-30.21875,0.0,0.0,0.0
626,1696168297972,-1.0595703,-0.12792969,0.032226562,-18.03125,-22.15625,-32.4375,0.0,0.0,0.0
627,1696168298033,-0.93652344,-0.3017578,0.057617188,-1.46875,-28.9375,-32.96875,0.0,0.0,0.0
628,1696168298062,-0.9560547,-0.37695312,0.09472656,-29.9375,-14.53125,-48.125,-49.625,12.0625,-107.3125
629,1696168298092,-0.90722656,-0.36621094,0.09277344,-13.03125,-14.46875,-39.375,0.0,0.0,0.0
630,1696168298153,-0.7285156,-0.2919922,0.0859375,-2.40625,-14.0625,-32.3125,0.0,0.0,0.0
631,1696168298183,-0.78515625,-0.28808594,0.11328125,5.71875,-7.53125,-8.125,0.0,0.0,0.0
632,1696168298213,-0.8730469,-0.33496094,0.11328125,10.125,-8.1875,9.6875,0.0,0.0,0.0
633,1696168298272,-0.75390625,-0.22558594,0.14453125,9.4375,-13.375,22.25,0.0,0.0,0.0
634,1696168298302,-0.6845703,-0.21582031,0.125,8.84375,1.3125,48.875,0.0,0.0,0.0
635,1696168298336,-0.7871094,-0.25097656,0.14550781,41.1875,-4.40625,73.46875,0.0,0.0,0.0
636,1696168298396,-0.6621094,-0.53808594,0.09277344,73.40625,20.0,56.1875,0.0,0.0,0.0
637,1696168298424,-0.9296875,-0.46679688,0.19921875,22.5,33.0,6.8125,0.0,0.0,0.0
638,1696168298454,-0.9765625,-0.30859375,-0.0009765625,-3.375,63.9375,-10.4375,0.0,0.0,0.0
639,1696168298516,-1.1074219,-0.107421875,0.4111328,-12.34375,28.0625,-14.46875,0.0,0.0,0.0
640,1696168298547,-0.95214844,-0.11425781,0.19433594,-2.8125,-5.875,-2.46875,0.0,0.0,0.0
641,1696168298609,-1.3222656,-0.32910156,0.14746094,-7.875,34.65625,15.5,-49.1875,15.0625,-110.125
642,1696168298635,-1.3330078,-0.34375,-0.13085938,-55.5,62.1875,-13.375,0.0,0.0,0.0
643,1696168298666,-1.1035156,0.04296875,-0.044921875,-4.71875,-15.59375,9.5625,0.0,0.0,0.0
644,1696168298695,-1.0068359,-0.375,-0.056640625,5.46875,-2.53125,10.0625,0.0,0.0,0.0
645,1696168298756,-1.1025391,-0.0146484375,-0.06933594,-19.53125,40.8125,17.0625,0.0,0.0,0.0
646,1696168298784,-1.09375,-0.2783203,-0.052734375,-9.78125,25.1875,35.03125,0.0,0.0,0.0
647,1696168298816,-0.9746094,-0.18359375,-0.09277344,-29.9375,-7.03125,14.5,0.0,0.0,0.0
648,1696168298877,-0.9746094,-0.27148438,-0.1015625,-19.71875,14.3125,13.71875,0.0,0.0,0.0
649,1696168298905,-0.9814453,-0.32617188,-0.09375,-9.34375,14.875,11.15625,0.0,0.0,0.0
650,1696168298934,-0.9765625,-0.20996094,-0.072265625,-12.53125,10.53125,9.25,0.0,0.0,0.0
651,1696168298994,-0.9550781,-0.24511719,-0.043945312,-0.4375,5.28125,9.03125,0.0,0.0,0.0
652,1696168299027,-0.94921875,-0.29101562,-0.022460938,4.8125,11.9375,8.03125,0.0,0.0,0.0
653,1696168299086,-0.94140625,-0.2783203,-0.021484375,21.09375,4.0,3.46875,-45.625,21.3125,-115.6875
654,1696168299112,-0.9082031,-0.27734375,0.046875,5.40625,-11.71875,-6.71875,0.0,0.0,0.0
655,1696168299142,-0.78808594,-0.18945312,-0.017578125,2.4375,-30.15625,-16.5625,0.0,0.0,0.0
656,1696168299172,-0.69921875,-0.23828125,0.05078125,26.59375,-25.78125,-18.75,0.0,0.0,0.0
657,1696168299235,-0.9326172,-0.24316406,-0.16015625,7.84375,-6.5,-21.5625,0.0,0.0,0.0
658,1696168299265,-0.83984375,-0.18847656,-0.032226562,10.375,19.09375,-8.9375,0.0,0.0,0.0
659,1696168299295,-1.0166016,-0.26757812,-0.043945312,-6.0,-17.46875,-20.34375,0.0,0.0,0.0
660,1696168299355,-0.94628906,-0.25097656,0.026367188,-28.40625,-0.75,-13.9375,0.0,0.0,0.0
661,1696168299385,-0.9589844,-0.2626953,-0.16113281,12.0,-12.09375,-1.125,0.0,0.0,0.0
662,1696168299415,-0.9472656,-0.3701172,0.0234375,17.6875,-3.75,12.25,0.0,0.0,0.0
663,1696168299476,-1.2001953,-0.39257812,0.07324219,5.96875,-2.46875,-6.5,0.0,0.0,0.0
664,1696168299508,-1.1796875,-0.29296875,-0.05859375,12.1875,11.03125,-1.71875,0.0,0.0,0.0
665,1696168299536,-1.3037109,-0.17675781,0.030273438,26.28125,3.59375,-7.03125,0.0,0.0,0.0
666,1696168299597,-1.1152344,-0.21972656,0.11230469,24.8125,-29.3125,2.375,-48.625,17.875,-112.875
667,1696168299625,-1.1201172,-0.23339844,0.14550781,22.75,-15.8125,-4.34375,0.0,0.0,0.0
668,1696168299654,-1.0683594,-0.17578125,0.12597656,-8.1875,-26.625,-20.15625,0.0,0.0,0.0
669,1696168299714,-1.1025391,-0.16796875,0.078125,-29.9375,-37.125,-24.0,0.0,0.0,0.0
670,1696168299747,-1.0546875,-0.13671875,0.0390625,-27.53125,-39.75,-25.21875,0.0,0.0,0.0
671,1696168299775,-1.0273438,-0.24804688,0.12988281,-45.375,-29.5,-27.40625,0.0,0.0,0.0
672,1696168299835,-0.98339844,-0.3330078,0.083984375,-37.0,-11.3125,-29.875,0.0,0.0,0.0
673,1696168299865,-0.94433594,-0.29882812,0.09082031,-19.84375,-29.0625,-35.90625,0.0,0.0,0.0
674,1696168299926,-0.8623047,-0.23144531,0.095703125,-24.0625,0.21875,-34.4375,0.0,0.0,0.0
675,1696168299953,-0.6621094,-0.16113281,0.09472656,-2.28125,-8.0625,-13.9375,0.0,0.0,0.0
676,1696168299982,-0.70410156,-0.19824219,0.18261719,5.40625,-0.3125,8.71875,0.0,0.0,0.0
677,1696168300012,-0.6376953,-0.21875,0.10839844,9.1875,-7.34375,30.0625,0.0,0.0,0.0
678,1696168300073,-0.67578125,-0.17578125,0.09863281,7.375,3.21875,48.5625,-48.875,12.0625,-105.625
679,1696168300106,-0.8925781,-0.4033203,0.06738281,29.28125,8.46875,57.59375,0.0,0.0,0.0
680,1696168300135,-0.8378906,-0.34375,0.15917969,54.96875,1.15625,50.09375,0.0,0.0,0.0
681,1696168300196,-0.9560547,-0.3779297,0.16992188,9.8125,23.96875,27.8125,0.0,0.0,0.0
682,1696168300229,-1.1035156,-0.17285156,0.21484375,-4.53125,70.40625,18.84375,0.0,0.0,0.0
683,1696168300256,-1.0332031,-0.38183594,0.2626953,-5.8125,43.3125,13.84375,0.0,0.0,0.0
684,1696168300315,-1.1572266,-0.24902344,0.34375,-7.9375,28.625,3.03125,0.0,0.0,0.0
685,1696168300350,-1.2597656,-0.13769531,-0.11328125,-23.875,40.5625,-10.5,0.0,0.0,0.0
686,1696168300377,-1.1386719,0.2265625,0.13085938,-35.0,33.375,8.84375,0.0,0.0,0.0
687,1696168300436,-1.2138672,-0.44921875,-0.049804688,-25.53125,6.8125,8.15625,0.0,0.0,0.0
688,1696168300466,-1.1728516,-0.16699219,-0.052734375,0.90625,28.25,4.3125,0.0,0.0,0.0
689,1696168300494,-1.0761719,-0.20996094,-0.078125,13.96875,9.8125,17.5625,0.0,0.0,0.0
690,1696168300554,-0.97558594,-0.17480469,-0.13378906,6.03125,-3.96875,11.40625,0.0,0.0,0.0
691,1696168300587,-1.0830078,-0.22265625,-0.083984375,9.125,25.25,17.3125,-48.125,21.3125,-113.625
692,1696168300615,-0.9863281,-0.08886719,-0.07324219,-4.78125,10.78125,7.5,0.0,0.0,0.0
693,1696168300675,-0.9404297,-0.14648438,-0.022460938,-12.28125,10.96875,5.40625,0.0,0.0,0.0
694,1696168300707,-0.91308594,-0.16113281,-0.05859375,-14.71875,-0.0625,8.28125,0.0,0.0,0.0
695,1696168300734,-0.9013672,-0.24316406,-0.0625,-8.5625,-0.5625,3.40625,0.0,0.0,0.0
696,1696168300792,-0.88671875,-0.26171875,0.037109375,5.28125,-9.71875,-7.28125,0.0,0.0,0.0
697,1696168300829,-0.859375,-0.3095703,-0.03515625,-10.09375,-17.53125,-23.40625,0.0,0.0,0.0
698,1696168300857,-0.7324219,-0.15722656,0.025390625,4.875,-35.71875,-30.03125,0.0,0.0,0.0
699,1696168300925,-0.9970703,-0.3720703,-0.02734375,24.34375,1.875,-20.09375,0.0,0.0,0.0
700,1696168300944,-0.8671875,-0.2109375,-0.099609375,4.9375,1.5625,-25.96875,0.0,0.0,0.0
701,1696168300975,-1.0214844,-0.2265625,-0.05078125,7.1875,-10.09375,-8.25,0.0,0.0,0.0
702,1696168301035,-0.9824219,-0.31835938,-0.018554688,25.9375,-2.15625,-3.5625,0.0,0.0,0.0
703,1696168301066,-1.015625,-0.29882812,-0.0009765625,30.4375,-7.28125,-5.3125,-47.6875,18.8125,-112.6875
704,1696168301126,-0.98828125,-0.13671875,-0.06738281,26.28125,-17.53125,7.125,0.0,0.0,0.0
705,1696168301156,-0.9433594,-0.30859375,0.009765625,21.15625,-9.46875,18.65625,0.0,0.0,0.0
706,1696168301183,-1.0693359,-0.50683594,0.034179688,-4.09375,-14.90625,-6.59375,0.0,0.0,0.0
707,1696168301248,-1.2568359,-0.31835938,0.07910156,10.53125,-12.09375,-23.21875,0.0,0.0,0.0
708,1696168301280,-1.1855469,-0.31445312,0.0859375,18.90625,-41.59375,-32.96875,0.0,0.0,0.0
709,1696168301304,-1.2734375,-0.21386719,0.099609375,10.125,-20.65625,-44.5,0.0,0.0,0.0
710,1696168301371,-1.0390625,0.02734375,0.048828125,44.1875,-23.875,-23.4375,0.0,0.0,0.0
711,1696168301395,-1.1201172,-0.11328125,0.13671875,14.75,-16.6875,-12.28125,0.0,0.0,0.0
712,1696168301424,-0.9951172,-0.22949219,0.13769531,-39.1875,-10.5,-22.46875,0.0,0.0,0.0
713,1696168301490,-1.0742188,-0.1640625,0.13964844,-12.96875,-5.3125,-17.21875,0.0,0.0,0.0
714,1696168301518,-1.0107422,-0.29589844,0.038085938,-16.5,-15.15625,-26.5625,0.0,0.0,0.0
715,1696168301545,-0.8652344,-0.32910156,0.20410156,-15.40625,-31.4375,-33.46875,0.0,0.0,0.0
716,1696168301605,-0.90625,-0.2265625,0.13574219,-16.5,-12.21875,-23.40625,-51.4375,10.6875,-105.9375
717,1696168301638,-0.7949219,-0.16992188,0.09765625,-14.40625,3.65625,-14.59375,0.0,0.0,0.0
718,1696168301669,-0.67871094,-0.24121094,0.14257812,-8.1875,3.9375,2.375,0.0,0.0,0.0
719,1696168301728,-0.71191406,-0.2939453,0.17675781,7.84375,-5.5,18.84375,0.0,0.0,0.0
720,1696168301755,-0.7607422,-0.28320312,0.15917969,17.6875,9.125,40.75,0.0,0.0,0.0
721,1696168301783,-0.7626953,-0.43847656,0.0546875,31.125,16.9375,58.15625,0.0,0.0,0.0
722,1696168301847,-0.7949219,-0.27246094,0.2578125,71.75,12.625,40.03125,0.0,0.0,0.0
723,1696168301875,-1.0214844,-0.22265625,0.15332031,8.84375,42.65625,30.5,0.0,0.0,0.0
724,1696168301905,-0.9160156,-0.26367188,-0.009765625,2.84375,52.0,21.09375,0.0,0.0,0.0
725,1696168301971,-1.2060547,-0.28808594,0.296875,-5.625,55.78125,24.75,0.0,0.0,0.0
726,1696168301994,-1.0615234,-0.27246094,0.24316406,-33.28125,25.5625,7.625,0.0,0.0,0.0
727,1696168302023,-0.9482422,-0.15722656,0.15136719,-37.625,19.15625,7.125,0.0,0.0,0.0
728,1696168302084,-1.2929688,-0.13183594,-0.044921875,-24.1875,39.0625,22.375,-50.125,15.5,-112.125
729,1696168302114,-1.140625,-0.32910156,-0.072265625,-10.9375,27.15625,10.0625,0.0,0.0,0.0
730,1696168302145,-0.97753906,-0.32128906,-0.020507812,-29.25,15.90625,-9.0625,0.0,0.0,0.0
731,1696168302206,-1.0517578,0.0546875,-0.06933594,28.25,28.3125,-11.0,0.0,0.0,0.0
732,1696168302235,-1.2685547,0.13085938,-0.07519531,-5.6875,27.5,15.3125,0.0,0.0,0.0
733,1696168302267,-1.1083984,-0.16601562,-0.12890625,-27.40625,-14.90625,16.40625,0.0,0.0,0.0
734,1696168302326,-0.9121094,-0.32226562,-0.18457031,-12.21875,-14.71875,4.6875,0.0,0.0,0.0
735,1696168302354,-1.0458984,-0.2421875,-0.107421875,-14.96875,13.46875,-5.75,0.0,0.0,0.0
736,1696168302386,-1.0605469,-0.07421875,-0.109375,1.3125,14.21875,3.78125,0.0,0.0,0.0
737,1696168302476,-1.0234375,-0.15039062,-0.05078125,16.84375,5.90625,12.1875,0.0,0.0,0.0
738,1696168302480,-0.9267578,-0.26464844,-0.10253906,4.6875,6.28125,9.6875,0.0,0.0,0.0
739,1696168302505,-0.921875,-0.16015625,-0.032226562,22.125,9.9375,6.34375,0.0,0.0,0.0
740,1696168302567,-0.9091797,-0.26757812,-0.037109375,27.75,0.40625,-2.03125,0.0,0.0,0.0
741,1696168302593,-0.8144531,-0.20800781,-0.0087890625,10.65625,-12.46875,-15.28125,-49.1875,20.0,-116.3125
742,1696168302626,-0.8535156,-0.15820312,0.10253906,-0.1875,-17.40625,-25.65625,0.0,0.0,0.0
743,1696168302686,-0.8515625,-0.15722656,-0.16503906,-6.65625,-27.53125,-27.65625,0.0,0.0,0.0
744,1696168302714,-0.87402344,-0.31445312,-0.07519531,-18.15625,0.90625,-13.4375,0.0,0.0,0.0
745,1696168302750,-0.953125,-0.29785156,-0.0087890625,-19.65625,-5.375,-14.0,0.0,0.0,0.0
746,1696168302836,-1.1162109,-0.45214844,-0.06640625,17.6875,20.5625,-7.21875,0.0,0.0,0.0
747,1696168302841,-0.95214844,-0.23632812,-0.09082031,40.8125,-27.59375,-12.84375,0.0,0.0,0.0
748,1696168302865,-1.0117188,-0.1875,-0.060546875,16.9375,-9.96875,-0.8125,0.0,0.0,0.0
749,1696168302926,-1.015625,-0.27539062,0.005859375,11.75,-10.625,7.5625,0.0,0.0,0.0
750,1696168302954,-0.96777344,-0.42382812,-0.0859375,10.96875,-8.75,22.5,0.0,0.0,0.0
751,1696168302985,-1.3564453,-0.3955078,0.029296875,1.03125,4.75,-3.1875,0.0,0.0,0.0
752,1696168303073,-1.2460938,-0.24707031,-0.03515625,8.15625,-7.28125,-9.21875,-49.8125,15.5,-115.125
753,1696168303077,-1.3056641,0.0234375,0.23535156,20.25,-17.21875,-2.53125,0.0,0.0,0.0
754,1696168303104,-1.1152344,-0.1953125,0.0625,-7.65625,-19.84375,-6.84375,0.0,0.0,0.0
755,1696168303163,-0.8808594,-0.3251953,0.0859375,-12.40625,-29.125,-17.40625,0.0,0.0,0.0
756,1696168303193,-0.96972656,-0.20019531,0.034179688,4.0,-27.1875,-15.75,0.0,0.0,0.0
757,1696168303223,-1.0556641,-0.08886719,0.10253906,-10.875,-18.625,-23.8125,0.0,0.0,0.0
758,1696168303283,-1.109375,-0.034179688,0.059570312,-17.78125,-22.40625,-18.4375,0.0,0.0,0.0
759,1696168303312,-1.0449219,-0.421875,0.111328125,-21.875,-25.53125,-34.0,0.0,0.0,0.0
760,1696168303343,-0.93847656,-0.23144531,0.12890625,-32.78125,-25.71875,-41.34375,0.0,0.0,0.0
761,1696168303403,-0.8623047,-0.23632812,0.049804688,-13.03125,-18.9375,-24.84375,0.0,0.0,0.0
762,1696168303434,-0.7734375,-0.18164062,0.09667969,-22.59375,-13.3125,-16.25,0.0,0.0,0.0
763,1696168303462,-0.74609375,-0.12109375,0.056640625,-17.65625,-11.5,0.40625,0.0,0.0,0.0
764,1696168303522,-0.7734375,-0.21386719,0.15234375,13.09375,-9.84375,17.0625,0.0,0.0,0.0
765,1696168303552,-0.6279297,-0.30859375,0.076171875,18.78125,-1.65625,34.96875,0.0,0.0,0.0
766,1696168303583,-0.75878906,-0.37695312,0.11816406,12.25,20.8125,36.65625,-49.625,10.6875,-106.375
767,1696168303643,-0.9589844,-0.2841797,0.17578125,41.375,13.96875,33.5625,0.0,0.0,0.0
768,1696168303672,-0.8261719,-0.34179688,0.1328125,26.21875,23.78125,21.09375,0.0,0.0,0.0
769,1696168303702,-1.0283203,-0.24316406,0.17480469,14.15625,47.46875,18.0,0.0,0.0,0.0
770,1696168303767,-1.1220703,-0.27734375,0.17871094,16.65625,55.96875,18.0,0.0,0.0,0.0
771,1696168303793,-1.0410156,-0.29003906,0.25976562,-30.40625,22.125,0.46875,0.0,0.0,0.0
772,1696168303823,-1.3447266,-0.28222656,0.296875,4.4375,35.09375,14.375,0.0,0.0,0.0
773,1696168303884,-1.2724609,-0.27539062,-0.21191406,-56.71875,49.0625,-14.78125,0.0,0.0,0.0
774,1696168303914,-1.203125,0.015625,0.032226562,-35.78125,16.46875,2.65625,0.0,0.0,0.0
775,1696168303945,-0.95214844,-0.42285156,-0.032226562,-16.125,-2.40625,3.21875,0.0,0.0,0.0
776,1696168304006,-1.0351562,-0.17773438,-0.10839844,4.375,35.5,1.5625,0.0,0.0,0.0
777,1696168304036,-1.0869141,0.14355469,-0.12011719,11.9375,27.625,22.8125,0.0,0.0,0.0
778,1696168304064,-0.9951172,-0.18261719,-0.09667969,-4.15625,-14.96875,10.90625,-46.8125,16.6875,-116.3125
779,1696168304128,-1.0244141,-0.1875,-0.15820312,-11.84375,23.59375,12.9375,0.0,0.0,0.0
780,1696168304155,-1.0820312,-0.1171875,-0.099609375,-9.53125,22.5625,9.03125,0.0,0.0,0.0
781,1696168304186,-1.0244141,-0.08496094,-0.099609375,-22.0625,1.28125,7.8125,0.0,0.0,0.0
782,1696168304251,-0.921875,-0.25390625,-0.064453125,-7.78125,-11.375,10.46875,0.0,0.0,0.0
783,1696168304276,-0.8671875,-0.26464844,-0.064453125,-1.84375,4.875,0.03125,0.0,0.0,0.0
784,1696168304306,-0.9716797,-0.12890625,-0.07128906,7.25,9.6875,-0.8125,0.0,0.0,0.0
785,1696168304368,-0.875,-0.21191406,-0.053710938,3.28125,-7.8125,-3.25,0.0,0.0,0.0
786,1696168304397,-0.81640625,-0.20507812,0.045898438,-1.71875,-34.625,-18.375,0.0,0.0,0.0
787,1696168304425,-0.93652344,-0.3828125,-0.095703125,0.59375,-13.5625,-21.3125,0.0,0.0,0.0
788,1696168304488,-0.6582031,-0.052734375,-0.07910156,1.375,-32.25,-34.8125,0.0,0.0,0.0
789,1696168304514,-0.9189453,-0.044921875,0.00390625,-17.15625,-13.3125,-23.4375,0.0,0.0,0.0
790,1696168304554,-0.94433594,-0.36523438,-0.08691406,-43.03125,52.21875,-0.75,0.0,0.0,0.0
791,1696168304605,-1.046875,-0.45410156,-0.15039062,25.9375,-21.0,-2.28125,-47.875,16.375,-114.625
792,1696168304638,-1.1220703,-0.28710938,-0.083984375,-4.53125,-10.5,-9.34375,0.0,0.0,0.0
793,1696168304666,-0.94433594,-0.17285156,-0.10546875,28.0,-42.8125,-1.90625,0.0,0.0,0.0
794,1696168304756,-0.93066406,-0.35839844,-0.08300781,0.0,-17.28125,15.96875,0.0,0.0,0.0
795,1696168304760,-1.2900391,-0.39648438,0.0078125,6.5,-13.9375,4.1875,0.0,0.0,0.0
796,1696168304786,-1.1357422,-0.28027344,-0.029296875,1.9375,-26.1875,-6.0625,0.0,0.0,0.0
797,1696168304845,-1.2451172,-0.25585938,0.11230469,22.125,-21.5625,-3.25,0.0,0.0,0.0
798,1696168304875,-1.0917969,-0.14257812,0.10253906,6.28125,-26.6875,-3.8125,0.0,0.0,0.0
799,1696168304904,-1.0009766,-0.07421875,0.14160156,17.125,-33.59375,1.15625,0.0,0.0,0.0
800,1696168304965,-1.1660156,-0.12597656,0.12011719,-14.0625,-10.875,-6.84375,0.0,0.0,0.0
801,1696168304994,-1.0068359,-0.11230469,0.13671875,-30.96875,-29.5,-24.3125,0.0,0.0,0.0
802,1696168305025,-0.96875,-0.27148438,0.14160156,-30.59375,-24.625,-21.375,0.0,0.0,0.0
803,1696168305084,-1.0097656,-0.3076172,0.1171875,-33.65625,-10.40625,-26.4375,-49.625,14.3125,-108.8125
804,1696168305114,-1.0283203,-0.15722656,0.1328125,-2.28125,-21.25,-32.84375,0.0,0.0,0.0
805,1696168305143,-0.9042969,-0.23828125,0.068359375,-32.125,-15.53125,-35.71875,0.0,0.0,0.0
806,1696168305205,-0.8046875,-0.21484375,0.09277344,-33.21875,-11.3125,-26.5625,0.0,0.0,0.0
807,1696168305234,-0.765625,-0.1875,0.17089844,-4.65625,-5.21875,-9.65625,0.0,0.0,0.0
808,1696168305270,-0.7294922,-0.19628906,0.083984375,-1.46875,-3.5625,6.9375,0.0,0.0,0.0
809,1696168305325,-0.72558594,-0.2265625,0.11425781,-12.28125,7.3125,19.6875,0.0,0.0,0.0
810,1696168305355,-0.6376953,-0.32128906,0.13476562,3.71875,4.0625,42.78125,0.0,0.0,0.0
811,1696168305384,-0.921875,-0.234375,0.21386719,41.84375,13.15625,37.75,0.0,0.0,0.0
812,1696168305444,-1.0371094,-0.36914062,0.15625,42.34375,5.53125,42.78125,0.0,0.0,0.0
813,1696168305474,-0.70410156,-0.3955078,0.0146484375,7.375,38.0625,15.3125,0.0,0.0,0.0
814,1696168305508,-1.2099609,-0.43066406,0.29296875,24.21875,51.8125,22.3125,0.0,0.0,0.0
815,1696168305564,-1.0966797,-0.3388672,0.2939453,-7.8125,30.4375,-9.59375,0.0,0.0,0.0
816,1696168305594,-0.8964844,-0.16015625,0.19238281,-16.96875,23.1875,-8.25,-47.875,16.375,-108.0625
817,1696168305625,-1.2675781,-0.3388672,0.21875,11.59375,24.15625,28.96875,0.0,0.0,0.0
818,1696168305685,-1.2148438,-0.15820312,-0.14941406,-10.75,53.34375,0.90625,0.0,0.0,0.0
819,1696168305715,-0.9609375,-0.22949219,-0.053710938,-4.59375,-3.75,4.375,0.0,0.0,0.0
820,1696168305745,-0.9433594,-0.29882812,-0.14746094,15.1875,30.6875,-1.84375,0.0,0.0,0.0
821,1696168305805,-1.3691406,-0.23828125,0.11621094,16.9375,47.53125,-24.78125,0.0,0.0,0.0
822,1696168305835,-1.1201172,-0.026367188,-0.22070312,-19.96875,-12.59375,-16.6875,0.0,0.0,0.0
823,1696168305866,-1.0126953,-0.09277344,-0.15917969,31.28125,-3.6875,8.21875,0.0,0.0,0.0
824,1696168305926,-0.95214844,-0.22558594,-0.13964844,-2.625,15.625,7.8125,0.0,0.0,0.0
825,1696168305955,-1.2041016,-0.26660156,-0.025390625,-20.34375,36.0,4.375,0.0,0.0,0.0
826,1696168305987,-0.99609375,-0.25195312,-0.11328125,34.78125,7.90625,15.84375,0.0,0.0,0.0
827,1696168306046,-0.9794922,-0.15332031,-0.07910156,18.46875,-0.8125,15.3125,0.0,0.0,0.0
828,1696168306077,-0.8623047,-0.064453125,-0.10058594,13.09375,-0.9375,8.34375,-47.375,17.125,-117.0625
829,1696168306106,-0.8203125,-0.13769531,0.08203125,-5.21875,-8.3125,-2.59375,0.0,0.0,0.0
830,1696168306163,-0.82421875,-0.17578125,-0.032226562,-24.625,-11.0,-4.59375,0.0,0.0,0.0
831,1696168306193,-0.69628906,-0.23828125,-0.11230469,7.96875,-20.65625,-4.78125,0.0,0.0,0.0
832,1696168306226,-1.0419922,-0.45898438,0.14550781,2.90625,2.96875,-9.0625,0.0,0.0,0.0
833,1696168306290,-1.0019531,-0.14941406,-0.16210938,3.34375,-6.84375,-16.9375,0.0,0.0,0.0
834,1696168306315,-0.9111328,-0.18847656,0.028320312,-15.625,-33.65625,2.0,0.0,0.0,0.0
835,1696168306345,-0.9765625,-0.4326172,-0.12402344,-16.75,-10.34375,-0.5625,0.0,0.0,0.0
836,1696168306406,-0.8955078,-0.40820312,-0.05078125,8.84375,-19.0,-5.5625,0.0,0.0,0.0
837,1696168306437,-0.90527344,-0.23730469,-0.08203125,19.875,-20.65625,4.0,0.0,0.0,0.0
838,1696168306465,-1.3300781,-0.17480469,0.022460938,15.96875,16.21875,-0.5625,0.0,0.0,0.0
839,1696168306530,-1.2587891,-0.06738281,0.0048828125,-1.71875,-9.21875,-4.46875,0.0,0.0,0.0
840,1696168306556,-1.2412109,-0.21679688,0.08105469,32.75,-34.0,13.15625,0.0,0.0,0.0
841,1696168306586,-1.15625,-0.265625,0.1484375,-9.34375,-20.59375,-4.78125,-47.6875,16.25,-113.125
842,1696168306650,-1.109375,-0.14257812,0.16992188,-11.84375,-29.1875,-16.5,0.0,0.0,0.0
843,1696168306680,-1.0517578,-0.17675781,0.12890625,-29.75,-32.71875,-18.03125,0.0,0.0,0.0
844,1696168306704,-0.97753906,-0.23046875,0.12109375,-24.125,-29.8125,-24.625,0.0,0.0,0.0
845,1696168306768,-1.0527344,-0.20507812,0.06347656,-9.78125,-10.5,-23.40625,0.0,0.0,0.0
846,1696168306795,-0.9238281,-0.2783203,0.08105469,-5.875,-5.09375,-26.5,0.0,0.0,0.0
847,1696168306825,-0.8671875,-0.31933594,0.13574219,-30.84375,-0.8125,-29.5625,0.0,0.0,0.0
848,1696168306888,-0.8964844,-0.26367188,0.055664062,-26.625,13.34375,-23.9375,0.0,0.0,0.0
849,1696168306914,-0.8886719,-0.18066406,0.12011719,-21.1875,14.28125,-21.6875,0.0,0.0,0.0
850,1696168306944,-0.7988281,-0.21191406,0.07324219,-4.90625,4.5,-8.5625,0.0,0.0,0.0
851,1696168307034,-0.67871094,-0.22949219,0.115234375,13.59375,-8.5,7.90625,0.0,0.0,0.0
852,1696168307038,-0.6279297,-0.234375,0.03515625,29.21875,-8.125,38.0625,0.0,0.0,0.0
853,1696168307066,-0.8203125,-0.24511719,0.13183594,54.0625,-4.59375,45.15625,-46.9375,12.3125,-105.8125
854,1696168307125,-0.7988281,-0.15527344,0.20117188,32.5625,7.5,30.4375,0.0,0.0,0.0
855,1696168307155,-0.92089844,-0.20703125,0.005859375,-3.5625,40.75,20.96875,0.0,0.0,0.0
856,1696168307190,-1.1259766,-0.50097656,0.043945312,-22.34375,66.09375,20.96875,0.0,0.0,0.0
857,1696168307243,-1.0703125,-0.50097656,0.2421875,-23.28125,38.1875,-11.5,0.0,0.0,0.0
858,1696168307276,-1.0771484,-0.2861328,0.28320312,-11.71875,8.78125,-5.4375,0.0,0.0,0.0
859,1696168307306,-1.0537109,-0.16015625,-0.03515625,-1.78125,2.84375,8.21875,0.0,0.0,0.0
860,1696168307365,-1.2353516,-0.30664062,-0.12792969,2.5,49.4375,10.59375,0.0,0.0,0.0
861,1696168307393,-1.0478516,-0.18847656,0.0146484375,-17.78125,10.78125,0.65625,0.0,0.0,0.0
862,1696168307423,-1.3164062,-0.25195312,-0.12792969,19.46875,36.84375,-6.5,0.0,0.0,0.0
863,1696168307485,-1.1503906,0.005859375,0.087890625,9.3125,-6.125,-3.90625,0.0,0.0,0.0
864,1696168307517,-0.9921875,0.0625,-0.19921875,-18.5625,1.03125,15.5,0.0,0.0,0.0
865,1696168307546,-1.0644531,-0.22363281,-0.05078125,5.34375,15.96875,35.5,0.0,0.0,0.0
866,1696168307605,-1.0195312,-0.328125,-0.12402344,-17.09375,11.46875,9.125,-48.0,17.0,-115.5625
867,1696168307635,-1.0302734,-0.11425781,-0.049804688,0.28125,9.8125,6.03125,0.0,0.0,0.0
868,1696168307667,-0.9824219,-0.13964844,-0.051757812,16.84375,8.71875,13.40625,0.0,0.0,0.0
869,1696168307726,-0.96972656,-0.21289062,-0.08886719,6.21875,3.21875,13.15625,0.0,0.0,0.0
870,1696168307755,-0.92089844,-0.23144531,-0.020507812,10.125,-3.3125,3.34375,0.0,0.0,0.0
871,1696168307788,-0.87109375,-0.2421875,0.005859375,5.46875,-6.71875,-2.9375,0.0,0.0,0.0
872,1696168307845,-0.8408203,-0.27929688,0.030273438,-1.78125,-15.6875,-12.71875,0.0,0.0,0.0
873,1696168307876,-0.86035156,-0.28710938,-0.059570312,32.625,-16.4375,-13.625,0.0,0.0,0.0
874,1696168307906,-0.64746094,-0.15625,-0.02734375,13.59375,-30.15625,-24.84375,0.0,0.0,0.0
875,1696168307966,-1.0664062,-0.12402344,-0.028320312,-4.96875,-13.25,-13.8125,0.0,0.0,0.0
876,1696168307997,-0.8232422,-0.20019531,-0.078125,-37.375,-7.40625,3.78125,0.0,0.0,0.0
877,1696168308027,-1.1835938,-0.50683594,-0.049804688,-28.53125,4.75,-2.15625,0.0,0.0,0.0
878,1696168308084,-0.8359375,-0.47265625,-0.009765625,18.125,-20.03125,-10.625,-46.8125,18.1875,-115.25
879,1696168308112,-0.97265625,-0.23046875,-0.036132812,28.78125,-7.28125,-9.0,0.0,0.0,0.0
880,1696168308143,-0.82128906,-0.13476562,0.0126953125,4.6875,-20.28125,7.125,0.0,0.0,0.0
881,1696168308204,-1.4414062,-0.22851562,-0.045898438,20.3125,10.375,10.71875,0.0,0.0,0.0
882,1696168308233,-1.3339844,-0.3076172,-0.026367188,31.84375,-12.28125,38.875,0.0,0.0,0.0
883,1696168308262,-1.4365234,-0.22851562,0.24511719,28.65625,-23.6875,20.3125,0.0,0.0,0.0
884,1696168308327,-1.2607422,-0.015625,0.31152344,11.53125,-24.0,-32.5,0.0,0.0,0.0
885,1696168308354,-1.0419922,-0.034179688,0.14160156,-13.1875,-47.0625,-41.6875,0.0,0.0,0.0
886,1696168308386,-0.9658203,0.0625,0.18066406,-28.03125,-45.96875,-27.0625,0.0,0.0,0.0
887,1696168308450,-1.0371094,-0.1328125,0.11816406,-31.03125,-34.125,-23.03125,0.0,0.0,0.0
888,1696168308477,-1.0214844,-0.28222656,0.20117188,-45.0,-29.5625,-37.0625,0.0,0.0,0.0
889,1696168308506,-0.8935547,-0.31347656,0.16210938,-32.1875,-38.65625,-32.0625,0.0,0.0,0.0
890,1696168308567,-0.79785156,-0.17382812,0.13671875,-12.15625,-17.03125,-27.1875,0.0,0.0,0.0
891,1696168308596,-0.75878906,-0.033203125,0.13183594,-15.75,7.0625,-12.65625,-48.75,11.125,-105.0625
892,1696168308626,-0.75683594,-0.10839844,0.08203125,-14.25,12.8125,7.6875,0.0,0.0,0.0
893,1696168308687,-0.64160156,-0.19921875,0.12597656,-9.84375,15.5625,16.15625,0.0,0.0,0.0
894,1696168308717,-0.7675781,-0.23339844,0.18261719,31.46875,14.9375,34.09375,0.0,0.0,0.0
895,1696168308744,-0.7910156,-0.42773438,0.13378906,20.6875,28.65625,44.34375,0.0,0.0,0.0
896,1696168308808,-0.72265625,-0.29296875,0.13183594,12.0625,24.65625,20.90625,0.0,0.0,0.0
897,1696168308835,-0.9199219,-0.32128906,0.19140625,1.75,51.125,20.0,0.0,0.0,0.0
898,1696168308865,-0.9921875,-0.22070312,0.034179688,12.9375,51.9375,10.46875,0.0,0.0,0.0
899,1696168308925,-1.2568359,-0.29296875,0.40820312,15.4375,45.03125,10.46875,0.0,0.0,0.0
900,1696168308955,-1.0898438,-0.29003906,0.25878906,-24.375,14.875,-0.4375,0.0,0.0,0.0
901,1696168308985,-1.2929688,-0.14355469,0.047851562,-26.4375,17.375,9.9375,0.0,0.0,0.0
902,1696168309046,-1.1328125,-0.17675781,-0.23242188,-19.59375,28.25,9.25,0.0,0.0,0.0
903,1696168309076,-1.0507812,-0.24511719,0.109375,-16.25,17.0,13.96875,-48.125,18.1875,-114.625
904,1696168309105,-1.2626953,-0.25097656,-0.091796875,-5.6875,40.4375,-0.125,0.0,0.0,0.0
905,1696168309169,-1.0869141,-0.0703125,-0.018554688,12.3125,-0.75,-2.53125,0.0,0.0,0.0
906,1696168309226,-1.0185547,-0.053710938,-0.18066406,8.96875,-0.5,10.84375,0.0,0.0,0.0
907,1696168309230,-1.2099609,-0.18457031,-0.08300781,16.65625,45.46875,19.8125,0.0,0.0,0.0
908,1696168309319,-0.9980469,-0.2265625,-0.09863281,-1.0,15.125,14.9375,0.0,0.0,0.0
909,1696168309325,-0.9580078,-0.09375,-0.049804688,10.1875,6.875,13.65625,0.0,0.0,0.0
910,1696168309345,-0.8876953,-0.21191406,-0.055664062,10.71875,1.09375,12.875,0.0,0.0,0.0
911,1696168309409,-0.87109375,-0.026367188,-0.068359375,-8.4375,-5.375,5.21875,0.0,0.0,0.0
912,1696168309434,-0.8144531,-0.18066406,-0.07128906,-16.9375,-9.96875,0.03125,0.0,0.0,0.0
913,1696168309466,-0.79785156,-0.234375,0.09765625,-37.78125,-15.9375,-18.03125,0.0,0.0,0.0
914,1696168309526,-0.7294922,-0.17382812,-0.036132812,-22.40625,-24.25,-27.25,0.0,0.0,0.0
915,1696168309556,-0.82421875,-0.26171875,-0.043945312,-35.84375,-7.53125,-34.1875,0.0,0.0,0.0
916,1696168309615,-1.1308594,-0.33691406,-0.078125,-21.8125,42.15625,-9.21875,-46.5,18.8125,-114.5
917,1696168309645,-0.9980469,-0.13671875,-0.14941406,12.875,-32.0625,-4.46875,0.0,0.0,0.0
918,1696168309678,-1.0400391,-0.33007812,-0.14257812,21.78125,-8.9375,5.53125,0.0,0.0,0.0
919,1696168309708,-0.90625,-0.4248047,-0.0390625,-22.71875,-12.78125,-7.21875,0.0,0.0,0.0
920,1696168309765,-1.0712891,-0.22949219,-0.234375,-0.25,-9.65625,-0.6875,0.0,0.0,0.0
921,1696168309793,-1.109375,-0.21289062,0.015625,52.59375,-11.1875,11.59375,0.0,0.0,0.0
922,1696168309824,-1.4443359,-0.23632812,-0.0068359375,3.90625,14.625,-3.0,0.0,0.0,0.0
923,1696168309884,-0.94921875,-0.18066406,0.057617188,35.5,-27.25,7.125,0.0,0.0,0.0
924,1696168309916,-1.1933594,-0.32617188,0.13671875,0.03125,-17.46875,-11.3125,0.0,0.0,0.0
925,1696168309943,-1.1621094,-0.14355469,0.13964844,-34.5,-2.875,-36.15625,0.0,0.0,0.0
926,1696168310005,-0.9560547,-0.07714844,0.040039062,-4.96875,-30.40625,-31.21875,0.0,0.0,0.0
927,1696168310034,-1.1425781,-0.13671875,0.16601562,2.0625,-30.53125,-18.8125,0.0,0.0,0.0
928,1696168310070,-1.1396484,-0.3388672,0.17285156,-37.75,-7.53125,-30.15625,-47.6875,16.25,-109.25
929,1696168310125,-1.0458984,-0.15332031,0.07324219,-10.75,-13.5,-30.46875,0.0,0.0,0.0
930,1696168310155,-0.95410156,-0.22851562,0.04296875,-6.71875,-8.75,-27.65625,0.0,0.0,0.0
931,1696168310186,-0.88964844,-0.21679688,0.119140625,-10.03125,-9.90625,-34.3125,0.0,0.0,0.0
932,1696168310243,-0.78027344,-0.10546875,0.123046875,7.96875,-22.53125,-17.59375,0.0,0.0,0.0
933,1696168310273,-0.7402344,-0.08691406,0.09082031,-14.96875,-2.625,-3.8125,0.0,0.0,0.0
934,1696168310304,-0.6328125,-0.14257812,0.07421875,-14.0,-3.0,15.3125,0.0,0.0,0.0
935,1696168310365,-0.69140625,-0.18261719,0.15625,10.65625,-7.53125,33.25,0.0,0.0,0.0
936,1696168310395,-0.6513672,-0.3173828,0.0234375,42.34375,-0.1875,54.71875,0.0,0.0,0.0
937,1696168310432,-0.9277344,-0.32910156,0.21289062,45.28125,-0.75,24.15625,0.0,0.0,0.0
938,1696168310486,-0.86621094,-0.40234375,0.047851562,-29.6875,34.53125,-5.8125,0.0,0.0,0.0
939,1696168310518,-0.99609375,-0.3515625,0.09667969,-11.6875,57.84375,2.0,0.0,0.0,0.0
940,1696168310546,-1.2685547,-0.49609375,0.39160156,9.375,37.34375,15.625,0.0,0.0,0.0
941,1696168310605,-1.0146484,-0.3388672,0.35546875,2.125,4.6875,7.5,-48.3125,16.25,-112.125
942,1696168310637,-1.2148438,-0.29882812,-0.02734375,41.5,28.1875,16.65625,0.0,0.0,0.0
943,1696168310667,-1.2871094,-0.12597656,-0.23730469,0.34375,52.78125,0.09375,0.0,0.0,0.0
944,1696168310727,-1.0439453,-0.17871094,0.06542969,14.5,11.8125,10.1875,0.0,0.0,0.0
945,1696168310757,-1.1826172,-0.3642578,0.022460938,-8.0625,37.21875,-17.46875,0.0,0.0,0.0
946,1696168310785,-1.1005859,0.056640625,-0.1484375,-2.03125,7.1875,-6.59375,0.0,0.0,0.0
947,1696168310847,-0.9765625,-0.12695312,-0.11621094,26.65625,-8.75,10.90625,0.0,0.0,0.0
948,1696168310877,-1.0605469,-0.23828125,-0.19433594,0.15625,22.3125,6.8125,0.0,0.0,0.0
949,1696168310906,-1.1230469,-0.1640625,-0.08496094,16.78125,38.125,13.65625,0.0,0.0,0.0
950,1696168310967,-1.0097656,0.001953125,-0.125,12.625,4.0,15.84375,0.0,0.0,0.0
951,1696168310996,-0.9511719,-0.123046875,-0.08691406,11.71875,0.40625,18.21875,0.0,0.0,0.0
952,1696168311024,-0.90527344,-0.17578125,-0.0859375,-9.71875,5.53125,11.03125,0.0,0.0,0.0
953,1696168311087,-0.9345703,-0.21191406,-0.06738281,-12.78125,4.875,5.78125,-46.8125,18.1875,-118.375
954,1696168311116,-0.9658203,-0.22753906,-0.033203125,-4.96875,-3.6875,5.90625,0.0,0.0,0.0
955,1696168311144,-0.7871094,-0.22167969,0.033203125,-6.65625,-28.34375,-1.40625,0.0,0.0,0.0
956,1696168311209,-0.6855469,-0.3330078,0.037109375,-14.78125,-28.28125,-16.0,0.0,0.0,0.0
957,1696168311235,-0.81640625,-0.25976562,-0.14160156,-1.1875,-13.625,-29.625,0.0,0.0,0.0
958,1696168311265,-0.88378906,-0.18847656,-0.02734375,2.65625,-6.3125,-12.28125,0.0,0.0,0.0
959,1696168311327,-1.0742188,-0.25195312,-0.123046875,-21.75,0.0,-4.15625,0.0,0.0,0.0
960,1696168311354,-1.0302734,-0.4111328,-0.08984375,17.5,9.6875,1.6875,0.0,0.0,0.0
961,1696168311386,-0.9375,-0.24902344,-0.041992188,23.0,-32.90625,-13.9375,0.0,0.0,0.0
962,1696168311449,-0.94921875,-0.080078125,-0.20605469,-0.375,-26.1875,0.90625,0.0,0.0,0.0
963,1696168311486,-1.3408203,-0.33691406,0.005859375,20.5,10.0625,14.21875,0.0,0.0,0.0
964,1696168311504,-1.2529297,-0.23730469,0.022460938,-26.8125,9.875,-7.875,0.0,0.0,0.0
965,1696168311597,-1.1728516,-0.48828125,0.13867188,10.78125,-22.78125,-13.1875,0.0,0.0,0.0
966,1696168311603,-1.2939453,-0.3076172,0.07421875,14.4375,-24.90625,-30.96875,-48.125,17.4375,-113.625
967,1696168311626,-1.0605469,0.0078125,0.05078125,10.125,-42.625,-28.46875,0.0,0.0,0.0
968,1696168311688,-0.96484375,-0.06347656,0.043945312,-17.71875,-31.09375,-13.625,0.0,0.0,0.0
969,1696168311716,-1.0205078,-0.2890625,0.09472656,-43.03125,-14.3125,-22.46875,0.0,0.0,0.0
970,1696168311744,-0.9707031,-0.36132812,0.123046875,-35.84375,-14.71875,-35.15625,0.0,0.0,0.0
971,1696168311808,-0.9169922,-0.2939453,0.076171875,-20.21875,-10.03125,-36.625,0.0,0.0,0.0
972,1696168311835,-0.95703125,-0.23535156,0.080078125,-5.4375,-17.03125,-27.90625,0.0,0.0,0.0
973,1696168311869,-0.859375,-0.18066406,0.12890625,0.09375,-13.9375,-16.125,0.0,0.0,0.0
974,1696168311926,-0.75878906,-0.1484375,0.12402344,-13.5,-1.0,1.75,0.0,0.0,0.0
975,1696168311954,-0.73535156,-0.29296875,0.103515625,8.21875,-0.8125,24.75,0.0,0.0,0.0
976,1696168311985,-0.75,-0.25585938,0.17578125,-14.84375,10.3125,32.8125,0.0,0.0,0.0
977,1696168312044,-0.7265625,-0.35058594,0.048828125,18.125,1.21875,43.9375,0.0,0.0,0.0
978,1696168312076,-0.7636719,-0.43359375,0.14355469,68.84375,6.6875,22.03125,-49.375,15.5,-107.875
979,1696168312109,-0.91503906,-0.3046875,0.18945312,20.3125,11.71875,1.15625,0.0,0.0,0.0
980,1696168312166,-0.75,-0.19042969,-0.020507812,21.53125,41.65625,2.375,0.0,0.0,0.0
981,1696168312194,-1.1845703,-0.3720703,0.23730469,13.15625,47.21875,20.1875,0.0,0.0,0.0
982,1696168312224,-1.0517578,-0.33496094,0.2626953,-18.03125,13.0,0.21875,0.0,0.0,0.0
983,1696168312285,-0.9736328,-0.46679688,0.034179688,32.5625,19.34375,15.3125,0.0,0.0,0.0
984,1696168312314,-1.2402344,-0.359375,0.18359375,21.90625,30.0625,21.65625,0.0,0.0,0.0
985,1696168312346,-1.2900391,-0.14550781,-0.10839844,23.3125,50.21875,-1.40625,0.0,0.0,0.0
986,1696168312405,-1.0849609,0.04296875,-0.051757812,10.65625,-3.875,6.6875,0.0,0.0,0.0
987,1696168312435,-1.1201172,-0.09277344,-0.030273438,15.5625,18.125,14.8125,0.0,0.0,0.0
988,1696168312467,-1.0302734,-0.1328125,-0.13964844,6.09375,18.90625,10.71875,0.0,0.0,0.0
989,1696168312525,-1.1904297,-0.25585938,-0.09082031,-1.1875,18.34375,1.03125,0.0,0.0,0.0
990,1696168312555,-1.1582031,-0.12597656,-0.12109375,3.21875,18.125,2.71875,0.0,0.0,0.0
991,1696168312615,-0.9814453,-0.095703125,-0.06933594,-1.0,8.15625,10.59375,-46.1875,18.0625,-119.0
992,1696168312646,-0.9628906,-0.13085938,-0.13867188,5.21875,17.4375,15.0625,0.0,0.0,0.0
993,1696168312676,-1.0009766,-0.06738281,-0.10253906,-2.53125,15.78125,19.09375,0.0,0.0,0.0
994,1696168312706,-0.95996094,-0.12597656,-0.0146484375,1.375,3.53125,18.0625,0.0,0.0,0.0
995,1696168312765,-0.93652344,-0.234375,-0.10644531,4.75,1.3125,12.5,0.0,0.0,0.0
996,1696168312795,-0.89941406,-0.21582031,-0.0087890625,-3.5,-5.09375,2.71875,0.0,0.0,0.0
997,1696168312824,-0.8574219,-0.21777344,-0.057617188,16.78125,-9.28125,-0.75,0.0,0.0,0.0
998,1696168312885,-0.9238281,-0.14355469,0.12792969,-1.46875,-9.21875,-5.6875,0.0,0.0,0.0
999,1696168312914,-0.7871094,-0.09472656,-0.051757812,-23.6875,-35.71875,-10.5,0.0,0.0,0.0
1000,1696168312944,-0.7675781,-0.41503906,0.021484375,-6.84375,-8.625,-3.8125,0.0,0.0,0.0
1001,1696168313006,-1.0498047,-0.35546875,-0.12988281,-23.28125,9.625,-21.1875,0.0,0.0,0.0
1002,1696168313035,-0.9921875,-0.05078125,-0.10058594,-26.3125,-0.875,-2.9375,0.0,0.0,0.0
1003,1696168313095,-0.92285156,-0.27539062,-0.03125,3.28125,-30.78125,-0.125,-49.0625,21.1875,-117.5
1004,1696168313131,-0.9345703,-0.4501953,-0.15429688,1.8125,-14.0625,0.65625,0.0,0.0,0.0
1005,1696168313155,-1.2626953,-0.19042969,-0.10546875,-13.75,-8.1875,-17.71875,0.0,0.0,0.0
1006,1696168313186,-1.3212891,-0.25195312,0.12011719,6.625,-4.34375,-8.75,0.0,0.0,0.0
1007,1696168313247,-1.1953125,-0.25878906,0.0029296875,28.84375,-35.84375,2.25,0.0,0.0,0.0
1008,1696168313275,-1.2919922,-0.10449219,0.0068359375,39.59375,-4.09375,-3.25,0.0,0.0,0.0
1009,1696168313305,-1.1210938,0.041992188,0.12695312,14.28125,-21.0625,-15.09375,0.0,0.0,0.0
1010,1696168313370,-0.9433594,-0.11425781,0.2109375,-20.21875,-38.84375,-31.5625,0.0,0.0,0.0
1011,1696168313397,-1.0146484,-0.16992188,0.12792969,-47.8125,-21.875,-44.6875,0.0,0.0,0.0
1012,1696168313426,-1.0078125,-0.15527344,0.10058594,-56.84375,-21.375,-38.09375,0.0,0.0,0.0
1013,1696168313489,-1.0996094,-0.2841797,0.08300781,-35.96875,-10.28125,-33.9375,0.0,0.0,0.0
1014,1696168313515,-0.8876953,-0.20214844,0.049804688,-2.6875,-11.5625,-25.65625,0.0,0.0,0.0
1015,1696168313575,-0.8076172,-0.15820312,0.080078125,5.84375,-15.59375,-14.59375,-52.5,12.8125,-107.0
1016,1696168313605,-0.66796875,-0.043945312,0.09082031,-3.6875,-2.03125,-5.21875,0.0,0.0,0.0
1017,1696168313635,-0.58203125,-0.099609375,0.051757812,11.8125,1.8125,13.71875,0.0,0.0,0.0
1018,1696168313665,-0.8339844,-0.2265625,0.18359375,13.40625,13.03125,26.21875,0.0,0.0,0.0
1019,1696168313724,-0.82421875,-0.21777344,0.119140625,-10.8125,17.25,33.8125,0.0,0.0,0.0
1020,1696168313759,-0.70996094,-0.25683594,0.052734375,36.125,-8.875,26.46875,0.0,0.0,0.0
1021,1696168313786,-1.0517578,-0.42578125,0.29492188,24.21875,10.46875,30.625,0.0,0.0,0.0
1022,1696168313884,-0.89941406,-0.3544922,0.06347656,-22.0,20.6875,27.75,0.0,0.0,0.0
1023,1696168313887,-1.1318359,-0.30566406,0.30664062,2.65625,37.28125,14.21875,0.0,0.0,0.0
1024,1696168313905,-1.0830078,-0.40234375,0.22753906,12.0625,31.78125,7.125,0.0,0.0,0.0
1025,1696168313970,-1.0048828,-0.19433594,0.29003906,4.1875,31.53125,2.3125,0.0,0.0,0.0
1026,1696168313995,-1.2685547,-0.08984375,-0.11230469,-14.90625,39.53125,0.34375,0.0,0.0,0.0
1027,1696168314026,-1.1679688,0.12988281,-0.083984375,-17.09375,36.84375,3.90625,0.0,0.0,0.0
1028,1696168314085,-1.4746094,-0.4296875,0.1953125,-4.15625,25.5,-8.25,-49.9375,18.1875,-117.0625
1029,1696168314116,-1.2460938,-0.24316406,-0.10546875,-28.46875,23.1875,-23.03125,0.0,0.0,0.0
1030,1696168314144,-1.0126953,0.017578125,-0.29296875,17.9375,-21.75,7.8125,0.0,0.0,0.0
1031,1696168314209,-0.9921875,-0.0859375,-0.10546875,16.21875,14.375,28.4375,0.0,0.0,0.0
1032,1696168314235,-1.0810547,-0.40625,-0.044921875,-16.8125,44.46875,15.3125,0.0,0.0,0.0
1033,1696168314264,-1.0957031,0.09277344,-0.123046875,11.71875,21.65625,18.40625,0.0,0.0,0.0
1034,1696168314329,-0.9589844,-0.115234375,-0.10058594,2.0,0.90625,29.03125,0.0,0.0,0.0
1035,1696168314356,-0.8408203,-0.28125,-0.061523438,0.65625,1.875,19.46875,0.0,0.0,0.0
1036,1696168314386,-0.79003906,-0.22558594,-0.01171875,-2.59375,-14.96875,-8.1875,0.0,0.0,0.0
1037,1696168314447,-0.7626953,-0.14453125,0.0068359375,-14.65625,-26.25,-23.625,0.0,0.0,0.0
1038,1696168314478,-0.92578125,-0.15527344,-0.0107421875,-13.3125,-5.625,-21.875,0.0,0.0,0.0
1039,1696168314509,-0.7128906,-0.13964844,-0.001953125,4.75,-25.09375,-20.78125,0.0,0.0,0.0
1040,1696168314563,-0.9873047,-0.3251953,-0.018554688,-30.28125,-8.625,-26.1875,-50.125,18.8125,-116.125
1041,1696168314594,-0.9375,-0.31835938,-0.13378906,6.03125,11.9375,-12.71875,0.0,0.0,0.0
1042,1696168314627,-0.94628906,-0.2529297,-0.076171875,16.46875,-17.65625,-16.625,0.0,0.0,0.0
1043,1696168314684,-1.0820312,-0.17773438,-0.15917969,-5.9375,8.09375,-6.53125,0.0,0.0,0.0
1044,1696168314715,-0.9482422,-0.36132812,-0.107421875,23.90625,-1.65625,7.5625,0.0,0.0,0.0
1045,1696168314749,-1.0087891,-0.23730469,-0.087890625,36.1875,-23.28125,14.375,0.0,0.0,0.0
1046,1696168314805,-1.2539062,0.030273438,-0.045898438,22.09375,7.90625,9.25,0.0,0.0,0.0
1047,1696168314835,-1.2373047,-0.296875,-0.06347656,18.0625,-0.875,18.96875,0.0,0.0,0.0
1048,1696168314864,-1.2636719,-0.14160156,0.055664062,14.4375,-1.125,24.40625,0.0,0.0,0.0
1049,1696168314927,-1.1318359,-0.15722656,0.15136719,0.65625,-19.90625,6.6875,0.0,0.0,0.0
1050,1696168314954,-1.1679688,-0.24804688,0.20410156,-31.9375,-29.5,-30.84375,0.0,0.0,0.0
1051,1696168314986,-1.0390625,-0.10644531,0.05859375,-23.8125,-36.8125,-41.21875,0.0,0.0,0.0
1052,1696168315045,-1.0302734,-0.09667969,0.11035156,-9.40625,-21.125,-20.9375,0.0,0.0,0.0
1053,1696168315071,-1.0087891,-0.23730469,0.040039062,-18.3125,-14.25,-25.96875,-49.8125,15.8125,-110.0
1054,1696168315101,-0.9824219,-0.1171875,0.11035156,-25.34375,-14.1875,-32.25,0.0,0.0,0.0
1055,1696168315162,-0.95703125,-0.18554688,0.08691406,-35.21875,-9.0,-37.84375,0.0,0.0,0.0
1056,1696168315191,-0.8613281,-0.22558594,0.072265625,-24.625,-22.53125,-36.75,0.0,0.0,0.0
1057,1696168315253,-0.7890625,-0.11230469,0.16113281,-15.875,-22.96875,-28.34375,0.0,0.0,0.0
1058,1696168315284,-0.65527344,-0.18261719,0.12695312,-19.71875,-4.90625,-5.21875,0.0,0.0,0.0
1059,1696168315313,-0.6425781,-0.14355469,0.14746094,-11.5625,-19.4375,10.84375,0.0,0.0,0.0
1060,1696168315372,-0.78125,-0.28710938,0.0234375,6.03125,7.5625,42.21875,0.0,0.0,0.0
1061,1696168315401,-0.6357422,-0.39648438,0.17089844,39.28125,11.03125,47.96875,0.0,0.0,0.0
1062,1696168315431,-0.9199219,-0.21777344,0.10058594,38.0,4.8125,10.1875,0.0,0.0,0.0
1063,1696168315492,-1.0761719,-0.2890625,-0.08886719,-1.71875,62.65625,26.71875,0.0,0.0,0.0
1064,1696168315527,-1.2001953,-0.099609375,0.2705078,-28.65625,35.03125,10.1875,0.0,0.0,0.0
1065,1696168315553,-1.0068359,-0.43945312,0.2705078,-42.875,20.6875,4.1875,-51.0,15.3125,-110.875
1066,1696168315611,-0.9111328,-0.32421875,0.14550781,-31.625,2.4375,15.96875,0.0,0.0,0.0
1067,1696168315644,-1.3701172,-0.46972656,-0.09765625,15.4375,67.0625,10.84375,0.0,0.0,0.0
1068,1696168315675,-1.3183594,-0.20117188,-0.08300781,14.15625,48.25,-1.71875,0.0,0.0,0.0
1069,1696168315732,-1.2744141,-0.15625,0.16796875,25.8125,5.59375,-5.09375,0.0,0.0,0.0
1070,1696168315764,-1.0986328,0.10644531,-0.18457031,18.53125,28.5,9.03125,0.0,0.0,0.0
1071,1696168315793,-0.9550781,-0.1171875,-0.14746094,21.40625,-20.21875,10.1875,0.0,0.0,0.0
1072,1696168315852,-1.0820312,-0.076171875,-0.21582031,-29.125,27.34375,6.46875,0.0,0.0,0.0
1073,1696168315884,-1.1054688,-0.21191406,-0.06933594,2.0625,25.0625,21.40625,0.0,0.0,0.0
1074,1696168315945,-0.9892578,-0.24316406,-0.06738281,2.96875,5.53125,11.40625,0.0,0.0,0.0
1075,1696168315978,-0.93847656,-0.1328125,-0.14746094,26.28125,12.5,16.21875,0.0,0.0,0.0
1076,1696168316006,-0.9785156,-0.12792969,-0.038085938,13.03125,14.75,9.125,0.0,0.0,0.0
1077,1696168316036,-0.93652344,-0.20996094,-0.06738281,4.875,1.5625,8.15625,0.0,0.0,0.0
1078,1696168316092,-0.8310547,-0.22363281,-0.06347656,9.75,-10.03125,-3.0625,-48.3125,18.3125,-118.5625
1079,1696168316156,-0.7714844,-0.2109375,0.028320312,-4.15625,-18.9375,-19.84375,0.0,0.0,0.0
1080,1696168316162,-0.8027344,-0.18457031,-0.15527344,-16.125,-34.25,-32.5,0.0,0.0,0.0
1081,1696168316214,-0.9814453,-0.22949219,-0.08886719,24.8125,14.15625,-9.96875,0.0,0.0,0.0
1082,1696168316245,-0.75878906,-0.05859375,-0.01953125,-16.875,-48.59375,-17.65625,0.0,0.0,0.0
1083,1696168316275,-1.0205078,-0.30371094,-0.029296875,-13.875,-0.875,-13.8125,0.0,0.0,0.0
1084,1696168316335,-0.828125,-0.453125,-0.15136719,18.21875,-10.4375,-14.53125,0.0,0.0,0.0
1085,1696168316368,-1.1992188,-0.27734375,-0.08886719,-28.09375,10.84375,-12.84375,0.0,0.0,0.0
1086,1696168316393,-1.0546875,-0.10546875,-0.06933594,35.375,-39.75,11.03125,0.0,0.0,0.0
1087,1696168316455,-0.8828125,-0.49023438,-0.12109375,47.03125,-40.65625,26.09375,0.0,0.0,0.0
1088,1696168316487,-1.3173828,-0.27929688,0.043945312,-2.59375,-1.1875,-5.5,0.0,0.0,0.0
1089,1696168316516,-1.2138672,-0.05859375,-0.030273438,3.65625,5.21875,3.78125,0.0,0.0,0.0
1090,1696168316574,-1.0019531,-0.18554688,0.13183594,24.53125,-23.625,6.09375,-49.1875,15.625,-112.5625
1091,1696168316608,-1.1142578,-0.20703125,0.13574219,1.03125,-7.9375,-13.25,0.0,0.0,0.0
1092,1696168316635,-1.1269531,-0.23339844,0.17675781,-9.65625,-16.875,-26.3125,0.0,0.0,0.0
1093,1696168316695,-1.0556641,-0.06738281,0.068359375,-25.40625,-41.8125,-36.5625,0.0,0.0,0.0
1094,1696168316727,-1.1572266,-0.140625,0.20800781,-60.5,-36.625,-34.0,0.0,0.0,0.0
1095,1696168316756,-1.0332031,-0.2529297,0.11621094,-50.90625,-24.3125,-37.0625,0.0,0.0,0.0
1096,1696168316814,-0.9560547,-0.2939453,0.08691406,-16.875,-11.71875,-35.0625,0.0,0.0,0.0
1097,1696168316845,-0.8828125,-0.36035156,0.048828125,-39.875,0.59375,-32.25,0.0,0.0,0.0
1098,1696168316875,-0.7685547,-0.17675781,0.10839844,-11.90625,-6.25,-16.375,0.0,0.0,0.0
1099,1696168316966,-0.6464844,-0.16992188,0.140625,10.375,7.5,0.03125,0.0,0.0,0.0
1100,1696168316970,-0.6328125,-0.21777344,0.08105469,14.5,8.59375,19.46875,0.0,0.0,0.0
1101,1696168316994,-0.59277344,-0.17871094,0.025390625,24.03125,4.875,41.4375,0.0,0.0,0.0
1102,1696168317055,-0.8408203,-0.18261719,0.12597656,55.53125,19.9375,62.125,0.0,0.0,0.0
1103,1696168317089,-0.9111328,-0.27539062,0.28710938,80.84375,2.96875,58.09375,-49.1875,13.5625,-109.125
1104,1696168317114,-0.94433594,-0.42382812,0.0126953125,-8.6875,-1.0,7.8125,0.0,0.0,0.0
1105,1696168317206,-1.0771484,-0.3671875,0.09472656,-33.875,67.78125,-6.125,0.0,0.0,0.0
1106,1696168317210,-1.1933594,-0.38183594,0.36035156,-6.375,43.875,-6.96875,0.0,0.0,0.0
1107,1696168317234,-0.9707031,-0.24609375,0.28515625,6.875,-8.0625,-3.875,0.0,0.0,0.0
1108,1696168317296,-1.2333984,-0.21484375,-0.11816406,-19.90625,52.0,4.4375,0.0,0.0,0.0
1109,1696168317326,-1.1015625,-0.041992188,-0.021484375,-7.28125,52.96875,5.46875,0.0,0.0,0.0
1110,1696168317354,-1.0654297,-0.3798828,-0.080078125,15.0625,17.1875,11.59375,0.0,0.0,0.0
1111,1696168317416,-1.2294922,-0.22949219,-0.15234375,-12.59375,71.09375,-20.78125,0.0,0.0,0.0
1112,1696168317445,-1.2119141,0.0146484375,0.025390625,-31.875,-31.21875,-21.4375,0.0,0.0,0.0
1113,1696168317479,-1.0654297,-0.029296875,-0.21972656,24.15625,10.59375,19.03125,0.0,0.0,0.0
1114,1696168317536,-1.0878906,-0.15527344,-0.24511719,5.0,0.09375,18.0625,0.0,0.0,0.0
1115,1696168317566,-1.0458984,-0.3564453,-0.07128906,-25.53125,20.6875,6.5625,-48.125,15.625,-116.3125
1116,1696168317596,-1.0097656,-0.047851562,-0.0390625,16.53125,12.5,15.0625,0.0,0.0,0.0
1117,1696168317656,-0.93847656,-0.1640625,-0.11425781,14.375,3.46875,16.40625,0.0,0.0,0.0
1118,1696168317688,-0.96191406,-0.171875,-0.08984375,6.09375,13.71875,14.375,0.0,0.0,0.0
1119,1696168317715,-0.93066406,-0.17578125,-0.041015625,4.25,0.46875,9.125,0.0,0.0,0.0
1120,1696168317776,-0.89160156,-0.19726562,-0.06738281,-6.125,-8.8125,0.40625,0.0,0.0,0.0
1121,1696168317806,-0.7792969,-0.26367188,0.040039062,2.96875,-20.9375,-8.125,0.0,0.0,0.0
1122,1696168317836,-0.92871094,-0.33203125,-0.07519531,13.90625,-10.5,-18.875,0.0,0.0,0.0
1123,1696168317895,-0.82128906,-0.16113281,-0.09082031,1.375,-15.53125,-28.03125,0.0,0.0,0.0
1124,1696168317926,-0.97265625,-0.068359375,-0.06738281,22.375,2.3125,-10.9375,0.0,0.0,0.0
1125,1696168317954,-0.9345703,-0.09082031,-0.11816406,-15.59375,-3.875,-4.53125,0.0,0.0,0.0
1126,1696168318016,-1.0126953,-0.33007812,-0.052734375,-27.59375,-7.40625,-5.8125,0.0,0.0,0.0
1127,1696168318047,-0.93066406,-0.27734375,-0.080078125,-38.34375,-16.625,-11.90625,0.0,0.0,0.0
1128,1696168318078,-0.9042969,-0.36523438,-0.15039062,4.875,1.5,2.84375,-49.0625,12.9375,-115.875
1129,1696168318135,-0.8027344,-0.29785156,-0.07324219,-0.0625,-25.28125,-7.03125,0.0,0.0,0.0
1130,1696168318173,-1.2246094,-0.32128906,-0.08496094,3.65625,7.625,4.0,0.0,0.0,0.0
1131,1696168318196,-1.2294922,-0.21875,-0.095703125,32.53125,-11.84375,2.65625,0.0,0.0,0.0
1132,1696168318257,-1.1064453,-0.15429688,-0.046875,15.0,-17.46875,10.1875,0.0,0.0,0.0
1133,1696168318284,-1.0458984,-0.31835938,0.18652344,7.3125,-18.4375,9.25,0.0,0.0,0.0
1134,1696168318313,-1.2666016,-0.45214844,0.07324219,-15.46875,3.40625,-20.59375,0.0,0.0,0.0
1135,1696168318376,-1.1337891,-0.2626953,0.09667969,3.15625,-32.0,-31.3125,0.0,0.0,0.0
1136,1696168318440,-1.1572266,-0.09472656,0.07128906,5.1875,-47.25,-32.65625,0.0,0.0,0.0
1137,1696168318444,-0.98535156,-0.20019531,0.1171875,-14.25,-52.625,-35.15625,0.0,0.0,0.0
1138,1696168318498,-0.96875,-0.31054688,0.16699219,-13.75,-19.65625,-35.46875,0.0,0.0,0.0
1139,1696168318526,-1.0439453,-0.25390625,0.08496094,-21.125,-5.75,-40.0,0.0,0.0,0.0
1140,1696168318557,-0.91503906,-0.19238281,0.034179688,-17.78125,-10.5,-36.15625,-48.0,9.0625,-106.875
1141,1696168318614,-0.83984375,-0.2607422,0.08203125,-10.15625,-7.53125,-25.09375,0.0,0.0,0.0
1142,1696168318646,-0.84472656,-0.25390625,0.12988281,-2.6875,2.375,-1.25,0.0,0.0,0.0
1143,1696168318677,-0.8066406,-0.17675781,0.057617188,22.09375,2.5,17.0625,0.0,0.0,0.0
1144,1696168318737,-0.6933594,-0.08300781,0.030273438,22.625,10.59375,24.03125,0.0,0.0,0.0
1145,1696168318766,-0.7138672,-0.21191406,0.06347656,19.8125,23.46875,42.59375,0.0,0.0,0.0
1146,1696168318794,-0.81347656,-0.3173828,0.12695312,15.3125,19.40625,39.34375,0.0,0.0,0.0
1147,1696168318856,-0.8378906,-0.44140625,0.24121094,6.8125,22.6875,27.21875,0.0,0.0,0.0
1148,1696168318889,-0.82714844,-0.36816406,0.09863281,14.625,8.59375,19.75,0.0,0.0,0.0
1149,1696168318914,-0.9326172,-0.34179688,-0.03125,14.09375,54.4375,2.1875,0.0,0.0,0.0
1150,1696168318975,-1.0546875,-0.3310547,0.2529297,-11.625,29.28125,-2.15625,0.0,0.0,0.0
1151,1696168319011,-0.9169922,-0.39257812,0.1015625,-1.0625,12.1875,6.21875,0.0,0.0,0.0
1152,1696168319035,-1.0439453,-0.20605469,0.11816406,-24.5,10.3125,1.5,0.0,0.0,0.0
1153,1696168319096,-1.3740234,-0.18554688,-0.052734375,-25.03125,52.34375,6.5625,-49.1875,12.8125,-113.3125
1154,1696168319129,-1.4970703,-0.16503906,-0.10449219,-5.3125,8.53125,13.53125,0.0,0.0,0.0
1155,1696168319155,-0.90234375,-0.234375,0.13867188,-34.625,0.46875,6.34375,0.0,0.0,0.0
1156,1696168319216,-1.1416016,0.021484375,-0.068359375,15.3125,66.75,25.6875,0.0,0.0,0.0
1157,1696168319247,-1.0634766,-0.28222656,-0.22460938,-34.8125,-39.5625,-0.625,0.0,0.0,0.0
1158,1696168319275,-0.82714844,-0.037109375,-0.15917969,-33.71875,-11.4375,5.78125,0.0,0.0,0.0
1159,1696168319336,-0.98535156,-0.045898438,-0.10449219,12.75,16.40625,34.78125,0.0,0.0,0.0
1160,1696168319366,-0.9980469,-0.20703125,-0.06542969,-47.75,17.25,11.8125,0.0,0.0,0.0
1161,1696168319395,-0.9951172,-0.36914062,0.01953125,-1.78125,0.40625,14.21875,0.0,0.0,0.0
1162,1696168319455,-0.9550781,-0.21582031,-0.064453125,12.25,6.46875,6.5625,0.0,0.0,0.0
1163,1696168319485,-1.0380859,-0.13964844,-0.10839844,12.875,23.1875,11.9375,0.0,0.0,0.0
1164,1696168319515,-1.0400391,-0.18847656,-0.021484375,21.40625,13.40625,11.03125,0.0,0.0,0.0
1165,1696168319576,-0.89453125,-0.20214844,-0.055664062,5.84375,-10.6875,6.5625,-46.375,18.9375,-118.125
1166,1696168319605,-0.8964844,-0.20117188,-0.056640625,5.28125,-17.03125,-6.78125,0.0,0.0,0.0
1167,1696168319635,-0.7861328,-0.24707031,0.09765625,1.9375,-18.5625,-17.90625,0.0,0.0,0.0
1168,1696168319695,-0.8408203,-0.30566406,-0.08886719,6.9375,-4.40625,-19.65625,0.0,0.0,0.0
1169,1696168319728,-0.7919922,-0.2109375,-0.0546875,33.25,7.25,-21.375,0.0,0.0,0.0
1170,1696168319755,-0.80371094,0.005859375,-0.16796875,-8.3125,-22.53125,-26.0625,0.0,0.0,0.0
1171,1696168319816,-0.9238281,-0.22363281,-0.10839844,-2.34375,24.875,-7.71875,0.0,0.0,0.0
1172,1696168319846,-0.91503906,-0.29101562,-0.08105469,-2.875,-11.84375,-23.4375,0.0,0.0,0.0
1173,1696168319875,-1.1318359,-0.21777344,-0.08886719,-19.125,9.3125,-1.0625,0.0,0.0,0.0
1174,1696168319936,-0.91308594,-0.24707031,-0.10546875,24.65625,-30.84375,0.28125,0.0,0.0,0.0
1175,1696168319967,-1.0410156,-0.4296875,-0.103515625,-5.25,-10.40625,3.21875,0.0,0.0,0.0
1176,1696168319996,-1.3798828,-0.17675781,-0.017578125,24.65625,8.46875,-3.25,0.0,0.0,0.0
1177,1696168320056,-1.1132812,-0.16308594,0.021484375,17.3125,-35.0625,-1.65625,0.0,0.0,0.0
1178,1696168320087,-1.5146484,-0.39453125,0.21875,-31.25,-22.125,-32.96875,-47.875,15.3125,-113.3125
1179,1696168320113,-1.15625,-0.17480469,0.021484375,-43.40625,-39.125,-47.0625,0.0,0.0,0.0
1180,1696168320176,-1.0917969,-0.15820312,0.06933594,-6.90625,-34.875,-29.8125,0.0,0.0,0.0
1181,1696168320205,-1.0957031,-0.3564453,0.08105469,-36.9375,-24.78125,-27.0,0.0,0.0,0.0
1182,1696168320234,-0.9580078,-0.23046875,0.02734375,1.5625,-27.40625,-32.96875,0.0,0.0,0.0
1183,1696168320292,-0.91308594,-0.21875,0.0859375,5.59375,-20.71875,-22.34375,0.0,0.0,0.0
1184,1696168320326,-0.8173828,-0.23828125,0.07421875,0.09375,-16.5625,-23.15625,0.0,0.0,0.0
1185,1696168320354,-0.7675781,-0.109375,0.115234375,6.21875,-11.6875,-7.03125,0.0,0.0,0.0
1186,1696168320417,-0.8154297,-0.20410156,0.171875,-4.71875,3.9375,12.875,0.0,0.0,0.0
1187,1696168320445,-0.73828125,-0.18945312,0.1484375,-10.75,10.78125,24.71875,0.0,0.0,0.0
1188,1696168320475,-0.7265625,-0.11035156,0.05078125,-16.5,4.625,44.46875,0.0,0.0,0.0
1189,1696168320535,-0.83496094,-0.39648438,0.091796875,17.1875,18.34375,62.1875,0.0,0.0,0.0
1190,1696168320569,-0.7685547,-0.4765625,0.17382812,76.65625,1.5,39.09375,-49.1875,13.5625,-108.375
1191,1696168320597,-0.74121094,-0.29785156,0.12207031,48.1875,21.03125,19.9375,0.0,0.0,0.0
1192,1696168320655,-0.8955078,-0.19140625,0.11425781,13.71875,48.75,10.375,0.0,0.0,0.0
1193,1696168320718,-1.2685547,-0.359375,0.21875,-13.3125,52.09375,6.9375,0.0,0.0,0.0
1194,1696168320723,-1.0507812,-0.40625,0.2890625,-40.78125,17.8125,-8.5,0.0,0.0,0.0
1195,1696168320772,-1.3320312,-0.37402344,0.1015625,11.59375,16.9375,7.0,0.0,0.0,0.0
1196,1696168320802,-1.3828125,-0.14257812,-0.22558594,-28.03125,70.3125,-9.96875,0.0,0.0,0.0
